Timestamp (microseconds),Gyro X (°/s),Gyro Y (°/s),Gyro Z (°/s)
1658789512297515,-6.805523765926637,-1.1291676203554744,0.33569848172737693
1658789512313513,-5.0354772259097444,-1.2512397955290453,-0.15259021896690683
1658789512329511,-2.288853284504512,-0.7019150072480898,0.15259021896690683
1658789512345509,-0.213626306553806,-0.8239871824216607,0.33569848172737693
1658789512361507,-0.213626306553806,-1.4953841458761872,0.03051804379333589
1658789512377505,-0.7019150072480898,-2.227817196917613,-0.03051804379333589
1658789512393503,-0.7019150072480898,-2.288853284504512,0.33569848172737693
1658789512409501,-3.6316472114137923,-2.4719615472647547,0.2746623941404778
1658789512425499,-6.195162890058782,-2.3498893720911838,-0.2746623941404778
1658789512441496,-5.706874189364498,-1.6174563210497581,-0.5798428320745188
1658789512457494,-1.6784924086366573,-0.9460593575952316,-0.45777065690094787
1658789512473492,2.227817196917613,-0.5798428320745188,-0.33569848172737693
1658789512489490,3.570611123826893,-0.7019150072480898,0.2746623941404778
1658789512505488,4.119935912108076,-0.5188067444876197,1.0681315327688026
1658789512521486,2.3498893720911838,-0.15259021896690683,1.4343480582895154
1658789512537484,-0.5798428320745188,0.213626306553806,1.1902037079423735
1658789512553482,-4.303044174868319,-0.09155413138023505,0.8239871824216607
1658789512569480,-4.9134050507361735,-0.6408789196611906,0.5188067444876197
1658789512585477,-2.7771419851987957,-0.7629510948347615,0.8850232700083325
1658789512601475,0.3967345693140487,-0.7629510948347615,0.8239871824216607
1658789512617462,1.3122758831159445,-0.6408789196611906,0.7629510948347615
1658789512633460,1.6174563210497581,-0.3967345693140487,1.0681315327688026
1658789512649458,1.9226367589837992,-0.09155413138023505,1.8005645838102282
1658789512665455,1.5564202334630863,0.213626306553806,2.4719615472647547
1658789512681453,0.33569848172737693,-0.03051804379333589,2.532997634851654
1658789512697451,-2.7161058976118966,-0.3967345693140487,2.166781109330941
1658789512713449,-2.8381780727854675,-0.6408789196611906,2.227817196917613
1658789512729447,0.2746623941404778,-0.7019150072480898,2.166781109330941
1658789512745445,2.532997634851654,-1.4343480582895154,1.5564202334630863
1658789512761443,2.04470893415737,-2.7161058976118966,1.0070954451819034
1658789512777441,1.4343480582895154,-3.5095750362402214,0.3967345693140487
1658789512793439,1.5564202334630863,-3.0212863355459376,0.7019150072480898
1658789512809436,1.0681315327688026,-2.166781109330941,0.8850232700083325
1658789512825434,-0.7629510948347615,-2.288853284504512,0.33569848172737693
1658789512841432,-1.3733119707026162,-2.7161058976118966,0.2746623941404778
1658789512857430,-1.0681315327688026,-2.7771419851987957,0.5188067444876197
1658789512873428,0.03051804379333589,-2.227817196917613,0.8850232700083325
1658789512889426,0.213626306553806,-1.739528496223329,0.45777065690094787
1658789512905424,-0.15259021896690683,-1.6784924086366573,0.213626306553806
1658789512921422,-0.5798428320745188,-1.6174563210497581,0.213626306553806
1658789512937439,0.213626306553806,-1.5564202334630863,0.7019150072480898
1658789512953436,-0.09155413138023505,-1.9226367589837992,0.7019150072480898
1658789512969434,-0.09155413138023505,-2.166781109330941,0.8850232700083325
1658789512985432,-1.739528496223329,-2.288853284504512,0.9460593575952316
1658789513001430,-3.7537193865873633,-2.04470893415737,0.8239871824216607
1658789513017428,-3.875791561760934,-1.5564202334630863,0.8850232700083325
1658789513033426,-1.5564202334630863,-1.2512397955290453,0.9460593575952316
1658789513049424,0.45777065690094787,-1.0681315327688026,1.2512397955290453
1658789513065422,0.9460593575952316,-0.8850232700083325,1.6784924086366573
1658789513081420,0.33569848172737693,-0.5798428320745188,2.166781109330941
1658789513097417,-1.1291676203554744,0.15259021896690683,2.288853284504512
1658789513113415,-3.4485389486533222,0.9460593575952316,2.227817196917613
1658789513129413,-4.791332875562603,1.3122758831159445,1.6174563210497581
1658789513145411,-2.288853284504512,1.6784924086366573,2.105745021744042
1658789513161409,2.04470893415737,1.739528496223329,2.3498893720911838
1658789513177407,4.669260700389032,1.2512397955290453,2.04470893415737
1658789513193405,4.547188525215461,0.7629510948347615,1.739528496223329
1658789513209403,3.0823224231326094,-0.15259021896690683,1.4953841458761872
1658789513225401,0.213626306553806,-0.213626306553806,1.739528496223329
1658789513241398,-1.739528496223329,-0.213626306553806,1.4953841458761872
1658789513257263,-3.1433585107195086,-0.15259021896690683,1.3733119707026162
1658789513273260,-2.3498893720911838,-0.3967345693140487,1.1902037079423735
1658789513289258,-0.6408789196611906,-0.8850232700083325,0.7629510948347615
1658789513305255,1.3122758831159445,-1.3733119707026162,0.7629510948347615
1658789513321252,2.04470893415737,-1.5564202334630863,0.6408789196611906
1658789513337250,1.4953841458761872,-1.4953841458761872,0.8239871824216607
1658789513353247,-0.7019150072480898,-1.0681315327688026,0.6408789196611906
1658789513369245,-1.3733119707026162,-1.2512397955290453,0.45777065690094787
1658789513385242,-1.2512397955290453,-1.3733119707026162,0.45777065690094787
1658789513401239,-0.45777065690094787,-1.9226367589837992,0.5798428320745188
1658789513417237,0.09155413138023505,-2.288853284504512,0.2746623941404778
1658789513433234,0.03051804379333589,-2.4719615472647547,-0.15259021896690683
1658789513449232,-1.0070954451819034,-1.983672846570471,-0.5798428320745188
1658789513465229,-1.6174563210497581,-1.5564202334630863,-0.7019150072480898
1658789513481227,-1.0681315327688026,-1.4343480582895154,-0.213626306553806
1658789513497224,-0.09155413138023505,-1.6174563210497581,0.45777065690094787
1658789513513221,0.3967345693140487,-1.6174563210497581,0.8850232700083325
1658789513529219,0.213626306553806,-1.6784924086366573,0.7019150072480898
1658789513545216,-0.03051804379333589,-1.4953841458761872,0.6408789196611906
1658789513561214,-0.15259021896690683,-1.4953841458761872,0.09155413138023505
1658789513577087,-0.9460593575952316,-1.2512397955290453,0.09155413138023505
1658789513593084,-1.1291676203554744,-1.4343480582895154,0.3967345693140487
1658789513609081,-1.6174563210497581,-1.739528496223329,1.0070954451819034
1658789513625078,-2.410925459678083,-1.6784924086366573,0.8850232700083325
1658789513641075,-2.9602502479590385,-0.9460593575952316,0.33569848172737693
1658789513657072,-1.9226367589837992,-0.15259021896690683,0.09155413138023505
1658789513673069,0.09155413138023505,-0.213626306553806,0.5798428320745188
1658789513689066,2.410925459678083,-0.3967345693140487,1.6784924086366573
1658789513705062,4.242008087281647,-0.09155413138023505,1.983672846570471
1658789513721059,2.7161058976118966,0.45777065690094787,2.288853284504512
1658789513737056,0.03051804379333589,0.9460593575952316,2.288853284504512
1658789513753053,-2.3498893720911838,0.9460593575952316,2.105745021744042
1658789513769050,-1.4953841458761872,1.1291676203554744,2.3498893720911838
1658789513785047,-0.3967345693140487,0.6408789196611906,2.410925459678083
1658789513801044,0.33569848172737693,-0.15259021896690683,2.227817196917613
1658789513817041,0.03051804379333589,-0.6408789196611906,1.9226367589837992
1658789513833038,0.09155413138023505,-0.7629510948347615,1.3733119707026162
1658789513849035,0.5798428320745188,-0.33569848172737693,1.4953841458761872
1658789513865032,1.1902037079423735,-1.0070954451819034,1.1291676203554744
1658789513881029,0.09155413138023505,-2.105745021744042,0.6408789196611906
1658789513896942,-0.03051804379333589,-2.8992141603723667,0.7019150072480898
1658789513912939,0.8850232700083325,-3.1433585107195086,0.8850232700083325
1658789513928936,1.3733119707026162,-3.1433585107195086,0.7019150072480898
1658789513944933,-0.09155413138023505,-3.0212863355459376,0.15259021896690683
1658789513960929,-1.8616006713969,-3.4485389486533222,-0.3967345693140487
1658789513976926,-0.7629510948347615,-3.2654306858930795,0.2746623941404778
1658789513992923,0.3967345693140487,-3.2043945983061803,0.7019150072480898
1658789514008920,-0.09155413138023505,-3.1433585107195086,0.5188067444876197
1658789514024917,-1.8005645838102282,-2.4719615472647547,0.7019150072480898
1658789514040914,-1.6784924086366573,-1.6784924086366573,0.7019150072480898
1658789514056911,-0.5188067444876197,-1.2512397955290453,0.8239871824216607
1658789514072908,0.213626306553806,-1.1291676203554744,0.7629510948347615
1658789514088905,-0.213626306553806,-0.6408789196611906,0.9460593575952316
1658789514104902,0.213626306553806,0.3967345693140487,1.3733119707026162
1658789514120899,1.1291676203554744,0.7019150072480898,1.5564202334630863
1658789514136896,0.2746623941404778,0.213626306553806,1.2512397955290453
1658789514152893,0.45777065690094787,-0.2746623941404778,1.4343480582895154
1658789514168890,-0.6408789196611906,-0.15259021896690683,1.739528496223329
1658789514184887,-1.1902037079423735,0.2746623941404778,1.739528496223329
1658789514200883,-1.9226367589837992,1.0070954451819034,1.3733119707026162
1658789514216797,-0.7629510948347615,0.6408789196611906,0.8850232700083325
1658789514232793,0.5188067444876197,-0.3967345693140487,0.45777065690094787
1658789514248789,1.1902037079423735,-1.0681315327688026,1.0070954451819034
1658789514264786,0.7019150072480898,-0.8850232700083325,1.4343480582895154
1658789514280782,-0.3967345693140487,-0.15259021896690683,1.4953841458761872
1658789514296779,-0.7019150072480898,0.3967345693140487,1.3122758831159445
1658789514312775,-1.1291676203554744,-0.45777065690094787,0.7019150072480898
1658789514328772,0.03051804379333589,-0.8850232700083325,1.0070954451819034
1658789514344768,1.6784924086366573,-0.5798428320745188,1.6174563210497581
1658789514360765,1.4953841458761872,-0.8239871824216607,1.739528496223329
1658789514376761,-0.3967345693140487,-1.2512397955290453,1.4343480582895154
1658789514392758,-1.9226367589837992,-1.8005645838102282,0.5798428320745188
1658789514408754,-0.8239871824216607,-2.288853284504512,0.15259021896690683
1658789514424750,0.5798428320745188,-2.4719615472647547,0.33569848172737693
1658789514440747,0.8239871824216607,-2.8992141603723667,-0.213626306553806
1658789514456743,0.8850232700083325,-2.9602502479590385,-0.6408789196611906
1658789514472740,1.2512397955290453,-2.8381780727854675,-0.6408789196611906
1658789514488736,1.2512397955290453,-3.2654306858930795,-1.0070954451819034
1658789514504733,0.2746623941404778,-3.1433585107195086,-0.8850232700083325
1658789514520729,-0.6408789196611906,-2.8992141603723667,-0.45777065690094787
1658789514536621,-1.4343480582895154,-2.288853284504512,0.09155413138023505
1658789514552617,-1.8616006713969,-1.4343480582895154,0.09155413138023505
1658789514568613,-1.5564202334630863,-0.6408789196611906,0.15259021896690683
1658789514584609,-0.7629510948347615,-0.2746623941404778,0.15259021896690683
1658789514600605,0.213626306553806,-0.3967345693140487,0.8239871824216607
1658789514616601,2.04470893415737,-0.7629510948347615,1.5564202334630863
1658789514632597,1.6784924086366573,-1.1291676203554744,1.5564202334630863
1658789514648593,-0.213626306553806,-1.0681315327688026,1.1291676203554744
1658789514664589,-2.227817196917613,-1.1291676203554744,0.8239871824216607
1658789514680585,-1.983672846570471,-1.1902037079423735,0.6408789196611906
1658789514696581,-0.6408789196611906,-1.3733119707026162,0.7019150072480898
1658789514712576,0.33569848172737693,-1.8616006713969,0.33569848172737693
1658789514728572,0.8850232700083325,-2.288853284504512,0.03051804379333589
1658789514744568,1.0070954451819034,-2.227817196917613,-0.15259021896690683
1658789514760564,0.5798428320745188,-1.983672846570471,-0.7019150072480898
1658789514776560,-0.15259021896690683,-2.3498893720911838,-1.4953841458761872
1658789514792556,-0.33569848172737693,-2.5940337224383256,-1.6174563210497581
1658789514808552,0.09155413138023505,-2.4719615472647547,-1.3122758831159445
1658789514824548,-0.03051804379333589,-2.655069810025225,-1.3733119707026162
1658789514840544,1.0070954451819034,-2.227817196917613,-0.7629510948347615
1658789514856445,1.8005645838102282,-1.9226367589837992,-0.15259021896690683
1658789514872440,0.7019150072480898,-1.983672846570471,0.5798428320745188
1658789514888436,-1.1902037079423735,-1.9226367589837992,1.0070954451819034
1658789514904431,-1.8616006713969,-1.5564202334630863,1.3122758831159445
1658789514920427,-0.8850232700083325,-0.8239871824216607,1.6174563210497581
1658789514936422,0.45777065690094787,-0.7019150072480898,1.1902037079423735
1658789514952418,0.09155413138023505,-1.0070954451819034,0.2746623941404778
1658789514968413,0.5798428320745188,-1.2512397955290453,-0.09155413138023505
1658789514984409,1.3122758831159445,-1.0070954451819034,0.09155413138023505
1658789515000404,1.0681315327688026,-0.15259021896690683,0.8850232700083325
1658789515016400,-1.1291676203554744,0.03051804379333589,0.7629510948347615
1658789515032395,-2.532997634851654,-0.09155413138023505,0.3967345693140487
1658789515048391,-2.288853284504512,0.03051804379333589,0.9460593575952316
1658789515064386,-0.3967345693140487,0.09155413138023505,1.0070954451819034
1658789515080382,0.8850232700083325,-0.09155413138023505,0.8850232700083325
1658789515096377,1.739528496223329,-0.15259021896690683,0.5188067444876197
1658789515112373,1.6174563210497581,-0.45777065690094787,0.213626306553806
1658789515128368,1.1902037079423735,-0.5798428320745188,0.5798428320745188
1658789515144364,1.3122758831159445,-0.9460593575952316,0.7019150072480898
1658789515160359,0.3967345693140487,-1.4343480582895154,0.5188067444876197
1658789515176269,0.2746623941404778,-1.3733119707026162,1.0070954451819034
1658789515192265,-0.09155413138023505,-1.3122758831159445,1.0681315327688026
1658789515208260,-0.2746623941404778,-0.7019150072480898,1.3122758831159445
1658789515224256,0.7019150072480898,0.09155413138023505,1.4953841458761872
1658789515240251,1.9226367589837992,-0.03051804379333589,1.1291676203554744
1658789515256247,1.3122758831159445,-0.7019150072480898,1.2512397955290453
1658789515272242,0.8239871824216607,-1.4343480582895154,0.8850232700083325
1658789515288238,-0.6408789196611906,-1.9226367589837992,0.5798428320745188
1658789515304233,-1.3122758831159445,-1.6784924086366573,0.3967345693140487
1658789515320229,-0.8850232700083325,-1.1291676203554744,0.09155413138023505
1658789515336224,-0.213626306553806,-1.0070954451819034,-0.213626306553806
1658789515352220,0.6408789196611906,-0.8850232700083325,-0.03051804379333589
1658789515368215,3.0212863355459376,-0.7629510948347615,0.5798428320745188
1658789515384211,3.2654306858930795,-0.45777065690094787,1.5564202334630863
1658789515400206,2.532997634851654,-0.7019150072480898,1.1902037079423735
1658789515416202,-0.8239871824216607,-1.0070954451819034,0.8850232700083325
1658789515432197,-1.8616006713969,-1.0070954451819034,1.0070954451819034
1658789515448193,-1.6174563210497581,-1.1291676203554744,0.6408789196611906
1658789515464188,-1.2512397955290453,-0.9460593575952316,0.15259021896690683
1658789515480184,-0.6408789196611906,-0.9460593575952316,-0.2746623941404778
1658789515496093,0.7019150072480898,-1.0070954451819034,-0.213626306553806
1658789515512088,1.3122758831159445,-0.9460593575952316,0.7629510948347615
1658789515528083,0.3967345693140487,-1.0681315327688026,1.0681315327688026
1658789515544078,-0.8239871824216607,-0.7019150072480898,1.0070954451819034
1658789515560073,-0.9460593575952316,-0.09155413138023505,1.1902037079423735
1658789515576069,0.8239871824216607,-0.03051804379333589,1.4343480582895154
1658789515592064,1.3122758831159445,-0.2746623941404778,1.1291676203554744
1658789515608059,0.5188067444876197,-1.0070954451819034,0.45777065690094787
1658789515624054,0.03051804379333589,-1.4343480582895154,0.03051804379333589
1658789515640049,0.5188067444876197,-1.739528496223329,-0.03051804379333589
1658789515656044,0.5188067444876197,-1.4953841458761872,-0.15259021896690683
1658789515672039,-0.15259021896690683,-1.1291676203554744,-0.15259021896690683
1658789515688034,-1.1902037079423735,-0.9460593575952316,0.03051804379333589
1658789515704029,0.45777065690094787,-0.7629510948347615,0.7629510948347615
1658789515720024,1.6784924086366573,-0.9460593575952316,1.0070954451819034
1658789515736019,2.532997634851654,-1.1902037079423735,0.7629510948347615
1658789515752014,2.227817196917613,-1.2512397955290453,0.3967345693140487
1658789515768009,2.105745021744042,-1.4343480582895154,0.5188067444876197
1658789515784004,0.9460593575952316,-2.04470893415737,0.213626306553806
1658789515799999,0.15259021896690683,-2.227817196917613,-0.2746623941404778
1658789515815948,0.45777065690094787,-1.8005645838102282,-0.3967345693140487
1658789515831943,2.166781109330941,-1.2512397955290453,-0.15259021896690683
1658789515847937,2.5940337224383256,-1.1902037079423735,0.09155413138023505
1658789515863932,1.1902037079423735,-1.4953841458761872,0.45777065690094787
1658789515879926,-0.45777065690094787,-1.1902037079423735,1.0070954451819034
1658789515895921,-0.6408789196611906,-0.45777065690094787,1.2512397955290453
1658789515911915,-0.33569848172737693,-0.09155413138023505,1.1902037079423735
1658789515927910,-0.7019150072480898,-0.8239871824216607,0.3967345693140487
1658789515943905,0.2746623941404778,-1.0070954451819034,0.2746623941404778
1658789515959899,2.655069810025225,-1.0070954451819034,0.7019150072480898
1658789515975894,3.570611123826893,-1.1291676203554744,0.8850232700083325
1658789515991888,1.5564202334630863,-1.4343480582895154,0.45777065690094787
1658789516007883,0.33569848172737693,-1.4953841458761872,0.03051804379333589
1658789516023877,-0.03051804379333589,-1.3122758831159445,0.213626306553806
1658789516039872,0.33569848172737693,-1.3733119707026162,0.5798428320745188
1658789516055866,-0.5798428320745188,-1.5564202334630863,0.7019150072480898
1658789516071861,-1.983672846570471,-1.4343480582895154,0.5188067444876197
1658789516087855,-1.6174563210497581,-0.8239871824216607,0.6408789196611906
1658789516103850,0.15259021896690683,-0.2746623941404778,0.7019150072480898
1658789516119845,1.1291676203554744,0.09155413138023505,1.2512397955290453
1658789516135803,1.4953841458761872,0.03051804379333589,1.5564202334630863
1658789516151797,1.983672846570471,-0.03051804379333589,1.3122758831159445
1658789516167792,1.4953841458761872,0.5798428320745188,1.3733119707026162
1658789516183786,1.1902037079423735,0.7019150072480898,1.1291676203554744
1658789516199781,-0.7629510948347615,0.09155413138023505,1.1291676203554744
1658789516215776,-1.4953841458761872,-0.9460593575952316,0.6408789196611906
1658789516231770,-1.1902037079423735,-1.739528496223329,0.5188067444876197
1658789516247765,-0.5798428320745188,-1.6784924086366573,0.7629510948347615
1658789516263759,-0.8239871824216607,-1.5564202334630863,0.9460593575952316
1658789516279754,-0.6408789196611906,-1.1291676203554744,1.0070954451819034
1658789516295748,0.213626306553806,-1.1902037079423735,1.0070954451819034
1658789516311743,1.1902037079423735,-1.8616006713969,0.7629510948347615
1658789516327737,0.6408789196611906,-2.3498893720911838,1.0070954451819034
1658789516343732,-0.213626306553806,-2.410925459678083,1.0070954451819034
1658789516359727,-0.5798428320745188,-1.8616006713969,1.1291676203554744
1658789516375721,0.09155413138023505,-1.1902037079423735,0.8239871824216607
1658789516391716,0.8850232700083325,-0.8239871824216607,0.3967345693140487
1658789516407710,0.7019150072480898,-0.8239871824216607,0.33569848172737693
1658789516423705,-0.15259021896690683,-0.7629510948347615,0.45777065690094787
1658789516439699,-0.6408789196611906,-0.5188067444876197,1.0681315327688026
1658789516455597,-0.5188067444876197,-0.2746623941404778,1.6174563210497581
1658789516471591,-1.1902037079423735,-0.33569848172737693,1.983672846570471
1658789516487585,-1.1902037079423735,-0.7019150072480898,1.739528496223329
1658789516503579,-1.0070954451819034,-1.1291676203554744,1.5564202334630863
1658789516519573,-0.15259021896690683,-1.3122758831159445,1.6174563210497581
1658789516535567,-0.9460593575952316,-1.3122758831159445,1.5564202334630863
1658789516551561,-1.4953841458761872,-0.8850232700083325,1.3122758831159445
1658789516567555,-1.4343480582895154,-0.7019150072480898,1.1902037079423735
1658789516583549,-0.7629510948347615,-0.6408789196611906,1.4343480582895154
1658789516599543,0.09155413138023505,-0.8850232700083325,1.2512397955290453
1658789516615537,0.09155413138023505,-0.8239871824216607,1.0681315327688026
1658789516631531,0.15259021896690683,-0.8850232700083325,0.5188067444876197
1658789516647525,0.5798428320745188,-1.0070954451819034,0.45777065690094787
1658789516663519,1.2512397955290453,-1.6784924086366573,0.15259021896690683
1658789516679514,0.6408789196611906,-1.8005645838102282,0.33569848172737693
1658789516695508,-0.33569848172737693,-1.5564202334630863,0.5188067444876197
1658789516711502,-1.2512397955290453,-0.8239871824216607,0.8850232700083325
1658789516727496,-1.0681315327688026,-0.3967345693140487,1.3733119707026162
1658789516743490,-0.15259021896690683,-0.45777065690094787,1.6174563210497581
1658789516759484,0.213626306553806,-0.6408789196611906,1.5564202334630863
1658789516775421,0.7019150072480898,-0.15259021896690683,1.739528496223329
1658789516791415,1.3733119707026162,0.2746623941404778,1.9226367589837992
1658789516807409,0.5188067444876197,0.213626306553806,1.6784924086366573
1658789516823403,0.03051804379333589,0.09155413138023505,1.6174563210497581
1658789516839397,-0.8239871824216607,-0.33569848172737693,1.1902037079423735
1658789516855391,-1.8005645838102282,-0.8239871824216607,0.8850232700083325
1658789516871385,-1.0681315327688026,-0.9460593575952316,1.0070954451819034
1658789516887379,-0.7019150072480898,-0.7629510948347615,1.3733119707026162
1658789516903373,-0.5798428320745188,-0.8850232700083325,0.7019150072480898
1658789516919367,-0.2746623941404778,-0.9460593575952316,0.15259021896690683
1658789516935361,1.1902037079423735,-1.0070954451819034,-0.03051804379333589
1658789516951356,1.1902037079423735,-1.2512397955290453,0.213626306553806
1658789516967350,0.3967345693140487,-1.4953841458761872,0.33569848172737693
1658789516983344,-0.03051804379333589,-1.5564202334630863,0.5798428320745188
1658789516999338,0.5798428320745188,-1.0070954451819034,0.9460593575952316
1658789517015332,0.7629510948347615,-0.45777065690094787,1.0681315327688026
1658789517031326,-1.0070954451819034,-0.45777065690094787,0.8239871824216607
1658789517047320,0.03051804379333589,-0.3967345693140487,0.7019150072480898
1658789517063314,2.105745021744042,-0.09155413138023505,1.2512397955290453
1658789517079308,1.6174563210497581,-0.213626306553806,1.3122758831159445
1658789517095276,-1.0681315327688026,-0.213626306553806,0.9460593575952316
1658789517111270,-2.105745021744042,-0.33569848172737693,0.9460593575952316
1658789517127264,-0.7019150072480898,-0.3967345693140487,1.4343480582895154
1658789517143258,-0.213626306553806,-0.8239871824216607,1.2512397955290453
1658789517159252,-1.1291676203554744,-1.0070954451819034,0.5188067444876197
1658789517175246,-0.8239871824216607,-0.8850232700083325,0.03051804379333589
1658789517191240,0.213626306553806,-0.8239871824216607,0.213626306553806
1658789517207234,-0.15259021896690683,-1.5564202334630863,0.15259021896690683
1658789517223228,0.5798428320745188,-2.105745021744042,0.3967345693140487
1658789517239222,0.7629510948347615,-2.3498893720911838,0.6408789196611906
1658789517255216,-1.0070954451819034,-2.288853284504512,0.7019150072480898
1658789517271210,-2.3498893720911838,-1.983672846570471,0.5188067444876197
1658789517287204,-1.9226367589837992,-1.983672846570471,0.5798428320745188
1658789517303198,-0.3967345693140487,-2.288853284504512,0.8239871824216607
1658789517319193,0.2746623941404778,-2.288853284504512,0.5798428320745188
1658789517335187,0.3967345693140487,-1.8616006713969,0.6408789196611906
1658789517351181,1.0070954451819034,-1.4343480582895154,0.33569848172737693
1658789517367175,1.5564202334630863,-0.9460593575952316,0.7629510948347615
1658789517383169,1.5564202334630863,-0.8850232700083325,1.1902037079423735
1658789517399163,-0.5188067444876197,-1.1291676203554744,1.2512397955290453
1658789517415100,-1.739528496223329,-0.3967345693140487,1.5564202334630863
1658789517431093,-1.8616006713969,-0.09155413138023505,1.6784924086366573
1658789517447087,-1.5564202334630863,0.3967345693140487,1.5564202334630863
1658789517463081,-1.1902037079423735,0.5798428320745188,1.2512397955290453
1658789517479074,0.7019150072480898,0.5798428320745188,1.0070954451819034
1658789517495068,2.4719615472647547,0.15259021896690683,0.8239871824216607
1658789517511061,3.0212863355459376,-0.7019150072480898,0.8239871824216607
1658789517527055,0.2746623941404778,-1.3733119707026162,0.45777065690094787
1658789517543048,-1.0681315327688026,-1.3122758831159445,0.33569848172737693
1658789517559042,-2.227817196917613,-1.6174563210497581,0.33569848172737693
1658789517575036,-1.8616006713969,-2.04470893415737,0.03051804379333589
1658789517591029,-0.7629510948347615,-2.3498893720911838,0.03051804379333589
1658789517607023,0.8239871824216607,-2.105745021744042,0.33569848172737693
1658789517623016,2.288853284504512,-1.4343480582895154,0.45777065690094787
1658789517639010,2.532997634851654,-0.9460593575952316,0.5188067444876197
1658789517655004,0.8850232700083325,-1.1902037079423735,0.7629510948347615
1658789517670997,0.15259021896690683,-1.4953841458761872,0.9460593575952316
1658789517686991,-0.8239871824216607,-1.6174563210497581,1.2512397955290453
1658789517702984,-1.6174563210497581,-1.2512397955290453,1.4343480582895154
1658789517718978,-1.983672846570471,-0.3967345693140487,1.0070954451819034
1658789517734924,-1.2512397955290453,0.09155413138023505,1.2512397955290453
1658789517750918,0.5798428320745188,-0.09155413138023505,1.6174563210497581
1658789517766911,2.4719615472647547,-0.3967345693140487,1.983672846570471
1658789517782905,3.0212863355459376,-0.213626306553806,2.3498893720911838
1658789517798898,1.4953841458761872,0.09155413138023505,2.288853284504512
1658789517814892,-1.6784924086366573,0.15259021896690683,1.9226367589837992
1658789517830886,-2.7161058976118966,0.33569848172737693,1.8005645838102282
1658789517846879,-1.5564202334630863,0.3967345693140487,2.105745021744042
1658789517862873,0.45777065690094787,0.09155413138023505,2.4719615472647547
1658789517878866,1.8616006713969,-0.15259021896690683,2.7161058976118966
1658789517894860,1.3733119707026162,-0.213626306553806,2.7161058976118966
1658789517910853,-0.213626306553806,0.3967345693140487,2.5940337224383256
1658789517926847,-2.166781109330941,1.1902037079423735,3.0212863355459376
1658789517942841,-2.166781109330941,0.8850232700083325,2.7161058976118966
1658789517958834,-1.4343480582895154,0.33569848172737693,2.9602502479590385
1658789517974828,1.3733119707026162,-0.8239871824216607,2.4719615472647547
1658789517990821,2.8992141603723667,-1.739528496223329,1.9226367589837992
1658789518006815,1.983672846570471,-2.04470893415737,1.1902037079423735
1658789518022809,-0.33569848172737693,-2.105745021744042,0.33569848172737693
1658789518038802,-1.4343480582895154,-2.410925459678083,-0.09155413138023505
1658789518054779,-0.7019150072480898,-2.7161058976118966,-0.03051804379333589
1658789518070772,0.9460593575952316,-2.9602502479590385,0.15259021896690683
1658789518086766,2.166781109330941,-3.2043945983061803,-0.09155413138023505
1658789518102759,1.4343480582895154,-3.3875028610666504,-0.33569848172737693
1658789518118753,0.03051804379333589,-3.3875028610666504,-0.5798428320745188
1658789518134747,-1.8616006713969,-2.410925459678083,-0.7019150072480898
1658789518150740,-2.4719615472647547,-1.3122758831159445,-0.33569848172737693
1658789518166734,-0.7019150072480898,-1.1291676203554744,0.09155413138023505
1658789518182727,0.2746623941404778,-1.739528496223329,0.5798428320745188
1658789518198721,1.1291676203554744,-1.9226367589837992,1.1291676203554744
1658789518214715,0.213626306553806,-1.3733119707026162,1.0681315327688026
1658789518230708,-1.6174563210497581,-1.3122758831159445,0.45777065690094787
1658789518246702,-1.4953841458761872,-1.4953841458761872,0.15259021896690683
1658789518262695,-0.213626306553806,-2.04470893415737,0.213626306553806
1658789518278689,-1.0070954451819034,-1.6784924086366573,1.0681315327688026
1658789518294683,-1.0681315327688026,-1.3733119707026162,0.8850232700083325
1658789518310676,-1.6174563210497581,-1.1902037079423735,0.6408789196611906
1658789518326670,-0.45777065690094787,-1.0681315327688026,0.8239871824216607
1658789518342663,1.2512397955290453,-1.6174563210497581,0.213626306553806
1658789518358657,2.8381780727854675,-2.227817196917613,0.09155413138023505
1658789518374603,2.9602502479590385,-2.5940337224383256,-0.213626306553806
1658789518390596,0.213626306553806,-2.655069810025225,-0.3967345693140487
1658789518406589,-1.8616006713969,-1.8616006713969,-0.33569848172737693
1658789518422582,-2.227817196917613,-1.1291676203554744,0.09155413138023505
1658789518438575,-0.8239871824216607,-1.3122758831159445,0.33569848172737693
1658789518454568,0.45777065690094787,-1.983672846570471,0.45777065690094787
1658789518470562,1.5564202334630863,-2.04470893415737,0.5798428320745188
1658789518486555,0.2746623941404778,-1.8005645838102282,0.5188067444876197
1658789518502548,-1.4343480582895154,-1.1291676203554744,0.5188067444876197
1658789518518541,-1.3733119707026162,-0.8239871824216607,0.5188067444876197
1658789518534534,-1.0070954451819034,-0.6408789196611906,0.9460593575952316
1658789518550527,-0.09155413138023505,-0.6408789196611906,1.1291676203554744
1658789518566520,0.45777065690094787,-0.5188067444876197,1.3733119707026162
1658789518582513,1.1291676203554744,-0.7019150072480898,1.0681315327688026
1658789518598507,0.09155413138023505,-0.8850232700083325,0.2746623941404778
1658789518614500,-1.0681315327688026,-0.9460593575952316,-0.33569848172737693
1658789518630493,-0.6408789196611906,-1.3733119707026162,-0.45777065690094787
1658789518646486,1.983672846570471,-2.04470893415737,-0.213626306553806
1658789518662479,2.105745021744042,-2.655069810025225,-0.5798428320745188
1658789518678472,0.33569848172737693,-2.7771419851987957,-1.1902037079423735
1658789518694427,-1.4953841458761872,-2.3498893720911838,-1.3733119707026162
1658789518710420,-1.2512397955290453,-1.8005645838102282,-0.8850232700083325
1658789518726413,0.2746623941404778,-1.8005645838102282,-0.6408789196611906
1658789518742406,0.09155413138023505,-2.532997634851654,-0.8239871824216607
1658789518758400,0.03051804379333589,-2.7771419851987957,-0.7629510948347615
1658789518774393,-0.03051804379333589,-2.410925459678083,-0.5798428320745188
1658789518790386,-0.9460593575952316,-2.166781109330941,-1.0681315327688026
1658789518806379,-2.4719615472647547,-2.227817196917613,-1.1902037079423735
1658789518822372,-0.3967345693140487,-2.227817196917613,-1.0070954451819034
1658789518838365,2.105745021744042,-2.04470893415737,-0.7629510948347615
1658789518854358,2.105745021744042,-1.983672846570471,-0.8239871824216607
1658789518870351,0.15259021896690683,-1.8005645838102282,-0.8239871824216607
1658789518886345,-1.5564202334630863,-0.8850232700083325,-0.213626306553806
1658789518902338,-2.655069810025225,0.09155413138023505,0.5188067444876197
1658789518918331,-2.105745021744042,1.3122758831159445,1.3122758831159445
1658789518934324,-0.5798428320745188,1.739528496223329,1.5564202334630863
1658789518950317,1.4343480582895154,1.2512397955290453,1.6784924086366573
1658789518966310,3.2654306858930795,0.5188067444876197,1.4953841458761872
1658789518982303,1.983672846570471,-0.03051804379333589,1.6174563210497581
1658789518998296,-2.227817196917613,0.6408789196611906,2.7161058976118966
1658789519014251,0.45777065690094787,0.09155413138023505,5.279621576256886
1658789519030244,1.8616006713969,-2.5940337224383256,4.974441138323073
1658789519046238,6.927595941100208,-7.049668116273779,0.3967345693140487
1658789519062231,10.711833371480907,-12.787060349431613,-3.997863736934505
1658789519078224,7.537956816968062,-20.782787823300396,-9.308003356984727
1658789519094217,1.3733119707026162,-28.229190508888223,-14.007782101167322
1658789519110210,-1.739528496223329,-35.370412756542464,-18.646524757763018
1658789519126203,2.288853284504512,-43.85442893110553,-24.628061341267994
1658789519142196,7.049668116273779,-55.20714122224763,-30.36545357442583
1658789519158189,6.8665598535133086,-67.902647440299,-35.24834058136889
1658789519174183,0.15259021896690683,-80.90333409628442,-39.82604715037769
1658789519190176,-7.11070420386045,-92.19501029983962,-43.427176317998146
1658789519206169,-14.740215152208748,-101.65560387579171,-47.39452201113909
1658789519222162,-26.153963530937517,-111.17723353933025,-52.64362554360264
1658789519238155,-32.745860990310575,-120.45471885252164,-58.19790951400023
1658789519254148,-28.839551384756078,-128.0842298008697,-62.714579995422355
1658789519270141,-15.899900816357558,-134.24887464713515,-65.52224002441449
1658789519286134,1.1291676203554744,-141.32906080720227,-67.65850308995186
1658789519302127,13.275349050125897,-149.38582436865795,-70.466163118944
1658789519318121,24.689097428854666,-154.51285572594793,-71.80895704585328
1658789519334106,33.783474479285815,-155.36736095216293,-69.48958571755543
1658789519350099,30.73167009994654,-156.89326314183268,-67.65850308995186
1658789519366092,24.13977264057371,-159.3347066453041,-66.43778133821615
1658789519382085,11.383230334935433,-161.89822232394908,-66.43778133821615
1658789519398079,-4.42511635004189,-160.1892118715191,-66.62088960097662
1658789519414072,-17.48683909361398,-154.45181963836103,-64.48462653543902
1658789519430065,-23.407339589532285,-149.01960784313724,-62.28732738231474
1658789519446058,-22.67490653849086,-145.60158693827725,-60.151064316777365
1658789519462051,-22.67490653849086,-144.9912260624094,-63.63012130922402
1658789519478044,-22.8580148012511,-141.02388036926823,-65.46120393682759
1658789519494037,-16.876478217746126,-135.2864881361104,-61.00556954299236
1658789519510030,-13.45845731288614,-130.03738460364684,-58.3199816891738
1658789519526023,-10.89494163424115,-125.82589456015876,-55.63439383535524
1658789519542017,-14.679179064621849,-121.06507972838949,-55.3902494850081
1658789519558010,-18.95170519569683,-112.82520790417334,-53.803311207751676
1658789519574003,-22.61387045090396,-102.75425345235385,-45.62447547112242
1658789519589996,-26.092927443350845,-96.46753643091483,-37.2625314717327
1658789519605989,-17.36476691844041,-91.03532463569081,-31.89135576409558
1658789519621982,-5.0354772259097444,-89.32631418326082,-27.86297398336751
1658789519637975,2.04470893415737,-87.98352025635154,-24.933241779201808
1658789519653930,7.2938124666209205,-84.13824673838394,-17.059586480506596
1658789519669923,9.491111619745197,-81.69680323491252,-11.444266422522333
1658789519685917,9.124895094224485,-80.47608148317681,-11.932555123216616
1658789519701910,8.392462043183059,-80.9643701838711,-14.618142977035177
1658789519717903,-1.8616006713969,-83.64995803768966,-17.54787518120088
1658789519733896,-17.54787518120088,-85.11482413977251,-19.1348134584573
1658789519749889,-29.755092698557974,-82.55130846112752,-21.27107652399468
1658789519765882,-32.25757228961629,-75.10490577553969,-20.05035477225897
1658789519781875,-22.73594262607753,-69.06233310444804,-15.899900816357558
1658789519797868,-9.613183794918768,-68.63508049134043,-17.181658655680167
1658789519813861,3.692683299000464,-66.80399786373687,-19.9282825970854
1658789519829855,13.702601663233281,-60.70038910505832,-20.05035477225897
1658789519845848,17.853055619134693,-56.73304341191738,-21.39314869916825
1658789519861841,7.782101167315204,-49.53078507667669,-19.867246509498727
1658789519877834,-3.1433585107195086,-34.51590753032747,-10.284580758373295
1658789519893827,-6.317235065232353,-18.95170519569683,-2.105745021744042
1658789519909820,-5.401693751430457,-5.3406576638437855,0.9460593575952316
1658789519925813,-3.936827649347606,4.547188525215461,2.166781109330941
1658789519941806,-1.8616006713969,11.139085984588291,2.04470893415737
1658789519957800,-1.8005645838102282,20.23346303501944,3.5095750362402214
1658789519973724,-0.15259021896690683,33.478294041351774,5.157549401083315
1658789519989717,3.1433585107195086,48.6152437628748,8.209353780422589
1658789520005709,3.997863736934505,62.165255207140945,10.040436408026153
1658789520021702,9.185931181811156,71.13756008239898,8.392462043183059
1658789520037695,18.58548867017612,80.78126192111085,9.185931181811156
1658789520053687,31.342030975814396,90.60807202258366,10.528725108720437
1658789520069680,41.718165865567926,96.95582513160934,7.11070420386045
1658789520085672,36.65217059586462,101.83871213855218,4.119935912108076
1658789520101665,27.191577019912984,108.67475394827215,5.584802014190927
1658789520117658,19.80621042191183,113.80178530556213,3.0212863355459376
1658789520133650,5.523765926604028,117.21980621042212,0.9460593575952316
1658789520149643,-3.3875028610666504,120.82093537804212,3.4485389486533222
1658789520165636,3.2043945983061803,123.44548714427401,8.941786831464015
1658789520181628,10.284580758373295,122.89616235599306,13.092240787365427
1658789520197621,11.688410772869474,120.63782711528211,12.970168612191856
1658789520213614,4.303044174868319,120.27161058976117,13.702601663233281
1658789520229606,0.8239871824216607,122.52994583047212,16.693369954985883
1658789520245599,11.07804989700162,124.42206454566258,22.064545662623004
1658789520261592,24.26184481574728,121.49233234149688,24.07873655298681
1658789520277584,32.80689707789725,114.6562905317769,21.69832913710229
1658789520293579,23.89562829022657,109.34615091172645,16.876478217746126
1658789520309571,8.270389868009488,108.0033569848174,14.312962539101136
1658789520325564,-7.2938124666209205,108.7968261234455,15.228503852903032
1658789520341557,-16.510261692225413,109.46822308690025,15.716792553597315
1658789520357549,-15.838864728770886,106.23331044480074,16.32715342946517
1658789520373542,-23.163195239185143,100.67902647440314,15.899900816357558
1658789520389535,-25.60463874265656,98.84794384679935,20.23346303501944
1658789520405527,-21.820401312275862,98.90897993438648,26.7032883192187
1658789520421520,-12.115663385976859,99.82452124818792,29.571984435797503
1658789520437512,1.2512397955290453,99.94659342336172,30.060273136491787
1658789520453505,-3.0212863355459376,96.95582513160934,29.022659647516548
1658789520469498,-2.8381780727854675,96.28442816815459,34.45487144274034
1658789520485490,7.904173342488775,97.26100556954316,41.8402380407415
1658789520501483,11.322194247348762,97.87136644541079,41.7792019531546
1658789520517476,3.936827649347606,96.28442816815459,41.290913252460314
1658789520533468,-1.4343480582895154,92.01190203707938,43.9154650186922
1658789520549461,-3.5095750362402214,86.51865415426892,46.723125047684334
1658789520565454,-12.4208438239109,81.1474784466318,47.760738536659574
1658789520581446,-22.79697871366443,76.81391622796991,47.45555809872576
1658789520597439,-25.17738612954895,74.92179751277945,48.43213550011433
1658789520613403,-23.773556115052997,71.80895704585373,48.493171587701
1658789520629396,-23.651483939879427,67.29228656443138,45.197222858014584
1658789520645388,-16.693369954985883,63.99633783474519,42.45059891660935
1658789520661381,-8.697642481116873,62.897688258182825,41.96231021591507
1658789520677374,-7.11070420386045,62.0431830319676,42.877851529716736
1658789520693366,-1.3122758831159445,60.63935301747142,44.64789806973363
1658789520709359,-5.279621576256886,57.83169298847906,44.220645456626016
1658789520725351,-16.754406042572555,54.10849164568526,44.89204242008077
1658789520741344,-21.759365224688963,50.812542915999074,47.39452201113886
1658789520757337,-16.08300907911803,46.11276417181648,46.90623331044458
1658789520773329,-8.51453421835663,36.346990157930804,43.12199588006388
1658789520789322,-5.76791027695117,22.369726100556818,36.53009842069105
1658789520805315,-2.8381780727854675,8.758678568703772,29.938200961318216
1658789520821307,-0.9460593575952316,-3.2043945983061803,21.39314869916825
1658789520837300,-4.119935912108076,-15.045395590142562,11.322194247348762
1658789520853293,-16.26611734187827,-28.96162355992965,-0.6408789196611906
1658789520869285,-20.23346303501944,-42.084382391088866,-9.796292057679011
1658789520885278,-20.416571297779683,-53.376058594644064,-16.937514305333025
1658789520901270,-19.9893186846723,-65.09498741130687,-24.26184481574728
1658789520917263,-25.36049439230942,-77.11909666590373,-32.44068055237676
1658789520933227,-27.496757457846797,-86.94590676737607,-39.15465018692316
1658789520949220,-19.195849546043974,-93.11055161364152,-42.75577935454339
1658789520965212,-7.11070420386045,-99.5193408102541,-46.11276417181671
1658789520981205,-4.486152437628789,-108.55268177309836,-50.50736247806526
1658789520997198,-5.096513313496644,-117.2198062104219,-54.10849164568549
1658789521013190,-7.354848554207592,-121.79751277943092,-55.69542992294191
1658789521029183,-4.9134050507361735,-124.84931715877019,-55.20714122224763
1658789521045176,-5.3406576638437855,-129.54909590295256,-54.65781643396667
1658789521061168,-7.660028992141633,-136.1409933623254,-55.3292133974212
1658789521077161,-9.185931181811156,-140.77973601892108,-54.962996871900486
1658789521093154,-5.3406576638437855,-142.73289082169822,-55.024032959487386
1658789521109146,-2.166781109330941,-144.74708171206225,-56.244754711223095
1658789521125139,-8.209353780422589,-149.1416800183108,-60.45624475471118
1658789521141132,-13.275349050125897,-152.43762874799722,-64.54566262302592
1658789521157124,-15.411612115663274,-151.2169069962615,-66.01052872510877
1658789521173117,-14.312962539101136,-146.1509117265582,-66.86503395132377
1658789521189109,-18.463416495002548,-141.2069886320287,-68.26886396581972
1658789521205102,-21.69832913710229,-136.01892118715182,-65.76638437476163
1658789521221095,-14.557106889448278,-129.67116807812613,-60.33417257953761
1658789521237087,-3.1433585107195086,-121.55336842908378,-54.29159990844596
1658789521253051,6.256198977645454,-115.93804837109951,-51.66704814221407
1658789521269044,5.0354772259097444,-111.23826962691692,-49.22560463874265
1658789521285037,7.232776379034021,-104.76844434271766,-41.53505760280768
1658789521301029,7.843137254901876,-96.89478904402245,-31.952391851682478
1658789521317022,10.833905546654478,-89.69253070878153,-25.665674830243233
1658789521333015,5.401693751430457,-88.5938811322194,-23.041123064011572
1658789521349007,-12.176699473563758,-89.99771114671535,-23.89562829022657
1658789521365000,-25.726710917830133,-87.86144808117797,-21.759365224688963
1658789521380993,-32.928969253071045,-82.12405584802013,-16.754406042572555
1658789521396985,-32.50171663996343,-77.30220492866397,-13.519493400473038
1658789521412978,-24.628061341267994,-77.2411688410773,-14.007782101167322
1658789521428970,-16.32715342946517,-75.83733882658112,-16.08300907911803
1658789521444963,-4.791332875562603,-74.6776531624323,-18.89066910811016
1658789521460956,3.814755474174035,-71.62584878309303,-16.876478217746126
1658789521476948,14.80125123979542,-69.30647745479519,-12.481879911497572
1658789521492941,17.181658655680167,-69.24544136720829,-13.214312962538997
1658789521508934,15.899900816357558,-68.87922484168757,-15.411612115663274
1658789521524926,7.4158846417944915,-70.28305485618375,-17.66994735637445
1658789521540919,-3.936827649347606,-70.5271992065309,-17.66994735637445
1658789521556912,-12.176699473563758,-67.71953917753876,-17.120622568093268
1658789521572906,-16.998550392919697,-61.73800259403379,-15.10643167772946
1658789521588899,-16.815442130159454,-56.85511558709095,-12.481879911497572
1658789521604891,-15.350576028076603,-53.498130769817635,-11.07804989700162
1658789521620884,-12.054627298390187,-49.713893339436936,-9.246967269398056
1658789521636877,-4.303044174868319,-42.999923704890534,-4.119935912108076
1658789521652869,3.814755474174035,-34.82108796826128,2.105745021744042
1658789521668862,10.467689021133765,-27.313649195086555,7.965209430075447
1658789521684855,11.20012207217519,-19.9282825970854,12.176699473563758
1658789521700847,12.23773556115043,-12.542915999084471,11.810482948043045
1658789521716840,16.693369954985883,-5.279621576256886,9.491111619745197
1658789521732833,10.833905546654478,1.2512397955290453,7.843137254901876
1658789521748825,1.6784924086366573,9.246967269398056,5.645838101777599
1658789521764818,-2.166781109330941,20.904859998473967,6.561379415579495
1658789521780810,-3.1433585107195086,31.036850537880355,8.33142595559616
1658789521796803,-1.3733119707026162,37.32356755931937,9.002822919050914
1658789521812796,-1.3122758831159445,43.48821240558459,12.603952086671143
1658789521828788,3.814755474174035,50.75150682841195,16.44922560463874
1658789521844781,9.246967269398056,58.93034256504143,16.32715342946517
1658789521860774,12.176699473563758,64.48462653543947,12.909132524605184
1658789521876766,10.223544670786623,66.62088960097662,10.162508583199724
1658789521892700,10.223544670786623,69.36751354238231,9.85732814526591
1658789521908692,10.589761196307336,75.10490577553992,11.07804989700162
1658789521924684,11.322194247348762,81.63576714732608,10.650797283894008
1658789521940676,9.73525597009234,85.35896849011988,7.965209430075447
1658789521956668,6.134126802471883,87.12901503013654,7.965209430075447
1658789521972661,8.819714656290444,91.88982986190604,11.01701380941472
1658789521988653,12.848096437018285,96.28442816815459,12.23773556115043
1658789522004645,17.66994735637445,99.45830472266744,11.01701380941472
1658789522020637,14.190890363927565,101.59456778820504,9.063859006637585
1658789522036629,11.139085984588291,106.59952697032122,11.139085984588291
1658789522052621,14.557106889448278,112.76417181658644,15.716792553597315
1658789522068614,15.045395590142562,115.81597619592594,15.411612115663274
1658789522084606,14.007782101167322,116.3653009842069,11.871519035629717
1658789522100598,14.068818188753994,117.28084229800879,14.557106889448278
1658789522116590,15.045395590142562,118.31845578698403,17.914091706721592
1658789522132582,10.528725108720437,119.47814145113307,17.181658655680167
1658789522148574,6.683451590753066,121.49233234149688,15.472648203250174
1658789522164567,1.6784924086366573,122.83512626840638,16.388189517051842
1658789522180559,3.692683299000464,123.1403067063402,20.904859998473967
1658789522196551,15.533684290836845,122.16372930495163,26.886396581978943
1658789522212524,20.782787823300396,118.07431143663689,26.276035706111088
1658789522228516,17.60891126878755,115.69390402075214,25.17738612954895
1658789522244508,8.209353780422589,116.18219272144643,29.449912260623933
1658789522260501,-0.6408789196611906,115.449759670405,34.33279926756677
1658789522276493,-7.721065079728305,112.94728007934691,37.689784084840085
1658789522292485,-9.979400320439481,107.57610437170979,37.628747997253186
1658789522308477,-3.875791561760934,101.83871213855218,39.64293888761722
1658789522324469,4.180971999694748,97.93240253299791,41.7792019531546
1658789522340461,12.542915999084471,96.83375295643555,41.35194934004721
1658789522356454,17.60891126878755,95.42992294193937,38.36118104829461
1658789522372446,10.528725108720437,91.76775768673224,33.17311360341796
1658789522388438,-2.3498893720911838,89.69253070878176,31.280994888227497
1658789522404430,-6.195162890058782,90.60807202258366,35.49248493171581
1658789522420422,-7.476920729381163,91.15739681086461,37.9949645227739
1658789522436414,-3.4485389486533222,89.1432059205008,37.44563973449294
1658789522452407,-8.575570305943302,84.01617456321082,33.783474479285815
1658789522468399,-16.08300907911803,81.39162279697894,32.501716639963206
1658789522484391,-14.740215152208748,82.3682001983675,38.36118104829461
1658789522500383,-13.275349050125897,82.97856107423513,40.74158846417936
1658789522516375,-6.561379415579495,81.87991149767322,41.474021515220784
1658789522532379,-7.4158846417944915,78.46189059281323,41.718165865567926
1658789522548371,-10.467689021133765,76.14251926451516,44.098573281452445
1658789522564363,-2.8381780727854675,75.34905012588706,49.89700160219718
1658789522580355,6.9886320286868795,73.33485923552325,53.80331120775145
1658789522596347,9.002822919050914,68.32990005340662,52.58258945601574
1658789522612340,-2.655069810025225,62.28732738231474,50.75150682841195
1658789522628332,-12.359807736324,59.1134508278019,50.32425421530479
1658789522644324,-12.298771648737329,56.36682688639621,47.943846799420044
1658789522660316,-4.547188525215461,50.38529030289146,42.45059891660935
1658789522676308,-1.1291676203554744,40.1312275883115,36.77424277103819
1658789522692300,5.828946364538069,29.20576791027679,31.89135576409535
1658789522708293,10.101472495613052,20.17242694743254,28.229190508888223
1658789522724285,13.092240787365427,11.383230334935433,25.48256656748299
1658789522740277,0.45777065690094787,-0.213626306553806,20.23346303501944
1658789522756269,-10.772869459067579,-11.383230334935433,14.068818188753994
1658789522772261,-17.66994735637445,-21.820401312275862,8.697642481116873
1658789522788253,-14.862287327382319,-32.31860837720319,3.997863736934505
1658789522804246,-19.317921721217544,-45.44136720836195,-5.0354772259097444
1658789522820238,-24.383916990920852,-57.64858472571905,-14.80125123979542
1658789522836230,-23.285267414358714,-66.37674525062948,-23.102159151598244
1658789522852203,-18.70756084534969,-73.15175097276256,-30.73167009994654
1658789522868195,-21.820401312275862,-81.94094758525966,-40.37537193865887
1658789522884187,-23.529411764705856,-90.36392767223606,-48.18799114976741
1658789522900179,-21.51522087434182,-97.5051499198903,-51.5449759670405
1658789522916172,-15.045395590142562,-103.3646143282217,-53.13191424429692
1658789522932164,-9.918364232852582,-108.7968261234455,-55.75646601052881
1658789522948156,-9.796292057679011,-115.20561532005809,-58.808270389868085
1658789522964148,-12.726024261844714,-120.94300755321592,-61.55489433127332
1658789522980140,-11.566338597695903,-124.60517280842305,-62.47043564507521
1658789522996132,-8.392462043183059,-126.863508049134,-61.86007476920736
1658789523012125,-7.537956816968062,-128.9997711146716,-62.592507820248784
1658789523028117,-9.979400320439481,-133.02815289539944,-63.935301747158064
1658789523044109,-15.777828641183987,-137.17860685130086,-64.66773479819949
1658789523060101,-12.359807736324,-135.95788509956515,-62.8976882581826
1658789523076093,-8.51453421835663,-134.61509117265587,-60.57831692988475
1658789523092085,-9.85732814526591,-135.59166857404443,-61.371786068513074
1658789523108078,-3.814755474174035,-138.39932860303657,-60.39520866712451
1658789523124070,-2.7161058976118966,-140.84077210650798,-60.76142519264522
1658789523140062,-3.4485389486533222,-139.19279774166466,-61.615930418860216
1658789523156054,-6.8665598535133086,-133.51644159609373,-58.625162127107615
1658789523172027,-9.246967269398056,-130.46463721675445,-55.69542992294191
1658789523188019,-11.932555123216616,-132.84504463263897,-55.63439383535524
1658789523204012,-22.49179827573039,-133.08918898298612,-58.56412603952094
1658789523220004,-25.909819180590375,-127.22972457465471,-56.79407949950405
1658789523235996,-29.38887617303726,-117.52498664835593,-49.53078507667669
1658789523251988,-21.881437399862534,-110.0785839627681,-43.54924849317172
1658789523267980,-8.6366063935302,-108.36957351033811,-39.215686274509835
1658789523283972,-4.852368963149502,-109.6513313496605,-41.41298542763411
1658789523299965,-3.5095750362402214,-106.53849088273455,-40.98573281452673
1658789523315957,-7.721065079728305,-102.02182040131243,-36.16388189517056
1658789523331949,-6.561379415579495,-96.28442816815459,-30.4264896620125
1658789523347941,-2.04470893415737,-92.19501029983962,-26.52018005645823
1658789523363933,-7.354848554207592,-91.58464942397177,-32.19653620202962
1658789523379925,-17.60891126878755,-91.4625772487982,-37.750820172426984
1658789523395918,-22.125581750209676,-87.6783398184175,-35.492484931716035
1658789523411910,-19.9893186846723,-82.42923628595395,-32.99000534065772
1658789523427902,-17.24269474326684,-75.83733882658112,-30.30441748683893
1658789523443894,-16.876478217746126,-73.09071488517588,-32.623788815137004
1658789523459886,-16.693369954985883,-72.35828183413446,-35.187304493781994
1658789523475878,-9.002822919050914,-70.5271992065309,-32.25757228961629
1658789523491851,-0.8850232700083325,-65.8274204623483,-29.38887617303726
1658789523507844,4.058899824521177,-59.72381170366975,-28.04608224612798
1658789523523836,7.904173342488775,-52.82673380636311,-24.689097428854666
1658789523539828,8.697642481116873,-43.85442893110553,-18.097199969481835
1658789523555820,2.04470893415737,-34.88212405584818,-11.139085984588291
1658789523571812,1.6784924086366573,-26.214999618524416,-5.3406576638437855
1658789523587804,-4.9134050507361735,-18.463416495002548,-1.3733119707026162
1658789523603797,-13.885709925993751,-9.063859006637585,-0.03051804379333589
1658789523619789,-17.914091706721592,4.60822461280236,3.3875028610666504
1658789523635781,-15.960936903944457,17.42580300602731,7.904173342488775
1658789523651773,-8.026245517662346,26.947432669565842,8.819714656290444
1658789523667765,4.303044174868319,37.07942320897223,7.660028992141633
1658789523683757,17.730983443961122,47.45555809872576,8.758678568703772
1658789523699750,29.633020523384403,56.73304341191715,11.139085984588291
1658789523715742,31.342030975814396,66.49881742580328,12.23773556115043
1658789523731734,28.656443121995835,76.3866636148623,12.115663385976859
1658789523747726,16.571297779812312,85.35896849011988,14.618142977035177
1658789523763718,5.584802014190927,92.68329900053413,19.01274128328373
1658789523779710,5.645838101777599,100.25177386129553,21.759365224688963
1658789523795703,11.01701380941472,104.76844434271788,22.003509575036105
1658789523811676,19.256885633630873,110.01754787518121,22.003509575036105
1658789523827668,25.970855268177274,114.71732661936358,20.843823910887295
1658789523843660,25.05531395437538,118.92881666285211,18.58548867017612
1658789523859652,21.69832913710229,124.66620889600972,20.843823910887295
1658789523875644,22.186617837796575,130.40360112916778,24.689097428854666
1658789523891636,15.594720378423744,134.859235523003,23.89562829022657
1658789523907629,5.3406576638437855,136.81239032578014,21.210040436408008
1658789523923621,1.2512397955290453,138.5824368657968,27.069504844739413
1658789523939613,3.997863736934505,139.62005035477205,34.821087968261054
1658789523955605,5.0354772259097444,137.60585946440824,35.91973754482319
1658789523971597,-3.2654306858930795,134.98130769817635,35.37041275654224
1658789523987589,-7.904173342488775,134.24887464713493,38.23910887312104
1658789524003582,-3.997863736934505,133.69954985885397,41.35194934004721
1658789524019574,7.354848554207592,133.6385137712673,43.54924849317149
1658789524035566,18.341344319828977,130.76981765468827,38.727397573815324
1658789524051558,9.491111619745197,127.41283283741495,32.501716639963206
1658789524067550,5.157549401083315,126.37521934843971,36.346990157930804
1658789524083542,13.946746013580423,125.70382238498496,44.83100633249387
1658789524099535,10.589761196307336,120.57679102769498,43.24406805523745
1658789524115527,-3.1433585107195086,115.99908445868641,40.61951628900579
1658789524131500,-12.481879911497572,114.29007400625642,47.15037766079172
1658789524147492,-13.519493400473038,111.17723353933025,55.08506904707383
1658789524163484,-7.17174029144735,106.6605630579079,57.70962081330572
1658789524179476,1.0681315327688026,102.38803692683314,58.9913786526281
1658789524195469,3.2043945983061803,98.60379949645221,58.503089951933816
1658789524211461,8.941786831464015,96.10131990539412,62.47043564507476
1658789524227453,13.519493400473038,91.82879377431937,62.77561608300948
1658789524243445,10.833905546654478,87.49523155565748,58.74723430228096
1658789524259437,3.3875028610666504,82.30716411078083,56.67200732433048
1658789524275429,-15.472648203250174,78.70603494316038,56.12268253604907
1658789524291422,-28.351262684061794,76.08148317692849,58.13687342641333
1658789524307414,-29.14473182269012,74.00625619897801,60.51728084229762
1658789524323406,-20.17242694743254,69.7337300679028,57.95376516365286
1658789524339398,-15.228503852903032,63.32494087129044,53.62020294499098
1658789524355390,-8.45349813076973,56.48889906157001,52.3384451056686
1658789524371382,-1.9226367589837992,51.483939879453374,52.948805981536225
1658789524387375,6.134126802471883,48.73731593804814,53.00984206912335
1658789524403367,7.049668116273779,43.18303196765078,50.99565117875909
1658789524419359,-1.4953841458761872,34.39383535515367,46.90623331044458
1658789524435351,-5.95101853971164,25.665674830243233,44.52582589456006
1658789524451324,-4.303044174868319,17.059586480506596,40.86366063935293
1658789524467316,-2.227817196917613,6.317235065232353,35.61455710688938
1658789524483308,-10.406652933546866,-6.9886320286868795,26.031891355763946
1658789524499301,-16.632333867398984,-18.036163881895163,16.08300907911803
1658789524515293,-11.322194247348762,-27.496757457846797,6.9886320286868795
1658789524531285,-3.2654306858930795,-39.03257801174959,-2.9602502479590385
1658789524547277,-8.087281605249018,-52.3994811932555,-14.92332341496899
1658789524563269,-17.914091706721592,-63.50804913405045,-24.200808728160382
1658789524579261,-26.214999618524416,-71.19859616998542,-29.38887617303726
1658789524595254,-29.633020523384403,-76.87495231555658,-34.94316014343485
1658789524611246,-34.63797970550104,-83.83306630045013,-41.1078049897003
1658789524627238,-35.614557106889606,-92.3781185626001,-47.211413748378845
1658789524643230,-33.41725795376533,-99.580376897841,-50.44632639047836
1658789524659222,-28.534370946822264,-104.52429999237052,-54.41367208361953
1658789524675214,-23.224231326771815,-107.27092393377598,-57.282368200198334
1658789524691207,-20.17242694743254,-110.44480048828882,-58.808270389868085
1658789524707199,-16.32715342946517,-114.6562905317769,-59.29655909056237
1658789524723191,-17.914091706721592,-118.92881666285189,-59.1744869153888
1658789524739183,-13.45845731288614,-118.62363622491807,-56.183718623636196
1658789524755175,-7.904173342488775,-119.05088883802546,-52.033264667734784
1658789524771179,-9.613183794918768,-124.11688410772877,-52.155336842908355
1658789524787171,-18.036163881895163,-130.2204928664073,-54.04745555809882
1658789524803163,-24.26184481574728,-130.83085374227517,-54.35263599603263
1658789524819155,-29.449912260623933,-128.9997711146716,-54.596780346379774
1658789524835147,-32.745860990310575,-128.0842298008697,-57.34340428778523
1658789524851140,-29.755092698557974,-130.52567330434113,-59.967956054016895
1658789524867132,-27.252613107499656,-134.4930189974823,-63.56908522163735
1658789524883124,-23.83459220263967,-135.40856031128396,-65.94949263752187
1658789524899116,-13.58052948805971,-131.25810635538255,-64.30151827267878
1658789524915108,-9.002822919050914,-126.31418326085304,-64.1794460975052
1658789524931100,-6.012054627298312,-124.36102845807591,-66.25467307545591
1658789524947093,-3.0823224231326094,-125.2155336842909,-64.91187914854663
1658789524963085,-9.918364232852582,-123.38445105668734,-61.371786068513074
1658789524979077,-17.54787518120088,-117.6470588235295,-53.681239032578105
1658789524995069,-18.524452582589447,-108.43060959792479,-40.13122758831173
1658789525011061,-11.566338597695903,-104.46326390478384,-34.82108796826128
1658789525027053,-5.2185854886702145,-104.03601129167623,-35.67559319447628
1658789525043046,-2.532997634851654,-103.60875867856885,-35.67559319447628
1658789525059038,-5.523765926604028,-100.49591821164267,-32.50171663996343
1658789525075030,-9.369039444571627,-95.30785076676602,-27.92401007095441
1658789525091003,-10.223544670786623,-90.48599984740963,-23.651483939879427
1658789525106995,-13.214312962538997,-88.28870069428535,-24.750133516441565
1658789525122986,-25.42153047989609,-86.8848706797894,-30.36545357442583
1658789525138978,-35.85870145723675,-85.23689631494608,-33.5393301289389
1658789525154970,-33.5393301289389,-79.86572060730896,-27.61882963302037
1658789525170961,-23.529411764705856,-74.43350881208517,-24.383916990920852
1658789525186953,-18.89066910811016,-71.44274052033256,-26.031891355763946
1658789525202945,-8.758678568703772,-67.23125047684448,-26.6422522316318
1658789525218937,5.3406576638437855,-64.24048218509188,-25.116350041962278
1658789525234928,17.975127794308264,-61.493858243686645,-25.60463874265656
1658789525250920,24.811169604028237,-56.48889906157024,-24.994277866788707
1658789525266912,14.435034714274707,-50.32425421530479,-22.919050888838
1658789525282903,0.9460593575952316,-40.86366063935316,-19.684138246738257
1658789525298895,-2.288853284504512,-29.51094834821083,-10.284580758373295
1658789525314887,-2.7771419851987957,-19.80621042191183,-0.15259021896690683
1658789525330878,2.7161058976118966,-15.10643167772946,1.3122758831159445
1658789525346870,8.148317692835917,-8.270389868009488,-1.4953841458761872
1658789525362862,11.139085984588291,1.6784924086366573,-1.8616006713969
1658789525378853,9.002822919050914,12.115663385976859,-2.166781109330941
1658789525394845,3.3875028610666504,23.224231326771815,0.6408789196611906
1658789525410827,-0.5188067444876197,36.10284580758366,5.0354772259097444
1658789525426819,0.8850232700083325,46.90623331044458,7.232776379034021
1658789525442811,1.1291676203554744,54.352635996032404,7.4158846417944915
1658789525458802,2.9602502479590385,60.21210040436381,9.796292057679011
1658789525474794,7.904173342488775,68.8181887541009,14.862287327382319
1658789525490786,11.383230334935433,78.46189059281323,17.975127794308264
1658789525506777,10.955977721828049,86.0914015411613,16.44922560463874
1658789525522769,9.73525597009234,90.91325246051747,13.45845731288614
1658789525538761,12.359807736324,95.24681467917935,16.02197299153113
1658789525554752,14.618142977035177,98.97001602197315,19.562066071564686
1658789525570744,13.336385137712568,103.91393911650266,21.14900434882111
1658789525586736,11.688410772869474,109.65133134966072,21.759365224688963
1658789525602728,12.542915999084471,112.15381094071881,25.48256656748299
1658789525618719,16.937514305333025,113.55764095521499,28.656443121995835
1658789525634711,17.303730830853738,113.4355687800412,28.96162355992965
1658789525650703,13.702601663233281,112.94728007934691,29.32784008545036
1658789525666694,11.627374685282575,113.31349660486785,32.01342793926892
1658789525682686,6.378271152819025,113.61867704280166,29.571984435797503
1658789525698678,-2.7161058976118966,115.449759670405,26.947432669565842
1658789525714669,-8.33142595559616,114.96147096971072,26.886396581978943
1658789525730682,-6.439307240405924,113.06935225452071,32.99000534065749
1658789525746674,0.8850232700083325,111.17723353933025,36.469062333104375
1658789525762666,9.491111619745197,111.7265583276112,37.506675822079615
1658789525778658,5.645838101777599,110.62790875104929,34.51590753032724
1658789525794651,3.1433585107195086,111.90966659037167,36.04180971999676
1658789525810643,11.261158159761862,112.27588311589216,40.1312275883115
1658789525826635,20.721751735713724,110.99412527656978,41.718165865567926
1658789525842627,25.116350041962278,107.51506828412312,37.9949645227739
1658789525858619,13.397421225299468,104.40222781719694,35.91973754482319
1658789525874611,-2.655069810025225,102.99839780270077,38.17807278553437
1658789525890604,-8.758678568703772,103.30357824063503,43.36614023041102
1658789525906596,-9.979400320439481,102.51010910200648,43.976501106278874
1658789525922588,-10.650797283894008,99.45830472266744,39.39879453727008
1658789525938580,-10.833905546654478,97.32204165712983,40.070191500724604
1658789525954572,-1.5564202334630863,96.83375295643555,46.723125047684334
1658789525970564,14.98435950255589,97.26100556954316,52.094300755321456
1658789525986557,27.496757457846797,95.7961394674603,51.667048142213844
1658789526002549,27.74090180819394,91.27946898603795,47.45555809872576
1658789526018541,9.918364232852582,87.19005111772367,46.35690852216362
1658789526034533,-4.60822461280236,87.12901503013654,49.89700160219718
1658789526050506,-5.096513313496644,89.8146028839551,57.64858472571905
1658789526066498,-2.7771419851987957,88.96009765774033,56.36682688639621
1658789526082490,-1.4343480582895154,84.56549935149178,50.38529030289146
1658789526098481,-1.983672846570471,79.49950408178847,47.21141374837862
1658789526114473,6.561379415579495,77.85152971694515,48.67627985046147
1658789526130465,13.824673838406852,77.60738536659801,49.71389333943671
1658789526146456,15.472648203250174,77.60738536659801,46.47898069733719
1658789526162448,11.993591210803288,73.64003967345707,42.938887617303635
1658789526178440,-4.669260700389032,66.86503395132377,41.596093690394355
1658789526194431,-10.406652933546866,61.67696650644666,43.30510414282435
1658789526210423,-8.026245517662346,59.23552300297524,47.45555809872576
1658789526226415,-5.0354772259097444,54.352635996032404,47.02830548561815
1658789526242406,-9.55214770733187,45.502403295948625,43.61028458075816
1658789526258398,-14.618142977035177,35.18730449378177,39.032578011749365
1658789526274390,-5.401693751430457,27.98504615854108,37.44563973449294
1658789526290382,6.195162890058782,19.745174334325156,32.74586099031035
1658789526306373,8.819714656290444,7.782101167315204,27.069504844739413
1658789526322365,6.073090714885211,-5.096513313496644,19.256885633630873
1658789526338357,8.45349813076973,-17.60891126878755,12.970168612191856
1658789526354348,8.575570305943302,-31.036850537880355,5.0354772259097444
1658789526370330,-2.8992141603723667,-45.19722285801481,-5.645838101777599
1658789526386322,-17.54787518120088,-58.3199816891738,-17.120622568093268
1658789526402314,-28.656443121995835,-68.20782787823305,-27.008468757152514
1658789526418305,-30.36545357442583,-76.3866636148623,-34.3938353551539
1658789526434297,-29.38887617303726,-86.33554589150822,-42.81681544213029
1658789526450289,-23.95666437781324,-96.6506446936753,-49.53078507667669
1658789526466281,-17.54787518120088,-105.31776913099884,-55.08506904707406
1658789526482272,-10.650797283894008,-109.83443961242097,-56.91615167467762
1658789526498264,-6.195162890058782,-113.61867704280166,-58.38101777676047
1658789526514256,-10.711833371480907,-119.84435797665378,-61.249713893339504
1658789526530247,-11.444266422522333,-128.9997711146716,-61.55489433127332
1658789526546239,-12.359807736324,-137.66689555199514,-62.77561608300903
1658789526562231,-7.2938124666209205,-141.69527733272298,-62.34836346990164
1658789526578222,-9.002822919050914,-143.16014343480583,-62.714579995422355
1658789526594214,-15.716792553597315,-145.3574425879301,-66.86503395132377
1658789526610206,-17.48683909361398,-149.01960784313724,-68.02471961547258
1658789526626197,-19.1348134584573,-153.47524223697246,-68.39093614099329
1658789526642189,-25.543602655069662,-155.8556496528572,-69.42854962996876
1658789526658181,-28.96162355992965,-150.24032959487295,-67.902647440299
1658789526674173,-24.01770046540014,-143.40428778515297,-65.46120393682759
1658789526690155,-15.411612115663274,-142.3666742961775,-65.40016784924092
1658789526706146,-17.79201953154802,-145.90676737621106,-70.58823529411757
1658789526722138,-24.26184481574728,-143.7705043106737,-70.71030746929114
1658789526738130,-29.816128786144645,-133.2112611581597,-63.996337834744736
1658789526754121,-24.26184481574728,-118.98985275043879,-52.52155336842907
1658789526770113,-10.101472495613052,-113.4355687800412,-45.62447547112242
1658789526786105,-6.012054627298312,-118.5015640497445,-49.22560463874265
1658789526802096,-12.481879911497572,-122.46890974288544,-51.91119249256121
1658789526818088,-15.655756466010416,-116.48737315938047,-44.342717631799815
1658789526834080,-18.58548867017612,-107.45403219653622,-33.66140230411247
1658789526850072,-17.853055619134693,-101.65560387579171,-26.214999618524416
1658789526866063,-21.881437399862534,-103.24254215304813,-28.656443121995835
1658789526882055,-31.464103150988194,-104.82948043030456,-36.4690623331046
1658789526898047,-34.088654917219856,-101.53353170061814,-35.73662928206318
1658789526914038,-29.022659647516548,-97.07789730678269,-30.792706187533213
1658789526930030,-22.8580148012511,-93.78194857709627,-31.464103150988194
1658789526946022,-14.312962539101136,-89.8146028839551,-33.844510566872714
1658789526962013,-6.256198977645454,-87.92248416876464,-33.966582742046285
1658789526978005,-7.598992904554734,-89.02113374532678,-38.36118104829484
1658789526993997,-5.401693751430457,-85.48104066529322,-36.591134508278174
1658789527009979,2.166781109330941,-77.97360189211872,-27.557793545433697
1658789527025971,6.561379415579495,-72.78553444724184,-25.23842221713585
1658789527041962,2.3498893720911838,-68.51300831616686,-25.726710917830133
1658789527057954,-4.547188525215461,-64.9729152361333,-23.041123064011572
1658789527073946,-5.3406576638437855,-59.1744869153888,-17.54787518120088
1658789527089937,-5.157549401083315,-51.6060120546274,-11.139085984588291
1658789527105929,-6.8665598535133086,-43.427176317998146,-7.049668116273779
1658789527121921,-8.941786831464015,-36.835278858625315,-5.2185854886702145
1658789527137912,-10.284580758373295,-29.14473182269012,-3.692683299000464
1658789527153904,-8.819714656290444,-21.69832913710229,-1.4343480582895154
1658789527169896,-0.7629510948347615,-14.679179064621849,-0.6408789196611906
1658789527185887,1.9226367589837992,-7.11070420386045,-1.0681315327688026
1658789527201879,6.500343327992596,3.2043945983061803,-0.7019150072480898
1658789527217871,9.796292057679011,15.716792553597315,0.9460593575952316
1658789527233863,16.02197299153113,26.276035706111088,1.9226367589837992
1658789527249854,20.17242694743254,34.33279926756677,2.655069810025225
1658789527265846,23.102159151598244,41.35194934004721,5.462729839017356
1658789527281838,22.308690012970146,49.95803768978385,6.927595941100208
1658789527297829,19.501029983978015,59.05241474021477,8.087281605249018
1658789527313821,11.505302510109004,67.78057526512566,8.148317692835917
1658789527329803,2.9602502479590385,73.33485923552325,7.721065079728305
1658789527345795,-0.45777065690094787,80.04882887006943,9.918364232852582
1658789527361786,2.166781109330941,86.94590676737653,14.496070801861606
1658789527377778,8.697642481116873,93.23262378881509,15.045395590142562
1658789527393770,15.228503852903032,98.54276340886554,11.749446860456146
1658789527409762,20.23346303501944,103.54772259098218,11.01701380941472
1658789527425753,20.477607385366582,108.06439307240407,12.542915999084471
1658789527441745,21.637293049515392,114.7783627069507,14.190890363927565
1658789527457737,20.599679560540153,120.75989929045545,15.350576028076603
1658789527473728,19.256885633630873,125.09346150911733,15.289539940489703
1658789527489720,13.275349050125897,128.2063019760435,16.02197299153113
1658789527505712,9.796292057679011,131.38017853055635,18.524452582589447
1658789527521703,8.575570305943302,134.5540550850692,22.49179827573039
1658789527537695,11.566338597695903,137.85000381475538,25.665674830243233
1658789527553687,17.60891126878755,140.16937514305346,24.26184481574728
1658789527569678,10.711833371480907,141.69527733272298,20.721751735713724
1658789527585670,5.2185854886702145,144.62500953688868,24.26184481574728
1658789527601662,13.58052948805971,147.18852521553345,35.37041275654224
1658789527617653,22.369726100556818,147.981994354162,40.375371938658645
1658789527633645,19.317921721217544,145.29640650034344,34.88212405584795
1658789527649627,6.805523765926637,141.93942168307012,32.01342793926892
1658789527665619,4.486152437628789,138.1551842526892,35.30937666895534
1658789527681611,5.523765926604028,136.38513771267253,39.09361409933604
1658789527697602,0.8850232700083325,135.10337987335015,39.39879453727008
1658789527713594,-8.209353780422589,133.88265812161444,39.45983062485675
1658789527729586,-12.909132524605184,129.9153124284735,44.58686198214673
1658789527745577,-4.364080262455218,123.68963149462115,49.10353246356908
1658789527761569,-1.1291676203554744,116.97566186007498,49.53078507667624
1658789527777561,-3.0212863355459376,111.7265583276112,47.15037766079172
1658789527793553,-3.1433585107195086,108.61371786068503,50.32425421530479
1658789527809544,-4.9134050507361735,105.13466086823837,55.573357747768114
1658789527825536,-2.7161058976118966,103.54772259098218,58.01480125123953
1658789527841528,3.3875028610666504,101.41145952544457,58.197909514
1658789527857519,-3.814755474174035,96.77271686884887,53.86434729533812
1658789527873511,-15.411612115663274,92.80537117570793,50.14114595254432
1658789527889503,-17.059586480506596,89.69253070878176,51.911192492560986
1658789527905494,-10.711833371480907,89.9366750591289,55.817502098115256
1658789527921486,-0.7019150072480898,89.9366750591289,55.02403295948716
1658789527937478,0.6408789196611906,87.67833981841795,51.056687266346216
1658789527953469,-5.096513313496644,84.26031891355797,51.11772335393289
1658789527969482,-3.0212863355459376,83.52788586251654,54.84092469672669
1658789527985474,3.3264667734797513,85.11482413977274,56.91615167467762
1658789528001465,5.523765926604028,81.63576714732608,55.817502098115256
1658789528017457,-3.3875028610666504,71.62584878309326,54.65781643396622
1658789528033449,-15.411612115663274,60.51728084229762,50.263218127717664
1658789528049440,-18.036163881895163,50.38529030289146,47.882810711833145
1658789528065432,-19.073777370870403,39.52086671244365,43.976501106278874
1658789528081424,-26.886396581978943,27.92401007095441,36.65217059586462
1658789528097416,-32.745860990310575,15.655756466010416,30.670634012359642
1658789528113407,-22.919050888838,3.875791561760934,26.031891355763946
1658789528129399,0.45777065690094787,-9.430075532158298,20.904859998473967
1658789528145391,15.10643167772946,-25.60463874265656,14.679179064621849
1658789528161382,15.899900816357558,-40.98573281452673,5.95101853971164
1658789528177374,9.246967269398056,-52.52155336842907,-1.9226367589837992
1658789528193366,-2.9602502479590385,-61.92111085679403,-11.07804989700162
1658789528209357,-25.48256656748299,-73.09071488517588,-23.590447852292527
1658789528225349,-42.02334630350197,-85.78622110322726,-34.69901579308771
1658789528241341,-44.647898069733856,-96.77271686884887,-41.0467689021134
1658789528257332,-35.00419623102175,-103.60875867856885,-45.746547646295994
1658789528273324,-22.125581750209676,-109.6513313496605,-50.6904707408255
1658789528289306,-11.505302510109004,-117.52498664835593,-57.22133211261166
1658789528305298,-2.105745021744042,-126.0700389105059,-60.39520866712451
1658789528321290,3.3875028610666504,-132.7840085450523,-60.21210040436404
1658789528337281,5.157549401083315,-137.3617151140611,-58.19790951400023
1658789528353273,-3.7537193865873633,-141.63424124513608,-58.07583733882666
1658789528369265,-14.129854276340893,-145.17433432516964,-58.56412603952094
1658789528385256,-18.402380407415876,-147.9209582665751,-57.22133211261166
1658789528401248,-15.960936903944457,-150.11825741969938,-57.77065690089262
1658789528417240,-20.599679560540153,-153.10902571145175,-58.808270389868085
1658789528433231,-16.693369954985883,-154.87907225146864,-55.63439383535524
1658789528449223,-16.937514305333025,-157.6256961928741,-56.244754711223095
1658789528465215,-19.745174334325156,-158.96849011978338,-58.930342565041656
1658789528481207,-20.35553521019301,-158.29709315632886,-60.33417257953761
1658789528497198,-25.60463874265656,-157.80880445563457,-63.38597695887688
1658789528513190,-37.3235675593196,-157.86984054322124,-68.51300831616686
1658789528529182,-50.20218204013122,-153.53627832455936,-71.86999313344018
1658789528545173,-48.06591897459384,-145.05226214999607,-67.65850308995186
1658789528561165,-37.14045929655913,-138.03311207751585,-64.30151827267878
1658789528577157,-19.684138246738257,-133.9436942092011,-64.05737392233164
1658789528593148,-14.92332341496899,-132.60090028229183,-65.64431219958806
1658789528609100,-12.054627298390187,-128.38941023880375,-64.9729152361333
1658789528625092,-3.997863736934505,-118.62363622491807,-54.901960784313815
1658789528641083,7.11070420386045,-108.67475394827193,-45.25825894560171
1658789528657075,17.730983443961122,-100.92317082475029,-38.97154192416269
1658789528673067,16.510261692225413,-101.04524299992386,-38.97154192416269
1658789528689058,1.8005645838102282,-104.76844434271766,-45.13618677042814
1658789528705050,-15.716792553597315,-102.02182040131243,-41.59609369039458
1658789528721042,-28.16815442130155,-92.62226291294724,-35.370412756542464
1658789528737033,-42.87785152971696,-84.68757152666512,-32.25757228961629
1658789528753025,-49.16456855115598,-80.170901045243,-34.69901579308771
1658789528769017,-38.48325322346841,-77.97360189211872,-34.3938353551539
1658789528785009,-26.337071793697987,-77.91256580453182,-32.25757228961629
1658789528801000,-3.936827649347606,-75.41008621347373,-29.999237048905115
1658789528816992,4.852368963149502,-72.17517357137399,-28.290226596475122
1658789528832984,1.1291676203554744,-69.611657892729,-28.04608224612798
1658789528848975,-1.0070954451819034,-64.85084306095973,-25.29945830472252
1658789528864967,1.6784924086366573,-58.625162127107615,-17.059586480506596
1658789528880959,3.875791561760934,-56.00061036087595,-14.435034714274707
1658789528896950,6.378271152819025,-54.35263599603263,-15.594720378423744
1658789528912942,4.486152437628789,-51.97222858014811,-16.388189517051842
1658789528928955,-2.288853284504512,-46.17380025940338,-15.045395590142562
1658789528944946,-8.392462043183059,-37.44563973449317,-11.566338597695903
1658789528960938,-14.435034714274707,-28.412298771648693,-6.9886320286868795
1658789528976930,-17.975127794308264,-21.45418478675515,-3.2043945983061803
1658789528992921,-16.08300907911803,-13.76363775082018,-0.09155413138023505
1658789529008913,-10.955977721828049,-8.209353780422589,1.9226367589837992
1658789529024905,-0.8239871824216607,-1.2512397955290453,3.1433585107195086
1658789529040897,7.354848554207592,6.378271152819025,4.364080262455218
1658789529056888,11.444266422522333,15.045395590142562,3.2654306858930795
1658789529072880,14.007782101167322,24.322880903333953,1.6174563210497581
1658789529088872,15.899900816357558,34.39383535515367,2.410925459678083
1658789529104863,14.740215152208748,41.90127412832817,4.242008087281647
1658789529120855,12.542915999084471,48.55420767528767,7.232776379034021
1658789529136847,10.772869459067579,55.390249485007644,10.528725108720437
1658789529152838,7.4158846417944915,62.28732738231474,13.275349050125897
1658789529168830,4.42511635004189,68.45197222858042,14.740215152208748
1658789529184822,2.7771419851987957,73.21278706034946,14.92332341496899
1658789529200813,5.2185854886702145,77.85152971694515,17.120622568093268
1658789529216805,9.430075532158298,83.34477759975607,18.82963302052326
1658789529232797,16.08300907911803,90.11978332188937,19.439993896391115
1658789529248779,17.059586480506596,95.00267032883221,19.317921721217544
1658789529264771,16.754406042572555,99.45830472266744,20.05035477225897
1658789529280762,13.885709925993751,103.66979476615552,23.102159151598244
1658789529296754,12.359807736324,108.61371786068503,29.022659647516548
1658789529312746,15.289539940489703,112.58106355382643,33.53933012893867
1658789529328737,14.435034714274707,113.61867704280166,33.722438391698915
1658789529344729,9.85732814526591,113.92385748073548,32.19653620202939
1658789529360721,9.918364232852582,116.4873731593807,32.80689707789725
1658789529376712,14.435034714274707,119.35606927595927,34.943160143434625
1658789529392704,10.223544670786623,119.47814145113307,35.49248493171581
1658789529408696,8.026245517662346,120.94300755321592,36.83527885862509
1658789529424687,12.664988174258042,122.95719844357973,38.849469748988895
1658789529440679,14.740215152208748,122.59098191805924,38.78843366140222
1658789529456671,8.087281605249018,120.45471885252164,36.10284580758366
1658789529472663,9.73525597009234,118.68467231250497,41.10780498970007
1658789529488654,9.85732814526591,115.08354314488452,43.48821240558459
1658789529504646,5.3406576638437855,114.29007400625642,42.14541847867531
1658789529520638,3.0823224231326094,114.53421835660356,43.12199588006388
1658789529536629,4.974441138323073,111.36034180209072,45.25825894560148
1658789529552621,11.261158159761862,105.74502174410645,45.441367208361726
1658789529568603,13.702601663233281,99.82452124818792,42.14541847867531
1658789529584595,2.288853284504512,95.91821164263365,35.73662928206295
1658789529600587,-15.472648203250174,95.91821164263365,34.02761882963296
1658789529616578,-17.24269474326684,96.7116807812622,41.8402380407415
1658789529632570,-3.814755474174035,95.61303120469984,47.27244983596529
1658789529648562,7.4158846417944915,90.66910811017033,44.7699702449072
1658789529664553,5.157549401083315,85.23689631494653,42.816815442130064
1658789529680545,4.730296787975931,84.19928282597084,46.662088960097435
1658789529696537,10.650797283894008,86.15243762874798,54.535744258792874
1658789529712528,17.914091706721592,86.94590676737653,58.258945601586674
1658789529728520,22.064545662623004,85.96932936598796,55.817502098115256
1658789529744512,13.275349050125897,81.08644235904512,54.23056382085906
1658789529760503,-2.166781109330941,78.88914320592085,54.90196078431336
1658789529776495,-1.5564202334630863,80.29297322041657,64.11841000991853
1658789529792487,12.054627298390187,79.49950408178847,68.32990005340662
1658789529808478,17.914091706721592,75.83733882658134,63.20286869611664
1658789529824470,14.496070801861606,70.09994659342374,58.38101777676047
1658789529840462,8.026245517662346,65.0949874113071,54.23056382085906
1658789529856454,3.1433585107195086,63.32494087129044,52.70466163118908
1658789529872445,1.8005645838102282,61.24971389333905,51.483939879453374
1658789529888427,-1.5564202334630863,55.87853818570193,48.004882887006715
1658789529904419,-6.195162890058782,49.2866407263291,45.5634393835353
1658789529920411,-6.805523765926637,45.13618677042791,45.01411459525434
1658789529936402,-2.227817196917613,43.79339284351863,46.723125047684334
1658789529952394,-1.5564202334630863,40.55848020141889,47.638666361486
1658789529968386,2.105745021744042,35.065232318608196,47.33348592355219
1658789529984377,10.955977721828049,29.14473182269012,47.15037766079172
1658789530000369,22.003509575036105,24.07873655298681,42.26749065384888
1658789530016361,22.003509575036105,15.899900816357558,34.51590753032724
1658789530032353,12.359807736324,7.4158846417944915,25.726710917830133
1658789530048344,2.7771419851987957,1.9226367589837992,19.9282825970854
1658789530064336,-1.6174563210497581,-1.9226367589837992,14.92332341496899
1658789530080328,-7.965209430075447,-8.45349813076973,7.537956816968062
1658789530096319,-15.594720378423744,-17.79201953154802,0.5188067444876197
1658789530112311,-18.402380407415876,-25.23842221713585,-4.242008087281647
1658789530128303,-13.153276874952326,-30.4264896620125,-6.927595941100208
1658789530144294,-8.758678568703772,-35.85870145723675,-11.505302510109004
1658789530160286,-5.76791027695117,-41.840238040741724,-17.42580300602731
1658789530176278,-7.660028992141633,-48.371099412527656,-23.224231326771815
1658789530192269,-8.33142595559616,-53.803311207751676,-27.80193789578084
1658789530208252,-9.796292057679011,-59.1744869153888,-32.19653620202962
1658789530224243,-12.787060349431613,-65.21705958648045,-36.4690623331046
1658789530240235,-15.960936903944457,-71.25963225757232,-40.92469672693983
1658789530256227,-17.120622568093268,-76.3256275272754,-43.91546501869243
1658789530272218,-17.975127794308264,-80.41504539559014,-47.8217746242467
1658789530288210,-21.27107652399468,-82.97856107423513,-52.033264667734784
1658789530304202,-25.787747005416804,-85.54207675288012,-54.840924696726915
1658789530320193,-23.163195239185143,-88.77698939497964,-54.901960784313815
1658789530336185,-18.097199969481835,-93.11055161364152,-54.41367208361953
1658789530352177,-11.383230334935433,-96.5896086060884,-53.681239032578105
1658789530368168,-11.20012207217519,-100.55695429922957,-53.31502250705739
1658789530384160,-19.501029983978015,-104.58533607995741,-54.4747081712062
1658789530400152,-27.61882963302037,-106.05020218204027,-54.04745555809882
1658789530416144,-24.444953078507524,-103.85290302891599,-52.460517280842396
1658789530432135,-22.61387045090396,-105.9281300068667,-53.376058594644064
1658789530448127,-23.041123064011572,-112.70313572899977,-58.930342565041656
1658789530464119,-20.965896086060866,-117.6470588235295,-61.310749980926175
1658789530480110,-12.481879911497572,-117.2198062104219,-59.29655909056237
1658789530496102,-7.476920729381163,-114.47318226901666,-57.465476462958804
1658789530512094,-11.505302510109004,-113.13038834210738,-60.151064316777365
1658789530528076,-10.406652933546866,-115.08354314488452,-62.77561608300903
1658789530544067,-19.80621042191183,-120.1495384145876,-65.70534828717473
1658789530560059,-29.877164873731545,-121.24818799114973,-66.6819256885633
1658789530576051,-35.370412756542464,-114.83939879453737,-60.151064316777365
1658789530592043,-30.121309224078686,-107.33196002136265,-54.41367208361953
1658789530608034,-23.89562829022657,-108.12542915999097,-53.803311207751676
1658789530624026,-21.27107652399468,-113.4966048676281,-58.686198214694514
1658789530640018,-18.95170519569683,-116.06012054627308,-61.55489433127332
1658789530656009,-14.312962539101136,-110.62790875104906,-55.14610513466096
1658789530672001,-10.833905546654478,-101.59456778820481,-48.310063324940984
1658789530687993,-4.9134050507361735,-96.95582513160912,-46.23483634699028
1658789530703984,-1.739528496223329,-100.00762951094839,-47.69970244907313
1658789530719976,-9.85732814526591,-105.74502174410623,-53.00984206912335
1658789530735968,-16.26611734187827,-103.3035782406348,-49.774929427023835
1658789530751959,-18.341344319828977,-92.50019073777366,-38.91050583657602
1658789530767951,-18.524452582589447,-85.66414892805369,-32.56275272755033
1658789530783943,-14.373998626688035,-84.07721065079727,-31.708247501335336
1658789530799934,-15.533684290836845,-86.39658197909512,-34.57694361791414
1658789530815926,-10.162508583199724,-85.9693293659875,-33.051041428244616
1658789530831918,-2.4719615472647547,-81.51369497215228,-24.994277866788707
1658789530847900,1.3122758831159445,-76.56977187762254,-21.57625696192872
1658789530863892,1.739528496223329,-70.58823529411757,-19.867246509498727
1658789530879883,0.03051804379333589,-68.32990005340662,-19.256885633630873
1658789530895875,-8.45349813076973,-70.16098268101018,-23.83459220263967
1658789530911867,-10.772869459067579,-67.10917830167091,-23.224231326771815
1658789530927858,-10.528725108720437,-60.151064316777365,-19.623102159151586
1658789530943850,-9.73525597009234,-53.74227512016478,-16.2050812542916
1658789530959842,-3.7537193865873633,-48.98146028839551,-13.702601663233281
1658789530975834,4.669260700389032,-44.403753719386714,-10.528725108720437
1658789530991825,13.092240787365427,-42.32852674143601,-6.256198977645454
1658789531007817,18.58548867017612,-39.15465018692316,-2.9602502479590385
1658789531023809,16.693369954985883,-34.332799267567,-3.2654306858930795
1658789531039800,9.67421988250544,-27.86297398336751,-2.9602502479590385
1658789531055792,-0.213626306553806,-20.416571297779683,0.5798428320745188
1658789531071784,-5.157549401083315,-14.98435950255589,3.936827649347606
1658789531087775,-9.979400320439481,-11.322194247348762,6.378271152819025
1658789531103767,-9.67421988250544,-7.17174029144735,7.843137254901876
1658789531119759,-4.486152437628789,-1.1291676203554744,7.782101167315204
1658789531135750,0.45777065690094787,5.157549401083315,7.721065079728305
1658789531151742,4.852368963149502,9.67421988250544,6.378271152819025
1658789531167755,7.660028992141633,14.373998626688035,3.997863736934505
1658789531183746,8.6366063935302,21.51522087434182,4.242008087281647
1658789531199738,8.270389868009488,29.022659647516548,4.547188525215461
1658789531215730,7.537956816968062,34.14969100480653,5.401693751430457
1658789531231722,5.2185854886702145,38.0560006103608,5.95101853971164
1658789531247713,5.157549401083315,44.098573281452445,8.575570305943302
1658789531263705,3.692683299000464,49.77492942702338,11.322194247348762
1658789531279697,1.1902037079423735,55.390249485007644,12.970168612191856
1658789531295688,-0.8239871824216607,60.70038910505809,13.336385137712568
1658789531311680,2.04470893415737,66.49881742580328,15.228503852903032
1658789531327672,4.791332875562603,71.01548790722518,15.533684290836845
1658789531343663,7.049668116273779,74.86076142519278,14.312962539101136
1658789531359655,7.721065079728305,79.98779278248276,13.946746013580423
1658789531375647,5.2185854886702145,86.57969024185559,16.815442130159454
1658789531391638,4.364080262455218,92.80537117570793,19.562066071564686
1658789531407630,5.645838101777599,97.81033035782411,20.904859998473967
1658789531423622,8.941786831464015,99.82452124818792,19.378957808804444
1658789531439613,9.124895094224485,100.3128099488822,18.402380407415876
1658789531455605,4.974441138323073,103.85290302891599,21.51522087434182
1658789531471597,3.997863736934505,111.17723353933025,26.337071793697987
1658789531487579,4.9134050507361735,116.91462577248785,27.679865720607268
1658789531503571,-1.6784924086366573,117.5860227359426,24.933241779201808
1658789531519562,-7.537956816968062,118.07431143663689,23.407339589532285
1658789531535554,-6.8665598535133086,121.79751277943069,31.097886625467254
1658789531551546,4.119935912108076,124.17792019531544,37.44563973449294
1658789531567537,11.993591210803288,124.66620889600972,34.57694361791391
1658789531583529,12.603952086671143,123.32341496910067,29.999237048905115
1658789531599521,10.772869459067579,123.38445105668734,29.38887617303726
1658789531615512,9.185931181811156,123.75066758220783,31.89135576409535
1658789531631504,10.467689021133765,124.84931715877019,34.45487144274034
1658789531647496,11.688410772869474,123.68963149462115,33.17311360341796
1658789531663488,9.55214770733187,122.40787365529877,32.19653620202939
1658789531679479,1.0070954451819034,118.98985275043879,32.13550011444249
1658789531695471,-5.096513313496644,115.75494010833927,33.23414969100463
1658789531711463,-18.402380407415876,114.04592965590928,32.80689707789725
1658789531727454,-25.543602655069662,115.87701228351261,35.67559319447605
1658789531743446,-21.45418478675515,117.28084229800879,45.502403295948625
1658789531759438,-6.622415503166167,114.29007400625642,50.812542915999074
1658789531775429,1.2512397955290453,110.26169222552835,49.591821164263365
1658789531791421,3.2654306858930795,105.56191348134598,47.39452201113886
1658789531807373,1.739528496223329,104.2801556420236,48.55420767528767
1658789531823364,0.03051804379333589,103.48668650339505,53.07087815671002
1658789531839356,3.5095750362402214,102.38803692683314,55.32921339742097
1658789531855348,14.557106889448278,99.76348516060125,56.183718623636196
1658789531871339,18.219272144655406,93.6598764019227,52.58258945601574
1658789531887331,12.359807736324,87.0069428549632,47.943846799420044
1658789531903323,11.20012207217519,83.58892195010321,48.55420767528767
1658789531919314,5.2185854886702145,82.2461280231937,48.98146028839528
1658789531935306,5.889982452124741,82.3682001983675,48.187991149767186
1658789531951298,3.692683299000464,79.01121538109419,45.197222858014584
1658789531967290,-5.95101853971164,73.09071488517611,39.64293888761722
1658789531983281,-6.683451590753066,68.51300831616709,40.497444113832216
1658789531999273,-2.288853284504512,65.82742046234853,42.99992370489031
1658789532015265,8.209353780422589,64.36255436026568,44.95307850766744
1658789532031256,14.618142977035177,60.21210040436381,46.723125047684334
1658789532047248,12.848096437018285,52.948805981536225,43.12199588006388
1658789532063240,0.33569848172737693,47.08934157320505,38.30014496070794
1658789532079231,-6.622415503166167,45.68551155870887,36.163881895170334
1658789532095223,-7.354848554207592,43.36614023041102,35.67559319447605
1658789532111215,-14.435034714274707,35.91973754482319,27.98504615854108
1658789532127197,-14.679179064621849,26.947432669565842,21.820401312275862
1658789532143189,-9.73525597009234,18.58548867017612,19.256885633630873
1658789532159180,0.09155413138023505,12.359807736324,17.79201953154802
1658789532175172,3.2654306858930795,4.852368963149502,15.411612115663274
1658789532191164,4.852368963149502,-3.814755474174035,11.505302510109004
1658789532207155,1.0070954451819034,-13.824673838406852,5.889982452124741
1658789532223147,-0.09155413138023505,-23.590447852292527,-0.09155413138023505
1658789532239139,-5.0354772259097444,-34.76005188067461,-6.134126802471883
1658789532255130,-14.496070801861606,-46.11276417181671,-16.388189517051842
1658789532271122,-21.14900434882111,-55.20714122224763,-26.58121614404513
1658789532287114,-20.477607385366582,-61.67696650644689,-34.69901579308771
1658789532303105,-17.181658655680167,-69.55062180514233,-42.20645456626244
1658789532319097,-16.998550392919697,-78.21774624246586,-49.591821164263365
1658789532335089,-14.80125123979542,-84.56549935149155,-55.14610513466096
1658789532351081,-9.430075532158298,-88.04455634393821,-57.465476462958804
1658789532367072,-3.814755474174035,-90.54703593499653,-59.72381170366975
1658789532383064,-1.8616006713969,-93.90402075226984,-61.98214694438093
1658789532399056,-1.1291676203554744,-98.78690775921268,-63.44701304646378
1658789532415047,1.0070954451819034,-103.24254215304813,-62.836652170595926
1658789532431039,8.209353780422589,-104.58533607995741,-60.028992141603794
1658789532447052,9.369039444571627,-106.05020218204027,-57.22133211261166
1658789532463043,3.0212863355459376,-108.73579003585883,-55.75646601052881
1658789532479035,-3.2654306858930795,-111.05516136415667,-51.78912031738764
1658789532495027,-8.51453421835663,-111.90966659037167,-47.63866636148623
1658789532511018,-5.828946364538069,-110.74998092622263,-43.183031967651004
1658789532527010,-4.242008087281647,-111.60448615243763,-40.497444113832444
1658789532543002,-6.927595941100208,-114.10696574349595,-42.87785152971696
1658789532558993,-9.918364232852582,-114.41214618142976,-42.81681544213029
1658789532574985,-9.979400320439481,-112.15381094071881,-41.657129777981254
1658789532590977,-8.819714656290444,-109.28511482413978,-39.76501106279102
1658789532606969,-5.828946364538069,-109.77340352483407,-39.76501106279102
1658789532622960,-14.557106889448278,-112.09277485313191,-42.999923704890534
1658789532638952,-21.942473487449433,-111.97070267795834,-42.93888761730386
1658789532654944,-18.70756084534969,-107.02677958342883,-37.50667582207984
1658789532670935,-14.435034714274707,-102.87632562752742,-34.51590753032747
1658789532686927,-12.970168612191856,-100.74006256198982,-35.24834058136889
1658789532702919,-7.4158846417944915,-99.45830472266744,-35.00419623102175
1658789532718910,-0.45777065690094787,-99.33623254749386,-34.088654917219856
1658789532734902,8.575570305943302,-96.40650034332816,-31.097886625467254
1658789532750894,18.70756084534969,-91.27946898603795,-27.252613107499656
1658789532766876,18.402380407415876,-90.54703593499653,-27.74090180819394
1658789532782868,18.524452582589447,-91.5236133363851,-28.473334859235365
1658789532798859,13.275349050125897,-92.6832990005339,-25.848783093003703
1658789532814851,4.42511635004189,-93.29365987640176,-24.933241779201808
1658789532830843,-9.613183794918768,-89.69253070878153,-22.61387045090396
1658789532846834,-21.45418478675515,-83.58892195010299,-19.1348134584573
1658789532862826,-16.815442130159454,-80.9643701838711,-14.618142977035177
1658789532878818,-6.8665598535133086,-81.33058670939181,-12.359807736324
1658789532894809,2.655069810025225,-84.56549935149155,-14.679179064621849
1658789532910801,1.8616006713969,-86.27450980392155,-15.045395590142562
1658789532926793,-4.180971999694748,-84.32135500114441,-13.031204699778755
1658789532942784,-7.4158846417944915,-79.68261234454872,-9.491111619745197
1658789532958776,-5.523765926604028,-76.14251926451516,-6.256198977645454
1658789532974768,-2.8381780727854675,-76.02044708934159,-6.744487678339738
1658789532990759,-6.073090714885211,-78.82810711833372,-11.932555123216616
1658789533006751,-8.6366063935302,-79.49950408178825,-15.472648203250174
1658789533022743,-9.063859006637585,-75.10490577553969,-15.350576028076603
1658789533038735,-7.11070420386045,-69.611657892729,-14.862287327382319
1658789533054726,-4.486152437628789,-65.8884565499352,-16.44922560463874
1658789533070718,-6.8665598535133086,-64.05737392233164,-20.599679560540153
1658789533086700,-4.852368963149502,-61.92111085679403,-22.186617837796575
1658789533102692,3.2043945983061803,-56.91615167467762,-19.01274128328373
1658789533118683,12.115663385976859,-51.78912031738764,-12.054627298390187
1658789533134675,14.92332341496899,-48.310063324940984,-10.406652933546866
1658789533150667,10.528725108720437,-45.563439383535524,-11.749446860456146
1658789533166659,5.279621576256886,-40.92469672693983,-10.589761196307336
1658789533182650,3.570611123826893,-37.3235675593196,-6.805523765926637
1658789533198642,3.3264667734797513,-34.332799267567,-3.0212863355459376
1658789533214634,3.997863736934505,-30.36545357442583,-2.532997634851654
1658789533230625,2.9602502479590385,-25.665674830243233,-2.8381780727854675
1658789533246617,1.4343480582895154,-20.17242694743254,-3.814755474174035
1658789533262609,1.6174563210497581,-14.190890363927565,-3.875791561760934
1658789533278600,-1.1291676203554744,-8.270389868009488,-3.5095750362402214
1658789533294592,-6.683451590753066,-2.227817196917613,-3.0212863355459376
1658789533310584,-5.0354772259097444,5.0354772259097444,-1.4953841458761872
1658789533326575,0.15259021896690683,12.054627298390187,1.6174563210497581
1658789533342567,7.049668116273779,18.524452582589447,5.401693751430457
1658789533358559,11.20012207217519,21.69832913710229,5.95101853971164
1658789533374550,10.89494163424115,27.191577019912984,3.936827649347606
1658789533390542,8.6366063935302,33.478294041351774,2.9602502479590385
1658789533406524,3.5095750362402214,40.43640802624532,2.04470893415737
1658789533422516,-1.3733119707026162,45.80758373388244,1.9226367589837992
1658789533438508,-4.730296787975931,51.23979552910623,3.4485389486533222
1658789533454499,-4.791332875562603,56.30579079880954,5.523765926604028
1658789533470491,0.9460593575952316,61.61593041885999,6.378271152819025
1658789533486483,5.3406576638437855,66.13260090028234,6.134126802471883
1658789533502474,10.223544670786623,70.46616311894422,8.819714656290444
1658789533518466,12.664988174258042,75.77630273899467,10.589761196307336
1658789533534458,10.162508583199724,79.4384679942018,9.613183794918768
1658789533550449,6.439307240405924,84.0772106507975,11.322194247348762
1658789533566441,8.392462043183059,88.16662851911224,15.533684290836845
1658789533582433,10.162508583199724,90.66910811017033,17.120622568093268
1658789533598425,8.087281605249018,91.82879377431937,15.716792553597315
1658789533614416,5.645838101777599,92.13397421225318,15.960936903944457
1658789533630408,-0.9460593575952316,94.08712901503031,22.369726100556818
1658789533646400,-3.6316472114137923,95.67406729228651,25.17738612954895
1658789533662391,-2.8992141603723667,97.07789730678269,24.13977264057371
1658789533678383,3.3264667734797513,97.56618600747697,22.49179827573039
1658789533694375,6.683451590753066,98.17654688334505,19.684138246738257
1658789533710366,11.01701380941472,100.12970168612219,21.51522087434182
1658789533726349,21.39314869916825,99.76348516060125,27.435721370260126
1658789533742340,31.403067063401068,98.35965514610507,29.877164873731545
1658789533758332,37.506675822079615,97.87136644541079,28.534370946822264
1658789533774324,26.6422522316318,96.95582513160934,25.29945830472252
1658789533790315,13.031204699778755,96.10131990539412,22.552834363317288
1658789533806307,8.819714656290444,97.56618600747697,26.276035706111088
1658789533822299,9.246967269398056,97.19996948195649,28.290226596475122
1658789533838290,7.782101167315204,96.46753643091506,24.811169604028237
1658789533854282,3.2654306858930795,96.04028381780745,24.322880903333953
1658789533870274,6.9886320286868795,95.00267032883221,27.92401007095441
1658789533886265,11.505302510109004,93.72091248950937,29.816128786144645
1658789533902257,8.026245517662346,92.92744335088128,26.82536049439227
1658789533918249,2.532997634851654,94.20920119020366,28.717479209582507
1658789533934240,0.7629510948347615,93.96505683985652,34.88212405584795
1658789533950232,0.45777065690094787,91.76775768673224,34.88212405584795
1658789533966224,2.532997634851654,90.97428854810414,33.29518577859153
1658789533982216,1.1291676203554744,90.30289158464939,30.30441748683893
1658789533998207,-1.2512397955290453,91.88982986190604,32.379644464789635
1658789534014199,8.087281605249018,93.23262378881509,39.52086671244365
1658789534030191,20.35553521019301,92.56122682536079,41.65712977798103
1658789534046173,26.276035706111088,91.6456855115589,39.154650186922936
1658789534062164,19.80621042191183,89.57045853360796,37.384603646906044
1658789534078156,13.946746013580423,88.34973678187225,40.9246967269396
1658789534094148,9.002822919050914,87.31212329289701,43.8544289311053
1658789534110139,0.9460593575952316,87.55626764324415,43.67132066834506
1658789534126131,-4.60822461280236,86.39658197909512,41.7792019531546
1658789534142123,-16.632333867398984,83.71099412527656,39.52086671244365
1658789534158115,-14.862287327382319,82.79545281147512,43.67132066834506
1658789534174106,-7.4158846417944915,81.08644235904512,46.11276417181648
1658789534190098,5.706874189364498,81.025406271458,43.9154650186922
1658789534206090,15.594720378423744,79.13328755626799,42.26749065384888
1658789534222081,13.336385137712568,76.32562752727563,38.849469748988895
1658789534238073,10.406652933546866,75.47112230106086,38.36118104829461
1658789534254065,8.087281605249018,76.32562752727563,39.21568627450961
1658789534270056,5.401693751430457,76.81391622796991,38.30014496070794
1658789534286048,0.33569848172737693,75.5931944762342,36.591134508277946
1658789534302040,-9.55214770733187,72.96864271000231,36.04180971999676
1658789534318031,-7.782101167315204,70.89341573205184,38.727397573815324
1658789534334023,-7.721065079728305,68.51300831616709,39.70397497520389
1658789534350015,-4.669260700389032,67.04814221408424,38.48325322346818
1658789534366027,-7.2938124666209205,63.75219348439805,38.727397573815324
1658789534382019,-9.002822919050914,57.09925993743764,37.32356755931937
1658789534398011,-7.476920729381163,51.23979552910623,33.23414969100463
1658789534414003,6.683451590753066,45.86861982146934,29.694056610971074
1658789534429994,7.049668116273779,35.98077363241009,24.689097428854666
1658789534445986,-4.242008087281647,25.665674830243233,16.754406042572555
1658789534461978,-8.209353780422589,17.48683909361398,14.068818188753994
1658789534477969,-4.60822461280236,9.55214770733187,12.359807736324
1658789534493961,-0.5188067444876197,-1.6174563210497581,8.575570305943302
1658789534509953,-7.904173342488775,-14.618142977035177,4.242008087281647
1658789534525944,-17.303730830853738,-26.153963530937517,-0.2746623941404778
1658789534541936,-19.317921721217544,-34.82108796826128,-5.096513313496644
1658789534557928,-14.679179064621849,-44.037537193866,-11.566338597695903
1658789534573919,-16.754406042572555,-55.20714122224763,-20.23346303501944
1658789534589911,-16.754406042572555,-65.27809567406734,-28.107118333714652
1658789534605903,-16.754406042572555,-73.76211184863041,-33.966582742046285
1658789534621894,-15.472648203250174,-79.37743190661467,-38.78843366140245
1658789534637886,-20.17242694743254,-84.13824673838394,-43.91546501869243
1658789534653878,-25.726710917830133,-89.93667505912867,-48.554207675288126
1658789534669870,-23.651483939879427,-96.6506446936753,-51.78912031738764
1658789534685821,-20.538643472953254,-102.57114518959338,-56.122682536049524
1658789534701813,-13.64156557564661,-108.06439307240407,-58.38101777676047
1658789534717805,-10.955977721828049,-112.5810635538262,-59.41863126573594
1658789534733796,-14.496070801861606,-116.85358968490118,-61.79903868162046
1658789534749788,-18.219272144655406,-117.95223926146332,-62.47043564507521
1658789534765780,-19.439993896391115,-116.97566186007475,-61.00556954299236
1658789534781771,-15.045395590142562,-117.95223926146332,-59.29655909056237
1658789534797763,-10.650797283894008,-122.89616235599306,-58.86930647745476
1658789534813755,-7.17174029144735,-126.68039978637375,-59.29655909056237
1658789534829746,1.983672846570471,-125.45967803463805,-55.20714122224763
1658789534845738,-1.983672846570471,-122.71305409323259,-54.10849164568549
1658789534861730,-9.67421988250544,-121.55336842908378,-54.23056382085906
1658789534877721,-19.9282825970854,-122.83512626840616,-55.20714122224763
1658789534893713,-24.01770046540014,-122.65201800564591,-55.63439383535524
1658789534909705,-15.960936903944457,-119.3560692759595,-51.239795529106686
1658789534925696,-3.0823224231326094,-117.52498664835593,-50.6904707408255
1658789534941688,-3.692683299000464,-119.17296101319903,-57.16029602502476
1658789534957680,-0.5188067444876197,-118.37949187457093,-57.16029602502476
1658789534973672,5.3406576638437855,-117.70809491111618,-53.31502250705739
1658789534989663,7.660028992141633,-116.60944533455404,-52.94880598153668
1658789535005645,3.0212863355459376,-115.38872358281833,-53.31502250705739
1658789535021637,-8.026245517662346,-113.74074921797524,-52.09430075532168
1658789535037629,-17.48683909361398,-111.66552224002453,-49.34767681391622
1658789535053620,-23.83459220263967,-110.68894483863596,-45.50240329594885
1658789535069612,-24.444953078507524,-107.45403219653622,-44.28168154421314
1658789535085604,-19.1348134584573,-102.63218127718028,-41.47402151522101
1658789535101596,-10.223544670786623,-101.04524299992386,-40.497444113832444
1658789535117587,1.3122758831159445,-101.2283512626841,-37.933928435187454
1658789535133579,9.796292057679011,-101.53353170061814,-35.91973754482342
1658789535149571,19.623102159151586,-99.39726863508054,-29.938200961318216
1658789535165562,20.782787823300396,-99.03105210955982,-27.61882963302037
1658789535181554,3.3875028610666504,-100.25177386129553,-31.830319676508907
1658789535197546,-17.66994735637445,-98.66483558403911,-33.5393301289389
1658789535213537,-27.313649195086555,-93.11055161364152,-29.26680399786369
1658789535229529,-25.787747005416804,-88.77698939497964,-25.787747005416804
1658789535245521,-24.567025253681095,-85.84725719081393,-25.116350041962278
1658789535261512,-19.256885633630873,-83.0395971618218,-25.17738612954895
1658789535277504,-4.180971999694748,-81.025406271458,-22.186617837796575
1658789535293496,8.819714656290444,-78.88914320592039,-20.17242694743254
1658789535309487,21.45418478675515,-76.02044708934159,-17.66994735637445
1658789535325470,23.95666437781324,-72.78553444724184,-13.336385137712568
1658789535341461,18.70756084534969,-71.07652399481185,-10.89494163424115
1658789535357453,7.965209430075447,-68.757152666514,-11.566338597695903
1658789535373445,-0.8239871824216607,-64.1794460975052,-10.528725108720437
1658789535389436,-5.279621576256886,-58.99137865262833,-7.4158846417944915
1658789535405428,-8.209353780422589,-56.183718623636196,-7.965209430075447
1658789535421420,-7.11070420386045,-53.13191424429692,-10.284580758373295
1658789535437411,1.6174563210497581,-48.79835202563527,-8.087281605249018
1658789535453403,10.284580758373295,-44.220645456626244,-5.706874189364498
1658789535469395,14.190890363927565,-40.558480201419115,-6.622415503166167
1658789535485386,7.660028992141633,-35.67559319447628,-6.744487678339738
1658789535501378,-0.03051804379333589,-26.886396581978943,-4.364080262455218
1658789535517370,-7.660028992141633,-17.54787518120088,-1.6784924086366573
1658789535533362,-14.068818188753994,-10.772869459067579,-0.03051804379333589
1658789535549353,-14.80125123979542,-5.401693751430457,1.0070954451819034
1658789535565345,-7.904173342488775,-0.5188067444876197,2.655069810025225
1658789535581337,1.4343480582895154,3.570611123826893,4.303044174868319
1658789535597328,8.45349813076973,9.124895094224485,3.0823224231326094
1658789535613320,6.927595941100208,15.289539940489703,0.2746623941404778
1658789535629312,2.5940337224383256,24.01770046540014,-1.8616006713969
1658789535645324,-0.03051804379333589,32.19653620202939,-1.0681315327688026
1658789535661316,-1.6784924086366573,38.60532539864175,1.3122758831159445
1658789535677308,2.7771419851987957,42.02334630350174,2.532997634851654
1658789535693299,7.537956816968062,45.07515068284101,5.584802014190927
1658789535709291,11.749446860456146,49.16456855115575,9.979400320439481
1658789535725283,13.092240787365427,54.962996871900486,11.139085984588291
1658789535741274,9.308003356984727,60.761425192644765,11.322194247348762
1658789535757266,4.303044174868319,64.72877088578662,11.505302510109004
1658789535773258,1.983672846570471,67.84161135271233,12.481879911497572
1658789535789250,3.0823224231326094,71.32066834515945,14.373998626688035
1658789535805241,5.828946364538069,74.7997253376061,14.496070801861606
1658789535821233,6.805523765926637,77.48531319142467,14.557106889448278
1658789535837225,7.537956816968062,81.1474784466318,18.70756084534969
1658789535853216,9.246967269398056,85.17586022735941,23.041123064011572
1658789535869208,12.115663385976859,87.31212329289701,25.17738612954895
1658789535885200,13.946746013580423,87.25108720531034,23.651483939879427
1658789535901191,14.98435950255589,88.5938811322194,22.552834363317288
1658789535917183,13.214312962538997,91.76775768673224,23.7125200274661
1658789535933175,8.392462043183059,96.04028381780745,23.89562829022657
1658789535949166,2.8992141603723667,99.45830472266744,23.468375677118956
1658789535965149,0.8850232700083325,101.65560387579171,24.689097428854666
1658789535981140,2.9602502479590385,102.51010910200648,27.98504615854108
1658789535997132,4.669260700389032,102.143892576486,28.351262684061794
1658789536013124,3.2654306858930795,100.74006256198982,28.656443121995835
1658789536029115,6.195162890058782,101.96078431372553,32.684824902723676
1658789536045107,14.80125123979542,103.73083085374219,34.88212405584795
1658789536061099,18.82963302052326,104.9515526054779,33.29518577859153
1658789536077090,12.115663385976859,103.05943389028789,29.694056610971074
1658789536093082,7.11070420386045,101.16731517509743,29.694056610971074
1658789536109074,4.60822461280236,100.434882124056,31.83031967650868
1658789536125065,3.5095750362402214,100.19073777370886,32.80689707789725
1658789536141057,1.8005645838102282,101.41145952544457,35.49248493171581
1658789536157049,-0.33569848172737693,101.2283512626841,36.83527885862509
1658789536173040,-1.3122758831159445,99.15312428473362,38.30014496070794
1658789536189032,-2.166781109330941,95.00267032883221,36.95735103379866
1658789536205024,-3.570611123826893,92.31708247501365,32.92896925307082
1658789536221016,-2.3498893720911838,91.46257724879842,33.29518577859153
1658789536237007,1.3733119707026162,92.01190203707938,37.44563973449294
1658789536252999,10.89494163424115,93.59884031433603,40.68055237659246
1658789536268991,22.064545662623004,93.04951552605507,39.70397497520389
1658789536284942,21.27107652399468,90.11978332188937,34.63797970550081
1658789536300934,14.007782101167322,87.9224841687651,32.13550011444249
1658789536316926,11.749446860456146,88.10559243152511,36.71320668345152
1658789536332917,2.5940337224383256,88.77698939497986,36.346990157930804
1658789536348909,-2.166781109330941,90.18081940947604,35.49248493171581
1658789536364901,-11.566338597695903,88.16662851911224,33.4172579537651
1658789536380892,-18.097199969481835,86.27450980392177,31.95239185168225
1658789536396884,-13.397421225299468,86.51865415426892,39.154650186922936
1658789536412876,-6.317235065232353,87.12901503013654,43.67132066834506
1658789536428867,9.55214770733187,88.71595330739319,46.23483634699005
1658789536444859,14.435034714274707,86.70176241702939,45.441367208361726
1658789536460851,4.364080262455218,83.9551384756237,41.412985427633885
1658789536476843,4.303044174868319,84.62653543907845,45.86861982146934
1658789536492834,10.89494163424115,83.9551384756237,51.911192492560986
1658789536508826,10.345616845960194,81.39162279697894,47.6997024490729
1658789536524818,0.33569848172737693,77.79049362935848,45.5634393835353
1658789536540809,-8.209353780422589,74.86076142519278,45.624475471122196
1658789536556801,-11.993591210803288,72.17517357137422,45.25825894560148
1658789536572793,-8.087281605249018,69.24544136720851,44.34271763179959
1658789536588784,-2.532997634851654,65.03395132372043,42.816815442130064
1658789536604797,-5.706874189364498,60.090028229190466,40.74158846417936
1658789536620789,0.7629510948347615,55.390249485007644,41.16884107728674
1658789536636780,5.279621576256886,50.629434653238604,39.33775844968318
1658789536652772,10.223544670786623,46.723125047684334,35.91973754482319
1658789536668764,7.965209430075447,40.80262455176603,33.844510566872486
1658789536684755,3.3264667734797513,32.19653620202939,28.96162355992965
1658789536700747,-2.3498893720911838,22.73594262607753,23.83459220263967
1658789536716739,-1.6784924086366573,14.373998626688035,19.501029983978015
1658789536732730,-1.4953841458761872,5.157549401083315,16.754406042572555
1658789536748722,-6.805523765926637,-6.8665598535133086,10.284580758373295
1658789536764714,-9.918364232852582,-17.914091706721592,3.875791561760934
1658789536780706,-7.537956816968062,-26.276035706111088,-2.04470893415737
1658789536796697,-7.049668116273779,-34.63797970550104,-8.758678568703772
1658789536812689,-13.092240787365427,-42.57267109178315,-17.48683909361398
1658789536828681,-16.32715342946517,-49.10353246356908,-24.811169604028237
1658789536844672,-13.76363775082018,-54.23056382085906,-29.449912260623933
1658789536860664,-5.584802014190927,-59.35759517814904,-33.11207751583129
1658789536876656,-1.739528496223329,-65.94949263752187,-36.591134508278174
1658789536892647,-6.134126802471883,-72.72449835965517,-41.0467689021134
1658789536908639,-10.406652933546866,-76.69184405279611,-42.87785152971696
1658789536924621,-14.618142977035177,-78.70603494316015,-43.73235675593196
1658789536940613,-20.599679560540153,-80.9643701838711,-45.746547646295994
1658789536956605,-28.96162355992965,-85.35896849011965,-49.10353246356908
1658789536972596,-29.51094834821083,-89.20424200808725,-50.20218204013122
1658789536988588,-22.67490653849086,-91.15739681086438,-50.934615091172645
1658789537004580,-11.566338597695903,-92.50019073777366,-52.64362554360264
1658789537020571,-3.7537193865873633,-94.81956206607174,-54.41367208361953
1658789537036563,0.5798428320745188,-98.3596551461053,-57.03822384985119
1658789537052555,2.8381780727854675,-101.53353170061814,-56.97718776226452
1658789537068546,5.2185854886702145,-102.32700083924624,-56.00061036087595
1658789537084538,1.0681315327688026,-102.38803692683314,-55.45128557259477
1658789537100530,-9.979400320439481,-103.48668650339528,-56.79407949950405
1658789537116521,-15.411612115663274,-104.28015564202337,-55.024032959487386
1658789537132513,-18.219272144655406,-105.43984130617241,-54.10849164568549
1658789537148505,-17.54787518120088,-105.8670939192798,-52.76569771877621
1658789537164497,-14.80125123979542,-104.95155260547813,-52.52155336842907
1658789537180488,-11.505302510109004,-104.76844434271766,-51.97222858014811
1658789537196480,-1.983672846570471,-106.29434653238741,-48.554207675288126
1658789537212472,3.4485389486533222,-109.95651178759454,-49.34767681391622
1658789537228463,-0.33569848172737693,-110.81101701380953,-51.85015640497454
1658789537244445,-0.6408789196611906,-106.78263523308169,-48.92042420080884
1658789537260437,-0.3967345693140487,-103.91393911650266,-45.563439383535524
1658789537276429,-6.622415503166167,-105.74502174410623,-48.371099412527656
1658789537292420,-11.566338597695903,-104.95155260547813,-48.6762798504617
1658789537308412,-12.848096437018285,-102.143892576486,-44.95307850766767
1658789537324404,-10.772869459067579,-97.32204165712983,-39.94811932555126
1658789537340396,-5.279621576256886,-94.39230945296413,-36.835278858625315
1658789537356387,-1.739528496223329,-95.18577859159245,-37.14045929655913
1658789537372379,-3.692683299000464,-97.26100556954316,-40.86366063935316
1658789537388371,-2.227817196917613,-95.24681467917912,-38.97154192416269
1658789537404362,-1.4343480582895154,-90.11978332188892,-31.586175326161765
1658789537420354,2.3498893720911838,-86.57969024185536,-26.82536049439227
1658789537436346,6.317235065232353,-87.92248416876464,-25.543602655069662
1658789537452337,0.6408789196611906,-90.6080720225832,-29.51094834821083
1658789537468329,-3.5095750362402214,-91.5236133363851,-29.938200961318216
1658789537484321,-9.979400320439481,-87.86144808117797,-23.041123064011572
1658789537500312,-15.838864728770886,-84.56549935149155,-20.965896086060866
1658789537516304,-20.23346303501944,-82.73441672388799,-22.003509575036105
1658789537532296,-18.402380407415876,-79.92675669489586,-21.27107652399468
1658789537548287,-9.308003356984727,-79.43846799420157,-20.904859998473967
1658789537564239,0.9460593575952316,-79.37743190661467,-19.745174334325156
1658789537580231,10.101472495613052,-78.88914320592039,-18.524452582589447
1658789537596223,14.740215152208748,-76.26459143968873,-17.48683909361398
1658789537612214,12.848096437018285,-73.88418402380398,-16.44922560463874
1658789537628206,6.195162890058782,-71.01548790722518,-17.120622568093268
1658789537644198,2.04470893415737,-67.65850308995186,-15.167467765316132
1658789537660189,0.03051804379333589,-63.996337834744736,-11.505302510109004
1658789537676181,-1.4343480582895154,-61.310749980926175,-11.322194247348762
1658789537692173,-5.401693751430457,-59.54070344090951,-14.068818188753994
1658789537708164,-7.660028992141633,-56.67200732433048,-14.862287327382319
1658789537724156,-7.2938124666209205,-51.91119249256121,-12.054627298390187
1658789537740148,-1.6174563210497581,-46.60105287251099,-10.650797283894008
1658789537756139,6.561379415579495,-41.35194934004744,-7.904173342488775
1658789537772131,11.688410772869474,-38.97154192416269,-5.3406576638437855
1658789537788123,15.472648203250174,-37.44563973449317,-6.134126802471883
1658789537804114,12.909132524605184,-33.90554665445961,-5.584802014190927
1658789537820106,7.17174029144735,-26.82536049439227,-2.04470893415737
1658789537836098,-1.8616006713969,-17.42580300602731,1.3122758831159445
1658789537852090,-14.007782101167322,-10.101472495613052,0.09155413138023505
1658789537868081,-23.89562829022657,-5.096513313496644,-3.1433585107195086
1658789537884094,-25.48256656748299,0.15259021896690683,-2.105745021744042
1658789537900086,-20.477607385366582,5.401693751430457,3.1433585107195086
1658789537916077,-9.979400320439481,9.918364232852582,6.9886320286868795
1658789537932069,0.15259021896690683,14.679179064621849,6.317235065232353
1658789537948061,9.491111619745197,20.904859998473967,5.462729839017356
1658789537964052,14.068818188753994,27.86297398336751,6.195162890058782
1658789537980044,14.312962539101136,34.76005188067438,5.828946364538069
1658789537996036,12.4208438239109,42.45059891660935,6.622415503166167
1658789538012027,11.810482948043045,48.55420767528767,8.026245517662346
1658789538028019,11.444266422522333,53.43709468223051,8.819714656290444
1658789538044011,12.970168612191856,57.28236820019811,8.819714656290444
1658789538060002,13.45845731288614,61.55489433127332,9.308003356984727
1658789538075994,13.824673838406852,67.04814221408424,11.139085984588291
1658789538091986,12.176699473563758,73.15175097276278,10.955977721828049
1658789538107977,8.758678568703772,78.76707103074705,11.139085984588291
1658789538123969,7.537956816968062,83.1616693369956,11.505302510109004
1658789538139961,5.157549401083315,87.06797894254987,11.993591210803288
1658789538155953,6.622415503166167,92.62226291294746,14.679179064621849
