Timestamp (microseconds),Gyro X (°/s),Gyro Y (°/s),Gyro Z (°/s)
1658789509164276,-2.4719615472647547,1.6174563210497581,0.45777065690094787
1658789509180276,-2.532997634851654,0.6408789196611906,-0.33569848172737693
1658789509196275,0.9460593575952316,0.213626306553806,-0.03051804379333589
1658789509212275,4.058899824521177,1.1902037079423735,0.5798428320745188
1658789509228275,3.3264667734797513,1.8005645838102282,0.3967345693140487
1658789509244275,-0.33569848172737693,1.2512397955290453,-0.3967345693140487
1658789509260275,-1.0070954451819034,0.8239871824216607,-1.0070954451819034
1658789509276274,-0.3967345693140487,1.1902037079423735,-1.0681315327688026
1658789509292274,-2.166781109330941,1.4953841458761872,-1.6784924086366573
1658789509308274,-3.2043945983061803,1.739528496223329,-2.288853284504512
1658789509324274,-2.105745021744042,1.4953841458761872,-2.288853284504512
1658789509340273,1.1902037079423735,1.1291676203554744,-1.739528496223329
1658789509356273,1.9226367589837992,1.5564202334630863,-1.5564202334630863
1658789509372273,-0.03051804379333589,1.0681315327688026,-2.410925459678083
1658789509388273,0.15259021896690683,0.8239871824216607,-2.4719615472647547
1658789509404273,2.4719615472647547,0.33569848172737693,-1.8616006713969
1658789509420272,1.739528496223329,1.0681315327688026,-1.6174563210497581
1658789509436272,-1.6174563210497581,2.04470893415737,-2.410925459678083
1658789509452272,-2.9602502479590385,1.2512397955290453,-3.5095750362402214
1658789509468272,3.3264667734797513,1.1291676203554744,-2.8381780727854675
1658789509484283,6.378271152819025,1.1902037079423735,-2.532997634851654
1658789509500283,1.3733119707026162,0.7019150072480898,-3.3875028610666504
1658789509516283,-2.105745021744042,0.9460593575952316,-3.7537193865873633
1658789509532282,0.213626306553806,1.1291676203554744,-3.2043945983061803
1658789509548282,3.875791561760934,2.04470893415737,-2.105745021744042
1658789509564282,-0.03051804379333589,2.04470893415737,-1.9226367589837992
1658789509580282,-6.622415503166167,1.1902037079423735,-2.7771419851987957
1658789509596282,-7.598992904554734,0.5188067444876197,-3.2043945983061803
1658789509612281,-2.8381780727854675,0.213626306553806,-2.532997634851654
1658789509628281,2.166781109330941,0.7019150072480898,-1.8005645838102282
1658789509644281,1.3733119707026162,0.5188067444876197,-2.166781109330941
1658789509660281,-0.15259021896690683,0.33569848172737693,-2.288853284504512
1658789509676281,-0.213626306553806,-0.09155413138023505,-2.288853284504512
1658789509692280,1.4343480582895154,0.213626306553806,-2.532997634851654
1658789509708280,0.2746623941404778,0.33569848172737693,-2.4719615472647547
1658789509724280,-2.04470893415737,-0.2746623941404778,-2.166781109330941
1658789509740280,-1.739528496223329,-0.33569848172737693,-2.288853284504512
1658789509756280,-0.33569848172737693,0.03051804379333589,-1.5564202334630863
1658789509772279,1.4953841458761872,0.8239871824216607,-1.4953841458761872
1658789509788279,0.9460593575952316,0.7019150072480898,-1.983672846570471
1658789509804260,1.0681315327688026,-0.2746623941404778,-1.6784924086366573
1658789509820260,1.1902037079423735,-1.0681315327688026,-1.4953841458761872
1658789509836259,-1.0681315327688026,-0.6408789196611906,-1.0681315327688026
1658789509852259,-2.9602502479590385,-0.15259021896690683,-1.0681315327688026
1658789509868259,-1.983672846570471,-0.15259021896690683,-0.8239871824216607
1658789509884259,1.6784924086366573,0.213626306553806,-0.2746623941404778
1658789509900259,0.9460593575952316,0.33569848172737693,-0.33569848172737693
1658789509916258,-3.0823224231326094,0.09155413138023505,-1.0681315327688026
1658789509932258,-2.9602502479590385,0.09155413138023505,-1.3733119707026162
1658789509948258,2.410925459678083,-0.15259021896690683,-0.9460593575952316
1658789509964258,4.9134050507361735,0.2746623941404778,-0.6408789196611906
1658789509980258,1.3122758831159445,0.5188067444876197,-1.0070954451819034
1658789509996257,-1.9226367589837992,0.09155413138023505,-1.5564202334630863
1658789510012257,-0.3967345693140487,-0.3967345693140487,-1.4343480582895154
1658789510028257,3.7537193865873633,-0.45777065690094787,-0.5188067444876197
1658789510044257,2.227817196917613,-0.5798428320745188,-0.213626306553806
1658789510060257,-1.0681315327688026,-0.8239871824216607,-1.5564202334630863
1658789510076256,-1.739528496223329,-0.7019150072480898,-2.9602502479590385
1658789510092256,0.7629510948347615,-0.45777065690094787,-2.8381780727854675
1658789510108256,3.5095750362402214,0.45777065690094787,-1.9226367589837992
1658789510124237,2.3498893720911838,0.8239871824216607,-1.9226367589837992
1658789510140236,-1.1291676203554744,0.5798428320745188,-2.227817196917613
1658789510156236,-0.7629510948347615,0.2746623941404778,-1.9226367589837992
1658789510172236,0.8850232700083325,1.0681315327688026,-1.5564202334630863
1658789510188236,0.09155413138023505,2.04470893415737,-1.1291676203554744
1658789510204236,-2.532997634851654,1.5564202334630863,-1.1291676203554744
1658789510220235,-2.655069810025225,0.7019150072480898,-0.6408789196611906
1658789510236235,0.45777065690094787,0.5798428320745188,0.09155413138023505
1658789510252235,1.4953841458761872,0.8850232700083325,-0.09155413138023505
1658789510268235,0.03051804379333589,1.0681315327688026,-0.45777065690094787
1658789510284235,1.8616006713969,0.8239871824216607,-0.33569848172737693
1658789510300234,5.096513313496644,1.1291676203554744,0.3967345693140487
1658789510316234,2.9602502479590385,1.3733119707026162,0.15259021896690683
1658789510332234,-3.0212863355459376,1.2512397955290453,-1.2512397955290453
1658789510348234,-4.058899824521177,0.5188067444876197,-2.288853284504512
1658789510364234,-0.5188067444876197,0.8239871824216607,-1.2512397955290453
1658789510380233,1.3122758831159445,1.0681315327688026,-0.9460593575952316
1658789510396233,-1.3733119707026162,0.9460593575952316,-1.9226367589837992
1658789510412233,-1.739528496223329,1.1291676203554744,-2.7771419851987957
1658789510428233,0.5798428320745188,1.8005645838102282,-2.410925459678083
1658789510444244,0.7019150072480898,1.8005645838102282,-2.9602502479590385
1658789510460244,-1.1902037079423735,1.2512397955290453,-2.9602502479590385
1658789510476244,0.2746623941404778,0.8850232700083325,-2.105745021744042
1658789510492243,0.6408789196611906,1.3122758831159445,-1.3733119707026162
1658789510508243,-1.5564202334630863,1.3122758831159445,-1.9226367589837992
1658789510524243,-3.3875028610666504,1.1291676203554744,-2.288853284504512
1658789510540243,-0.8239871824216607,0.3967345693140487,-1.8005645838102282
1658789510556243,2.7161058976118966,0.7019150072480898,-0.2746623941404778
1658789510572242,2.3498893720911838,1.1291676203554744,-0.213626306553806
1658789510588242,-0.8850232700083325,1.3122758831159445,-0.8239871824216607
1658789510604242,-4.180971999694748,0.8850232700083325,-1.6784924086366573
1658789510620242,-1.8005645838102282,0.2746623941404778,-1.5564202334630863
1658789510636242,2.8381780727854675,0.8239871824216607,-0.03051804379333589
1658789510652241,2.288853284504512,1.1902037079423735,0.2746623941404778
1658789510668241,-0.45777065690094787,1.2512397955290453,-0.15259021896690683
1658789510684241,-2.410925459678083,0.33569848172737693,-0.9460593575952316
1658789510700241,-0.09155413138023505,-0.03051804379333589,-1.1291676203554744
1658789510716241,2.166781109330941,0.5798428320745188,-1.1291676203554744
1658789510732240,-0.5798428320745188,1.4953841458761872,-1.3733119707026162
1658789510748240,-1.8616006713969,1.0070954451819034,-2.288853284504512
1658789510764221,-0.7629510948347615,0.33569848172737693,-2.04470893415737
1658789510780221,0.7629510948347615,0.45777065690094787,-1.8005645838102282
1658789510796220,-1.0681315327688026,0.6408789196611906,-2.105745021744042
1658789510812220,-2.8992141603723667,0.7629510948347615,-2.105745021744042
1658789510828220,-2.105745021744042,0.3967345693140487,-2.105745021744042
1658789510844220,1.8005645838102282,0.15259021896690683,-1.6784924086366573
1658789510860220,0.8239871824216607,0.7629510948347615,-1.3122758831159445
1658789510876219,-1.9226367589837992,1.1902037079423735,-2.227817196917613
1658789510892219,-1.5564202334630863,0.8850232700083325,-2.8381780727854675
1658789510908219,1.6784924086366573,0.7019150072480898,-1.6174563210497581
1658789510924219,2.7161058976118966,0.6408789196611906,-0.9460593575952316
1658789510940219,-1.3733119707026162,0.7629510948347615,-0.8239871824216607
1658789510956218,-3.2043945983061803,0.7629510948347615,-0.8239871824216607
1658789510972218,-1.0681315327688026,0.33569848172737693,-0.9460593575952316
1658789510988218,1.0681315327688026,0.09155413138023505,-0.33569848172737693
1658789511004218,-1.6784924086366573,-0.09155413138023505,-0.2746623941404778
1658789511020218,-2.4719615472647547,-0.213626306553806,-0.5798428320745188
1658789511036217,-0.45777065690094787,0.15259021896690683,-0.33569848172737693
1658789511052217,2.410925459678083,0.09155413138023505,-0.5188067444876197
1658789511068217,2.227817196917613,-0.03051804379333589,-1.0070954451819034
1658789511084228,-0.7629510948347615,-0.213626306553806,-1.739528496223329
1658789511100228,-0.2746623941404778,0.2746623941404778,-1.6174563210497581
1658789511116228,0.9460593575952316,0.15259021896690683,-1.4343480582895154
1658789511132228,2.105745021744042,0.2746623941404778,-0.9460593575952316
1658789511148227,-1.1291676203554744,0.213626306553806,-1.4953841458761872
1658789511164227,-2.227817196917613,0.7019150072480898,-2.04470893415737
1658789511180227,-1.1291676203554744,0.6408789196611906,-1.739528496223329
1658789511196227,2.288853284504512,0.8850232700083325,-1.2512397955290453
1658789511212226,-0.15259021896690683,1.1902037079423735,-1.3122758831159445
1658789511228226,-3.3264667734797513,0.7019150072480898,-1.8005645838102282
1658789511244226,-2.7161058976118966,0.5188067444876197,-1.8005645838102282
1658789511260226,2.7771419851987957,0.5188067444876197,-0.8850232700083325
1658789511276226,4.669260700389032,0.8239871824216607,-0.3967345693140487
1658789511292225,1.2512397955290453,0.7629510948347615,-0.9460593575952316
1658789511308225,-1.0070954451819034,0.5798428320745188,-1.6174563210497581
1658789511324225,0.5798428320745188,0.45777065690094787,-1.5564202334630863
1658789511340225,0.9460593575952316,0.5798428320745188,-1.6784924086366573
1658789511356225,-0.7629510948347615,0.8239871824216607,-2.3498893720911838
1658789511372224,-0.5188067444876197,1.1291676203554744,-2.7161058976118966
1658789511388224,1.1902037079423735,1.3122758831159445,-2.288853284504512
1658789511404235,2.410925459678083,1.3733119707026162,-1.6174563210497581
1658789511420235,1.3733119707026162,1.4953841458761872,-1.5564202334630863
1658789511436235,-0.3967345693140487,1.8616006713969,-1.6174563210497581
1658789511452235,-1.1291676203554744,1.739528496223329,-1.2512397955290453
1658789511468235,-0.03051804379333589,1.4953841458761872,-0.8850232700083325
1658789511484234,-0.09155413138023505,1.5564202334630863,-0.5798428320745188
1658789511500234,-0.5798428320745188,1.739528496223329,-0.7629510948347615
1658789511516234,-0.5188067444876197,1.6784924086366573,-0.7629510948347615
1658789511532234,2.166781109330941,1.6784924086366573,-0.213626306553806
1658789511548234,0.7019150072480898,1.4343480582895154,0.03051804379333589
1658789511564233,-2.4719615472647547,1.3122758831159445,-0.2746623941404778
1658789511580233,-5.096513313496644,0.8239871824216607,-0.8850232700083325
1658789511596233,-1.1291676203554744,0.5188067444876197,-1.0681315327688026
1658789511612233,2.166781109330941,0.8850232700083325,-0.45777065690094787
1658789511628233,-0.03051804379333589,0.9460593575952316,-0.45777065690094787
1658789511644232,-2.9602502479590385,0.8850232700083325,-1.1291676203554744
1658789511660232,-1.739528496223329,0.8239871824216607,-0.8239871824216607
1658789511676232,1.4953841458761872,0.5798428320745188,-0.09155413138023505
1658789511692232,0.7629510948347615,0.09155413138023505,0.33569848172737693
1658789511708232,-2.8992141603723667,-0.09155413138023505,0.03051804379333589
1658789511724212,-3.570611123826893,0.09155413138023505,-0.9460593575952316
1658789511740212,-2.04470893415737,0.33569848172737693,-1.4953841458761872
1658789511756212,-0.7019150072480898,0.3967345693140487,-1.4343480582895154
1658789511772212,-0.5798428320745188,0.6408789196611906,-1.1291676203554744
1658789511788211,-0.09155413138023505,0.2746623941404778,-1.2512397955290453
1658789511804211,0.33569848172737693,-0.15259021896690683,-1.0070954451819034
1658789511820211,1.1902037079423735,0.213626306553806,-1.3122758831159445
1658789511836211,-0.5798428320745188,1.1902037079423735,-2.227817196917613
1658789511852211,-1.4953841458761872,1.1902037079423735,-2.7161058976118966
1658789511868210,0.8239871824216607,1.2512397955290453,-2.227817196917613
1658789511884210,1.3733119707026162,1.2512397955290453,-1.3122758831159445
1658789511900210,-0.45777065690094787,1.0070954451819034,-1.1291676203554744
1658789511916210,-1.0681315327688026,1.2512397955290453,-1.0681315327688026
1658789511932210,0.7629510948347615,1.3122758831159445,-0.8850232700083325
1658789511948209,1.4343480582895154,1.1902037079423735,-0.5798428320745188
1658789511964209,-1.6784924086366573,1.3733119707026162,-0.5188067444876197
1658789511980209,-5.3406576638437855,1.9226367589837992,-0.7019150072480898
1658789511996209,-6.012054627298312,1.8005645838102282,-0.8850232700083325
1658789512012209,-1.5564202334630863,1.1291676203554744,-0.33569848172737693
1658789512028208,1.3122758831159445,0.5188067444876197,-0.213626306553806
1658789512044220,-1.4953841458761872,0.6408789196611906,0.03051804379333589
1658789512060219,-2.3498893720911838,0.3967345693140487,0.09155413138023505
1658789512076219,1.983672846570471,0.213626306553806,0.6408789196611906
1658789512092219,4.242008087281647,0.3967345693140487,0.9460593575952316
1658789512108219,-0.2746623941404778,0.5188067444876197,-0.45777065690094787
1658789512124219,-3.936827649347606,0.09155413138023505,-1.8005645838102282
1658789512140218,-2.227817196917613,0.2746623941404778,-1.3122758831159445
1658789512156218,1.3122758831159445,0.7629510948347615,-0.7019150072480898
1658789512172218,2.04470893415737,0.6408789196611906,-0.7019150072480898
1658789512188218,1.1291676203554744,0.45777065690094787,-1.4953841458761872
1658789512204218,-0.2746623941404778,0.15259021896690683,-2.4719615472647547
1658789512220217,-0.09155413138023505,-0.03051804379333589,-2.288853284504512
1658789512236217,0.5798428320745188,-0.09155413138023505,-1.4953841458761872
1658789512252217,2.410925459678083,0.33569848172737693,-0.8850232700083325
1658789512268217,-0.7629510948347615,0.7629510948347615,-1.1291676203554744
1658789512284217,-5.95101853971164,0.5188067444876197,-1.8005645838102282
1658789512300216,-5.401693751430457,-0.15259021896690683,-1.6174563210497581
1658789512316216,-0.7019150072480898,-0.45777065690094787,-0.9460593575952316
1658789512332216,2.166781109330941,0.09155413138023505,-0.15259021896690683
1658789512348216,-1.0681315327688026,0.5188067444876197,-0.33569848172737693
1658789512364196,-3.936827649347606,0.09155413138023505,-1.2512397955290453
1658789512380196,-1.8005645838102282,-0.213626306553806,-1.1291676203554744
1658789512396196,0.8850232700083325,0.213626306553806,-0.15259021896690683
1658789512412196,-0.8239871824216607,0.5798428320745188,0.09155413138023505
1658789512428196,-4.730296787975931,-0.2746623941404778,-0.3967345693140487
1658789512444195,-1.6174563210497581,-0.7629510948347615,-0.7629510948347615
1658789512460195,2.5940337224383256,-0.5188067444876197,-0.45777065690094787
1658789512476195,1.739528496223329,0.09155413138023505,-0.7629510948347615
1658789512492195,-0.09155413138023505,0.45777065690094787,-1.983672846570471
1658789512508195,1.4953841458761872,0.2746623941404778,-1.9226367589837992
1658789512524194,3.5095750362402214,0.03051804379333589,-1.6174563210497581
1658789512540194,-0.09155413138023505,0.03051804379333589,-1.8005645838102282
1658789512556194,-4.242008087281647,0.3967345693140487,-2.3498893720911838
1658789512572194,-3.6316472114137923,0.3967345693140487,-2.288853284504512
1658789512588194,1.6784924086366573,0.09155413138023505,-1.4343480582895154
1658789512604193,3.570611123826893,0.09155413138023505,-0.7019150072480898
1658789512620193,0.33569848172737693,0.5798428320745188,-1.1291676203554744
1658789512636193,-0.33569848172737693,1.0681315327688026,-2.04470893415737
1658789512652193,2.7161058976118966,0.8850232700083325,-2.532997634851654
1658789512668192,4.058899824521177,0.6408789196611906,-2.655069810025225
1658789512684204,0.03051804379333589,1.3122758831159445,-2.3498893720911838
1658789512700204,-3.570611123826893,1.8005645838102282,-2.166781109330941
1658789512716203,-1.3122758831159445,1.739528496223329,-1.8616006713969
1658789512732203,3.4485389486533222,1.3122758831159445,-1.0681315327688026
1658789512748203,3.936827649347606,1.1902037079423735,-0.7019150072480898
1658789512764203,0.2746623941404778,1.6174563210497581,0.15259021896690683
1658789512780202,-0.3967345693140487,1.3733119707026162,0.2746623941404778
1658789512796202,0.45777065690094787,1.0070954451819034,0.2746623941404778
1658789512812202,1.5564202334630863,0.8239871824216607,-0.09155413138023505
1658789512828202,0.2746623941404778,1.1291676203554744,-0.03051804379333589
1658789512844202,-1.1291676203554744,1.0681315327688026,0.2746623941404778
1658789512860201,0.213626306553806,1.0070954451819034,0.213626306553806
1658789512876201,1.2512397955290453,0.6408789196611906,-0.33569848172737693
1658789512892201,0.09155413138023505,0.45777065690094787,-0.2746623941404778
1658789512908201,-0.2746623941404778,0.5188067444876197,-0.03051804379333589
1658789512924201,0.03051804379333589,0.7629510948347615,-0.5188067444876197
1658789512940200,0.33569848172737693,0.6408789196611906,-1.0681315327688026
1658789512956200,1.6784924086366573,0.8850232700083325,-0.5188067444876197
1658789512972200,1.0681315327688026,1.5564202334630863,0.15259021896690683
1658789512988200,-1.8005645838102282,1.739528496223329,-0.03051804379333589
1658789513004181,-4.42511635004189,0.5798428320745188,-1.2512397955290453
1658789513020180,-1.4953841458761872,0.03051804379333589,-1.8005645838102282
1658789513036180,2.532997634851654,0.6408789196611906,-1.2512397955290453
1658789513052180,1.3122758831159445,1.2512397955290453,-1.1902037079423735
1658789513068180,0.15259021896690683,1.5564202334630863,-1.9226367589837992
1658789513084180,-0.09155413138023505,1.0681315327688026,-2.7161058976118966
1658789513100179,0.15259021896690683,0.9460593575952316,-3.2654306858930795
1658789513116179,-2.105745021744042,0.33569848172737693,-4.058899824521177
1658789513132179,-2.9602502479590385,0.213626306553806,-4.242008087281647
1658789513148179,0.6408789196611906,0.15259021896690683,-3.7537193865873633
1658789513164178,6.134126802471883,0.8239871824216607,-2.7161058976118966
1658789513180178,4.669260700389032,0.7019150072480898,-2.7161058976118966
1658789513196178,0.5798428320745188,0.7629510948347615,-3.2043945983061803
1658789513212178,-0.15259021896690683,0.7629510948347615,-2.7771419851987957
1658789513228178,2.04470893415737,0.45777065690094787,-1.983672846570471
1658789513244177,1.4953841458761872,0.33569848172737693,-1.739528496223329
1658789513260177,-0.6408789196611906,0.5188067444876197,-1.6784924086366573
1658789513276177,-1.9226367589837992,0.3967345693140487,-1.983672846570471
1658789513292177,-0.9460593575952316,0.33569848172737693,-1.8005645838102282
1658789513308177,1.8616006713969,0.7019150072480898,-0.6408789196611906
1658789513324188,3.0212863355459376,0.7019150072480898,-0.2746623941404778
1658789513340188,1.6784924086366573,0.7019150072480898,-0.213626306553806
1658789513356187,-0.9460593575952316,0.3967345693140487,-0.7019150072480898
1658789513372187,-1.5564202334630863,0.15259021896690683,-1.0681315327688026
1658789513388187,0.03051804379333589,0.5188067444876197,-0.7629510948347615
1658789513404187,0.7629510948347615,0.6408789196611906,-0.213626306553806
1658789513420187,0.7629510948347615,0.33569848172737693,0.3967345693140487
1658789513436186,0.45777065690094787,0.33569848172737693,0.6408789196611906
1658789513452186,-0.3967345693140487,0.09155413138023505,0.213626306553806
1658789513468186,-2.105745021744042,-0.213626306553806,-0.7019150072480898
1658789513484186,-1.0070954451819034,-0.03051804379333589,-0.7629510948347615
1658789513500186,2.410925459678083,0.5798428320745188,-0.213626306553806
1658789513516185,2.7771419851987957,1.1291676203554744,0.213626306553806
1658789513532185,-0.213626306553806,0.7019150072480898,-0.3967345693140487
1658789513548185,-0.7019150072480898,0.3967345693140487,-0.6408789196611906
1658789513564185,-0.15259021896690683,0.2746623941404778,-0.5798428320745188
1658789513580185,-0.15259021896690683,0.33569848172737693,-0.7629510948347615
1658789513596184,-1.0070954451819034,1.0070954451819034,-0.9460593575952316
1658789513612184,-0.3967345693140487,1.1902037079423735,-0.7019150072480898
1658789513628184,0.33569848172737693,0.6408789196611906,-0.7629510948347615
1658789513644165,0.8850232700083325,-0.2746623941404778,-1.3733119707026162
1658789513660164,-0.213626306553806,-0.09155413138023505,-1.8616006713969
1658789513676164,-0.7019150072480898,0.5188067444876197,-2.105745021744042
1658789513692164,3.7537193865873633,1.2512397955290453,-1.9226367589837992
1658789513708164,5.3406576638437855,1.0681315327688026,-2.3498893720911838
1658789513724164,1.3733119707026162,1.1902037079423735,-3.0212863355459376
1658789513740163,-2.166781109330941,1.0070954451819034,-3.3875028610666504
1658789513756163,-0.45777065690094787,1.1291676203554744,-3.2654306858930795
1658789513772163,1.8616006713969,1.1291676203554744,-2.8381780727854675
1658789513788163,2.410925459678083,1.3733119707026162,-2.7771419851987957
1658789513804163,-0.2746623941404778,1.3122758831159445,-2.4719615472647547
1658789513820162,-1.6174563210497581,1.0681315327688026,-2.166781109330941
1658789513836162,0.213626306553806,1.0070954451819034,-1.4953841458761872
1658789513852162,3.0823224231326094,1.2512397955290453,-0.8239871824216607
1658789513868162,1.3122758831159445,1.1291676203554744,-0.7019150072480898
1658789513884162,-0.7019150072480898,0.8850232700083325,-0.5188067444876197
1658789513900161,0.7019150072480898,1.0070954451819034,0.2746623941404778
1658789513916161,3.570611123826893,1.3122758831159445,1.4953841458761872
1658789513932161,2.410925459678083,1.5564202334630863,1.5564202334630863
1658789513948161,-1.4953841458761872,1.1291676203554744,0.3967345693140487
1658789513964172,-1.8616006713969,1.0070954451819034,-0.09155413138023505
1658789513980172,0.8850232700083325,1.1291676203554744,0.6408789196611906
1658789513996172,3.7537193865873633,1.9226367589837992,1.4953841458761872
1658789514012171,0.7019150072480898,1.739528496223329,0.8850232700083325
1658789514028171,-1.8005645838102282,0.9460593575952316,-0.5798428320745188
1658789514044171,-0.213626306553806,0.5798428320745188,-1.1902037079423735
1658789514060171,1.9226367589837992,0.5798428320745188,-1.0070954451819034
1658789514076171,1.5564202334630863,0.8850232700083325,-0.8239871824216607
1658789514092170,1.3122758831159445,0.5798428320745188,-1.3122758831159445
1658789514108170,1.4953841458761872,0.3967345693140487,-1.9226367589837992
1658789514124170,1.1902037079423735,0.2746623941404778,-2.8381780727854675
1658789514140170,0.15259021896690683,0.45777065690094787,-2.7161058976118966
1658789514156170,0.213626306553806,1.0070954451819034,-2.288853284504512
1658789514172169,1.983672846570471,1.1291676203554744,-2.105745021744042
1658789514188169,2.4719615472647547,0.7629510948347615,-1.9226367589837992
1658789514204169,1.8616006713969,0.45777065690094787,-2.227817196917613
1658789514220169,0.5188067444876197,0.33569848172737693,-2.410925459678083
1658789514236168,1.4343480582895154,0.7019150072480898,-2.105745021744042
1658789514252168,2.8992141603723667,0.8850232700083325,-1.5564202334630863
1658789514268168,3.2654306858930795,0.7019150072480898,-1.3122758831159445
1658789514284179,2.105745021744042,0.5188067444876197,-1.3733119707026162
1658789514300179,0.03051804379333589,1.1291676203554744,-1.6784924086366573
1658789514316179,-0.03051804379333589,1.0681315327688026,-2.227817196917613
1658789514332179,1.739528496223329,0.8850232700083325,-1.4953841458761872
1658789514348178,3.5095750362402214,1.0070954451819034,-1.0070954451819034
1658789514364178,1.1291676203554744,1.1902037079423735,-0.8850232700083325
1658789514380178,-2.288853284504512,1.0070954451819034,-0.9460593575952316
1658789514396178,-1.3733119707026162,0.45777065690094787,-0.8850232700083325
1658789514412178,1.8005645838102282,0.45777065690094787,0.03051804379333589
1658789514428177,1.4953841458761872,0.5798428320745188,0.8239871824216607
1658789514444177,-0.213626306553806,0.33569848172737693,1.0681315327688026
1658789514460177,-0.33569848172737693,0.5798428320745188,1.3122758831159445
1658789514476177,2.04470893415737,0.2746623941404778,1.1902037079423735
1658789514492177,2.105745021744042,0.213626306553806,1.1902037079423735
1658789514508176,-1.0070954451819034,-0.15259021896690683,0.7019150072480898
1658789514524176,-2.04470893415737,0.09155413138023505,0.09155413138023505
1658789514540176,-0.5188067444876197,0.5188067444876197,-0.03051804379333589
1658789514556176,0.6408789196611906,-0.03051804379333589,-0.6408789196611906
1658789514572176,-0.15259021896690683,-0.2746623941404778,-0.8239871824216607
1658789514588175,-1.3733119707026162,-0.2746623941404778,-1.6784924086366573
1658789514604156,0.15259021896690683,0.6408789196611906,-1.8616006713969
1658789514620156,2.5940337224383256,1.2512397955290453,-1.2512397955290453
1658789514636156,2.3498893720911838,1.0070954451819034,-0.9460593575952316
1658789514652156,-1.9226367589837992,0.45777065690094787,-1.1902037079423735
1658789514668155,-2.7771419851987957,0.5798428320745188,-1.0681315327688026
1658789514684155,-0.33569848172737693,0.6408789196611906,-1.1291676203554744
1658789514700155,1.0681315327688026,0.5188067444876197,-0.45777065690094787
1658789514716155,0.3967345693140487,0.213626306553806,-0.15259021896690683
1658789514732154,-0.213626306553806,-0.15259021896690683,-0.03051804379333589
1658789514748154,-0.5188067444876197,-0.15259021896690683,0.45777065690094787
1658789514764154,0.09155413138023505,-0.5188067444876197,0.33569848172737693
1658789514780154,3.2043945983061803,-0.5188067444876197,1.0070954451819034
1658789514796154,1.5564202334630863,-0.6408789196611906,1.4953841458761872
1658789514812153,-0.5798428320745188,-1.2512397955290453,0.7629510948347615
1658789514828153,0.213626306553806,-0.45777065690094787,0.45777065690094787
1658789514844153,2.166781109330941,0.09155413138023505,0.2746623941404778
1658789514860153,2.5940337224383256,0.7019150072480898,-0.213626306553806
1658789514876153,-0.7019150072480898,0.5798428320745188,-1.1902037079423735
1658789514892152,-2.3498893720911838,0.5188067444876197,-1.5564202334630863
1658789514908152,-0.3967345693140487,0.8239871824216607,-1.1902037079423735
1658789514924163,1.983672846570471,1.0681315327688026,-0.9460593575952316
1658789514940163,0.8239871824216607,0.33569848172737693,-1.2512397955290453
1658789514956163,-0.7019150072480898,-0.33569848172737693,-1.3122758831159445
1658789514972163,0.09155413138023505,-0.213626306553806,-0.8850232700083325
1658789514988163,1.6174563210497581,0.09155413138023505,-0.6408789196611906
1658789515004162,0.6408789196611906,-0.03051804379333589,-1.6784924086366573
1658789515020162,-1.739528496223329,-0.33569848172737693,-2.410925459678083
1658789515036162,-1.8005645838102282,-0.2746623941404778,-2.105745021744042
1658789515052162,-0.5188067444876197,0.2746623941404778,-2.105745021744042
1658789515068162,1.3122758831159445,0.33569848172737693,-1.9226367589837992
1658789515084161,2.166781109330941,-0.15259021896690683,-1.5564202334630863
1658789515100161,1.739528496223329,-0.15259021896690683,-1.0681315327688026
1658789515116161,-0.213626306553806,-0.2746623941404778,-1.3122758831159445
1658789515132161,-0.03051804379333589,0.03051804379333589,-1.3122758831159445
1658789515148161,2.288853284504512,0.2746623941404778,-1.1291676203554744
1658789515164160,3.2043945983061803,0.5188067444876197,-0.8239871824216607
1658789515180160,0.3967345693140487,0.6408789196611906,-0.9460593575952316
1658789515196160,-0.6408789196611906,0.5798428320745188,-1.3733119707026162
1658789515212160,-0.09155413138023505,0.45777065690094787,-1.6174563210497581
1658789515228160,2.04470893415737,0.5188067444876197,-1.739528496223329
1658789515244140,1.2512397955290453,0.5188067444876197,-2.04470893415737
1658789515260140,0.03051804379333589,0.5798428320745188,-1.3733119707026162
1658789515276140,0.45777065690094787,0.3967345693140487,-0.33569848172737693
1658789515292140,1.2512397955290453,0.45777065690094787,-0.15259021896690683
1658789515308139,0.213626306553806,0.45777065690094787,-0.15259021896690683
1658789515324139,0.3967345693140487,0.09155413138023505,-0.7019150072480898
1658789515340139,0.5188067444876197,-0.15259021896690683,-1.0070954451819034
1658789515356139,1.1902037079423735,-0.213626306553806,-0.8239871824216607
1658789515372139,1.9226367589837992,0.33569848172737693,-0.9460593575952316
1658789515388138,2.166781109330941,0.7629510948347615,-1.2512397955290453
1658789515404138,0.6408789196611906,0.6408789196611906,-1.739528496223329
1658789515420138,-0.03051804379333589,0.45777065690094787,-1.6784924086366573
1658789515436138,-0.33569848172737693,0.15259021896690683,-1.1291676203554744
1658789515452138,0.213626306553806,-0.03051804379333589,-0.8239871824216607
1658789515468137,-1.3122758831159445,-0.15259021896690683,-0.7629510948347615
1658789515484137,-0.5798428320745188,-0.09155413138023505,-1.1291676203554744
1658789515500137,1.739528496223329,0.2746623941404778,-0.8850232700083325
1658789515516137,1.739528496223329,0.45777065690094787,-1.1902037079423735
1658789515532137,-0.09155413138023505,0.45777065690094787,-1.4343480582895154
1658789515548136,-0.5188067444876197,0.2746623941404778,-1.6784924086366573
1658789515564148,1.0070954451819034,0.9460593575952316,-1.4343480582895154
1658789515580147,1.8005645838102282,0.7629510948347615,-1.3733119707026162
1658789515596147,0.7629510948347615,0.5188067444876197,-1.3733119707026162
1658789515612147,-0.9460593575952316,-0.213626306553806,-1.3122758831159445
1658789515628147,-0.213626306553806,-0.15259021896690683,-0.5188067444876197
1658789515644147,2.105745021744042,0.09155413138023505,0.2746623941404778
1658789515660146,1.983672846570471,0.15259021896690683,0.09155413138023505
1658789515676146,-0.09155413138023505,-0.03051804379333589,-0.7019150072480898
1658789515692146,-0.5188067444876197,-0.03051804379333589,-1.1902037079423735
1658789515708146,1.2512397955290453,0.45777065690094787,-1.0681315327688026
1658789515724146,1.8616006713969,0.6408789196611906,-0.7629510948347615
1658789515740145,2.166781109330941,0.3967345693140487,-0.7019150072480898
1658789515756145,2.7161058976118966,0.2746623941404778,-0.2746623941404778
1658789515772145,1.739528496223329,0.09155413138023505,-0.09155413138023505
1658789515788145,0.33569848172737693,0.09155413138023505,-0.03051804379333589
1658789515804144,-0.5798428320745188,-0.2746623941404778,-0.33569848172737693
1658789515820144,2.105745021744042,-0.09155413138023505,-0.15259021896690683
1658789515836144,3.3875028610666504,0.3967345693140487,0.213626306553806
1658789515852144,1.4343480582895154,0.5798428320745188,-0.3967345693140487
1658789515868144,-0.45777065690094787,0.5798428320745188,-1.1902037079423735
1658789515884124,0.7019150072480898,0.33569848172737693,-1.4953841458761872
1658789515900124,1.0070954451819034,0.3967345693140487,-1.1291676203554744
1658789515916124,-0.6408789196611906,0.45777065690094787,-1.1902037079423735
1658789515932124,-0.8850232700083325,0.2746623941404778,-1.3122758831159445
1658789515948124,2.655069810025225,0.33569848172737693,-0.7629510948347615
1658789515964123,4.9134050507361735,0.2746623941404778,-0.45777065690094787
1658789515980123,2.7771419851987957,0.5798428320745188,-0.33569848172737693
1658789515996123,-1.0681315327688026,0.5798428320745188,-0.8239871824216607
1658789516012123,-0.6408789196611906,0.15259021896690683,-0.9460593575952316
1658789516028123,2.4719615472647547,0.15259021896690683,-0.7019150072480898
1658789516044122,1.3122758831159445,0.213626306553806,-0.7629510948347615
1658789516060122,-1.983672846570471,0.213626306553806,-1.0681315327688026
1658789516076122,-2.166781109330941,0.15259021896690683,-1.4953841458761872
1658789516092122,0.9460593575952316,0.2746623941404778,-1.5564202334630863
1658789516108121,4.119935912108076,0.7019150072480898,-1.3733119707026162
1658789516124121,1.2512397955290453,0.7019150072480898,-2.04470893415737
1658789516140121,0.03051804379333589,0.2746623941404778,-2.532997634851654
1658789516156121,1.4343480582895154,0.2746623941404778,-2.105745021744042
1658789516172121,3.1433585107195086,0.33569848172737693,-1.4953841458761872
1658789516188120,1.1902037079423735,0.45777065690094787,-1.8005645838102282
1658789516204132,-1.2512397955290453,0.2746623941404778,-2.04470893415737
1658789516220131,-1.3733119707026162,0.15259021896690683,-1.2512397955290453
1658789516236131,1.739528496223329,0.45777065690094787,-0.2746623941404778
1658789516252131,0.9460593575952316,1.1291676203554744,-0.5188067444876197
1658789516268131,-1.3122758831159445,1.0070954451819034,-0.8850232700083325
1658789516284131,-0.5798428320745188,0.6408789196611906,-1.2512397955290453
1658789516300130,1.6174563210497581,0.5798428320745188,-1.0681315327688026
1658789516316130,0.8850232700083325,0.8850232700083325,-0.2746623941404778
1658789516332130,-0.7019150072480898,1.3122758831159445,-0.3967345693140487
1658789516348130,-0.3967345693140487,1.1291676203554744,-0.8239871824216607
1658789516364130,1.2512397955290453,0.6408789196611906,-0.5798428320745188
1658789516380129,2.227817196917613,0.45777065690094787,-0.45777065690094787
1658789516396129,0.8239871824216607,0.5798428320745188,-0.9460593575952316
1658789516412129,-1.6174563210497581,0.5188067444876197,-1.6174563210497581
1658789516428129,-0.8850232700083325,0.213626306553806,-1.983672846570471
1658789516444129,1.9226367589837992,0.33569848172737693,-1.4343480582895154
1658789516460128,2.105745021744042,1.3122758831159445,-1.0681315327688026
1658789516476128,-0.5188067444876197,1.4953841458761872,-2.105745021744042
1658789516492128,-2.105745021744042,1.2512397955290453,-2.410925459678083
1658789516508128,-0.9460593575952316,0.8850232700083325,-1.8616006713969
1658789516524109,0.213626306553806,1.3733119707026162,-1.2512397955290453
1658789516540108,-0.5188067444876197,1.3122758831159445,-1.2512397955290453
1658789516556108,-1.0070954451819034,0.9460593575952316,-1.6784924086366573
1658789516572108,0.5188067444876197,0.6408789196611906,-1.9226367589837992
1658789516588108,1.0070954451819034,0.7629510948347615,-1.2512397955290453
1658789516604107,-0.213626306553806,0.6408789196611906,-1.3122758831159445
1658789516620107,-0.5188067444876197,0.45777065690094787,-1.4343480582895154
1658789516636107,1.0681315327688026,0.09155413138023505,-0.8850232700083325
1658789516652107,2.8992141603723667,0.2746623941404778,-0.213626306553806
1658789516668107,1.2512397955290453,0.15259021896690683,-0.15259021896690683
1658789516684106,-0.2746623941404778,0.09155413138023505,-0.8239871824216607
1658789516700106,-0.2746623941404778,0.5798428320745188,-1.1291676203554744
1658789516716106,1.3733119707026162,0.7629510948347615,-1.5564202334630863
1658789516732106,1.2512397955290453,1.2512397955290453,-1.9226367589837992
1658789516748106,-0.45777065690094787,0.7629510948347615,-2.166781109330941
1658789516764105,-0.03051804379333589,0.6408789196611906,-2.410925459678083
1658789516780105,1.0070954451819034,0.33569848172737693,-2.288853284504512
1658789516796105,3.1433585107195086,0.9460593575952316,-1.9226367589837992
1658789516812105,1.4343480582895154,1.0070954451819034,-1.9226367589837992
1658789516828105,-1.1291676203554744,0.2746623941404778,-2.288853284504512
1658789516844116,-0.6408789196611906,0.2746623941404778,-2.105745021744042
1658789516860116,0.3967345693140487,0.8850232700083325,-1.4953841458761872
1658789516876115,0.2746623941404778,1.0070954451819034,-1.2512397955290453
1658789516892115,0.213626306553806,0.5188067444876197,-1.3122758831159445
1658789516908115,-0.45777065690094787,-0.213626306553806,-1.3122758831159445
1658789516924115,0.8850232700083325,-0.3967345693140487,-0.6408789196611906
1658789516940115,2.105745021744042,0.15259021896690683,-0.5188067444876197
1658789516956114,0.6408789196611906,0.3967345693140487,-1.2512397955290453
1658789516972114,-0.7019150072480898,0.09155413138023505,-1.1902037079423735
1658789516988114,2.655069810025225,-0.03051804379333589,-0.6408789196611906
1658789517004114,3.7537193865873633,0.7019150072480898,-0.2746623941404778
1658789517020114,-0.3967345693140487,0.7019150072480898,-1.6784924086366573
1658789517036113,-2.04470893415737,0.33569848172737693,-2.7161058976118966
1658789517052113,0.8850232700083325,-0.2746623941404778,-2.105745021744042
1658789517068113,3.2043945983061803,0.213626306553806,-1.1291676203554744
1658789517084113,1.2512397955290453,0.7629510948347615,-1.1291676203554744
1658789517100113,-1.4343480582895154,0.5188067444876197,-2.288853284504512
1658789517116112,-0.2746623941404778,0.45777065690094787,-2.04470893415737
1658789517132112,1.4343480582895154,0.45777065690094787,-1.2512397955290453
1658789517148112,0.2746623941404778,0.5188067444876197,-0.9460593575952316
1658789517164123,-0.5798428320745188,0.09155413138023505,-1.0681315327688026
1658789517180123,-0.15259021896690683,0.03051804379333589,-0.5188067444876197
1658789517196123,0.8239871824216607,0.09155413138023505,-0.7629510948347615
1658789517212123,0.3967345693140487,0.45777065690094787,-0.8850232700083325
1658789517228122,0.8850232700083325,0.7629510948347615,-0.15259021896690683
1658789517244122,1.0681315327688026,1.3122758831159445,0.03051804379333589
1658789517260122,-1.8616006713969,0.9460593575952316,-0.2746623941404778
1658789517276122,-2.166781109330941,0.5798428320745188,-0.5798428320745188
1658789517292122,0.5798428320745188,0.7629510948347615,-0.33569848172737693
1658789517308121,1.8616006713969,0.9460593575952316,0.09155413138023505
1658789517324121,-0.03051804379333589,0.7629510948347615,-0.6408789196611906
1658789517340121,-1.3733119707026162,0.45777065690094787,-1.0681315327688026
1658789517356121,0.3967345693140487,0.3967345693140487,-1.0070954451819034
1658789517372120,2.04470893415737,1.0681315327688026,-0.8239871824216607
1658789517388120,1.5564202334630863,1.4953841458761872,-1.6174563210497581
1658789517404120,-1.0681315327688026,1.0070954451819034,-2.166781109330941
1658789517420120,-1.0070954451819034,0.2746623941404778,-2.3498893720911838
1658789517436120,1.0681315327688026,0.33569848172737693,-1.8616006713969
1658789517452119,0.15259021896690683,0.9460593575952316,-1.6784924086366573
1658789517468119,-0.6408789196611906,0.45777065690094787,-2.5940337224383256
1658789517484100,1.8616006713969,0.03051804379333589,-2.166781109330941
1658789517500100,2.8992141603723667,0.03051804379333589,-1.3733119707026162
1658789517516100,0.7629510948347615,0.3967345693140487,-0.7019150072480898
1658789517532099,-0.15259021896690683,0.33569848172737693,-0.5188067444876197
1658789517548099,-0.45777065690094787,0.213626306553806,-0.5188067444876197
1658789517564099,1.6174563210497581,0.45777065690094787,-0.15259021896690683
1658789517580099,-0.33569848172737693,0.45777065690094787,-0.03051804379333589
1658789517596099,-1.0070954451819034,-0.09155413138023505,-0.5188067444876197
1658789517612098,0.6408789196611906,0.09155413138023505,-0.3967345693140487
1658789517628098,2.655069810025225,0.33569848172737693,-0.3967345693140487
1658789517644098,2.655069810025225,1.0681315327688026,-0.7629510948347615
1658789517660098,-0.09155413138023505,1.0681315327688026,-1.0681315327688026
1658789517676097,-0.5798428320745188,0.6408789196611906,-1.1291676203554744
1658789517692097,0.8239871824216607,0.6408789196611906,-1.2512397955290453
1658789517708097,1.2512397955290453,0.7019150072480898,-1.0681315327688026
1658789517724097,-0.5188067444876197,0.5798428320745188,-1.983672846570471
1658789517740097,-1.6174563210497581,0.5188067444876197,-2.8381780727854675
1658789517756096,1.1902037079423735,0.8850232700083325,-2.7771419851987957
1658789517772096,3.4485389486533222,1.1291676203554744,-2.166781109330941
1658789517788096,3.2043945983061803,1.3122758831159445,-2.105745021744042
1658789517804107,-0.8239871824216607,1.0681315327688026,-2.9602502479590385
1658789517820107,-2.7161058976118966,0.5188067444876197,-3.3875028610666504
1658789517836107,0.6408789196611906,0.8850232700083325,-2.9602502479590385
1658789517852107,3.6316472114137923,1.6174563210497581,-2.532997634851654
1658789517868106,2.8381780727854675,1.8616006713969,-2.532997634851654
1658789517884106,0.3967345693140487,1.5564202334630863,-2.8992141603723667
1658789517900106,-0.213626306553806,1.4343480582895154,-3.2654306858930795
1658789517916106,-0.6408789196611906,1.4953841458761872,-3.3875028610666504
1658789517932106,1.3733119707026162,1.6784924086366573,-3.3875028610666504
1658789517948105,1.0070954451819034,1.9226367589837992,-3.2043945983061803
1658789517964105,-0.03051804379333589,1.4343480582895154,-2.7161058976118966
1658789517980105,0.45777065690094787,1.4343480582895154,-1.3122758831159445
1658789517996105,2.8992141603723667,1.4343480582895154,-0.45777065690094787
1658789518012105,2.3498893720911838,1.1902037079423735,-0.03051804379333589
1658789518028104,-0.3967345693140487,0.5798428320745188,-0.03051804379333589
1658789518044104,-2.655069810025225,0.15259021896690683,0.2746623941404778
1658789518060104,0.03051804379333589,0.213626306553806,0.7629510948347615
1658789518076104,2.8992141603723667,0.45777065690094787,0.7629510948347615
1658789518092104,1.983672846570471,0.5188067444876197,1.1902037079423735
1658789518108103,0.5798428320745188,0.8239871824216607,1.3122758831159445
1658789518124084,-0.8239871824216607,0.3967345693140487,1.3122758831159445
1658789518140084,-0.8850232700083325,-0.5188067444876197,0.3967345693140487
1658789518156084,-0.15259021896690683,-0.213626306553806,-0.8239871824216607
1658789518172083,-0.33569848172737693,0.9460593575952316,-0.7019150072480898
1658789518188083,0.213626306553806,1.0070954451819034,-0.3967345693140487
1658789518204083,1.3733119707026162,0.8850232700083325,-0.213626306553806
1658789518220083,-0.8239871824216607,0.3967345693140487,-0.7019150072480898
1658789518236083,-1.4953841458761872,0.45777065690094787,-0.7629510948347615
1658789518252082,-0.33569848172737693,1.0070954451819034,-0.09155413138023505
1658789518268082,0.3967345693140487,1.0070954451819034,-0.8239871824216607
1658789518284082,-1.1902037079423735,0.45777065690094787,-0.9460593575952316
1658789518300082,-0.33569848172737693,0.45777065690094787,-0.7629510948347615
1658789518316082,-0.03051804379333589,1.0681315327688026,-0.45777065690094787
1658789518332081,0.7019150072480898,0.7629510948347615,-0.33569848172737693
1658789518348081,2.410925459678083,0.33569848172737693,0.03051804379333589
1658789518364081,3.3875028610666504,0.213626306553806,0.5798428320745188
1658789518380081,1.4953841458761872,0.6408789196611906,0.7019150072480898
1658789518396081,-1.4343480582895154,0.2746623941404778,0.09155413138023505
1658789518412080,-1.8005645838102282,-0.03051804379333589,-0.45777065690094787
1658789518428080,0.7019150072480898,0.2746623941404778,-0.3967345693140487
1658789518444091,0.2746623941404778,0.33569848172737693,-0.45777065690094787
1658789518460091,0.5188067444876197,0.3967345693140487,-0.3967345693140487
1658789518476091,0.9460593575952316,0.5798428320745188,-0.33569848172737693
1658789518492091,-0.2746623941404778,0.5798428320745188,-1.0070954451819034
1658789518508091,-0.7019150072480898,0.45777065690094787,-0.8850232700083325
1658789518524090,0.8850232700083325,0.45777065690094787,-1.0681315327688026
1658789518540090,1.1291676203554744,0.9460593575952316,-1.4343480582895154
1658789518556090,0.03051804379333589,0.6408789196611906,-2.166781109330941
1658789518572090,1.0070954451819034,0.45777065690094787,-1.4343480582895154
1658789518588090,1.983672846570471,0.15259021896690683,-0.6408789196611906
1658789518604089,0.33569848172737693,-0.03051804379333589,-0.09155413138023505
1658789518620089,-0.213626306553806,-0.15259021896690683,-0.03051804379333589
1658789518636089,2.04470893415737,-0.213626306553806,0.213626306553806
1658789518652089,2.166781109330941,-0.09155413138023505,0.9460593575952316
1658789518668089,-0.2746623941404778,-0.213626306553806,1.0070954451819034
1658789518684088,-1.3733119707026162,-0.3967345693140487,0.6408789196611906
1658789518700088,0.3967345693140487,-0.2746623941404778,0.6408789196611906
1658789518716088,1.739528496223329,-0.3967345693140487,0.5188067444876197
1658789518732088,-0.33569848172737693,-0.5188067444876197,0.5188067444876197
1658789518748088,-1.739528496223329,-0.3967345693140487,0.7629510948347615
1658789518764068,0.6408789196611906,-0.2746623941404778,0.7629510948347615
1658789518780068,1.4343480582895154,-0.03051804379333589,0.9460593575952316
1658789518796068,-0.7629510948347615,-0.2746623941404778,0.2746623941404778
1658789518812068,-1.0070954451819034,-0.7629510948347615,-0.03051804379333589
1658789518828067,1.8005645838102282,-0.5798428320745188,0.7019150072480898
1658789518844067,2.5940337224383256,-0.213626306553806,0.8239871824216607
1658789518860067,0.5798428320745188,-0.09155413138023505,-0.45777065690094787
1658789518876067,-1.4343480582895154,-0.33569848172737693,-1.1902037079423735
1658789518892067,-0.45777065690094787,-0.45777065690094787,-1.8616006713969
1658789518908066,0.5188067444876197,-0.09155413138023505,-2.166781109330941
1658789518924066,0.3967345693140487,0.15259021896690683,-2.5940337224383256
1658789518940066,0.6408789196611906,0.6408789196611906,-3.2043945983061803
1658789518956066,1.6784924086366573,0.45777065690094787,-2.8992141603723667
1658789518972066,3.814755474174035,1.1291676203554744,-1.4343480582895154
1658789518988065,4.852368963149502,3.3264667734797513,0.33569848172737693
1658789519004065,0.8850232700083325,5.95101853971164,0.03051804379333589
1658789519020065,-3.936827649347606,7.4158846417944915,1.1902037079423735
1658789519036065,3.3875028610666504,6.805523765926637,6.378271152819025
1658789519052065,9.613183794918768,4.303044174868319,12.603952086671143
1658789519068064,12.298771648737329,5.096513313496644,22.003509575036105
1658789519084076,9.002822919050914,5.76791027695117,30.60959792477297
1658789519100075,1.8005645838102282,5.706874189364498,38.42221713588151
1658789519116075,0.8239871824216607,3.936827649347606,47.638666361486
1658789519132075,6.256198977645454,5.584802014190927,60.33417257953761
1658789519148075,4.852368963149502,8.819714656290444,72.23620965896089
1658789519164075,-7.11070420386045,11.444266422522333,82.61234454871465
1658789519180074,-12.23773556115043,12.603952086671143,93.11055161364175
1658789519196074,-6.378271152819025,15.045395590142562,104.52429999237074
1658789519212074,-10.284580758373295,18.280308232242305,115.08354314488452
1658789519228074,-23.041123064011572,21.210040436408008,123.38445105668734
1658789519244073,-20.11139085984587,25.543602655069662,131.99053940642398
1658789519260073,-5.706874189364498,27.86297398336751,140.16937514305346
1658789519276073,-2.7161058976118966,30.4264896620125,149.93514915693913
1658789519292073,-11.383230334935433,32.257572289616064,156.3439383535515
1658789519308073,-13.519493400473038,30.792706187533213,160.55542839703958
1658789519324072,-0.7019150072480898,30.060273136491787,165.74349584191623
1658789519340072,4.242008087281647,32.86793316548392,168.8563363088424
1658789519356072,-7.049668116273779,34.33279926756677,165.25520714122194
1658789519372072,-23.590447852292527,33.905546654459386,162.996871900511
1658789519388072,-24.200808728160382,32.62378881513678,160.92164492256052
1658789519404083,-22.552834363317288,31.64721141374821,159.88403143358482
1658789519420083,-32.867933165484146,31.586175326161538,155.24528877698913
1658789519436082,-46.84519722285813,29.571984435797503,148.10406652933534
1658789519452082,-54.29159990844596,29.14473182269012,146.1509117265582
1658789519468082,-49.713893339436936,27.435721370260126,143.16014343480583
1658789519484082,-45.25825894560171,23.529411764705856,138.277256427863
1658789519500082,-46.41794460975052,22.064545662623004,134.37094682230872
1658789519516081,-53.98641947051192,19.562066071564686,125.64278629739829
1658789519532081,-54.5357442587931,14.740215152208748,117.09773403524832
1658789519548081,-36.89631494621199,13.45845731288614,114.10696574349595
1658789519564081,-21.45418478675515,18.097199969481835,111.42137788967739
1658789519580081,-27.313649195086555,22.919050888838,103.18150606546124
1658789519596080,-43.305104142824575,22.552834363317288,90.54703593499653
1658789519612080,-39.45983062485698,18.036163881895163,79.86572060730941
1658789519628080,-11.261158159761862,19.501029983978015,79.86572060730941
1658789519644080,0.213626306553806,30.60959792477297,85.42000457770655
1658789519660080,-5.0354772259097444,36.65217059586462,81.08644235904512
1658789519676079,-6.195162890058782,32.62378881513678,74.00625619897801
1658789519692079,-1.739528496223329,27.86297398336751,71.32066834515945
1658789519708079,-8.33142595559616,27.61882963302037,72.90760662241564
1658789519724060,-23.346303501945386,29.449912260623933,73.88418402380421
1658789519740059,-30.60959792477297,28.900587472342977,74.43350881208517
1658789519756059,-25.543602655069662,27.130540932326085,72.6634622720685
1658789519772059,-12.23773556115043,22.980086976424673,66.62088960097662
1658789519788059,-6.378271152819025,21.942473487449433,62.28732738231474
1658789519804059,-17.24269474326684,21.45418478675515,59.05241474021477
1658789519820058,-22.8580148012511,14.862287327382319,53.19295033188337
1658789519836058,-9.308003356984727,8.45349813076973,48.43213550011433
1658789519852058,-5.2185854886702145,13.946746013580423,42.938887617303635
1658789519868058,-20.904859998473967,14.129854276340893,28.717479209582507
1658789519884058,-31.036850537880355,3.3875028610666504,11.505302510109004
1658789519900057,-15.838864728770886,-1.8616006713969,3.6316472114137923
1658789519916057,4.60822461280236,-0.33569848172737693,0.5188067444876197
1658789519932057,7.782101167315204,0.3967345693140487,-8.209353780422589
1658789519948057,6.500343327992596,-1.1902037079423735,-17.54787518120088
1658789519964057,11.688410772869474,-7.232776379034021,-27.252613107499656
1658789519980056,19.867246509498727,-15.533684290836845,-37.56771190966674
1658789519996056,22.49179827573039,-23.83459220263967,-49.22560463874265
1658789520012056,22.980086976424673,-30.4264896620125,-61.615930418860216
1658789520028056,31.586175326161538,-34.57694361791414,-70.22201876859685
1658789520044067,46.723125047684334,-38.66636148622888,-73.3958953231097
1658789520060067,66.31570916304281,-40.80262455176626,-74.3114366369116
1658789520076067,74.86076142519278,-43.244068055237676,-77.42427710383754
1658789520092066,74.31143663691182,-49.469748989089794,-81.39162279697871
1658789520108066,69.67269398031613,-57.09925993743809,-83.28374151216894
1658789520124066,63.81322957198472,-60.33417257953761,-84.56549935149155
1658789520140066,52.15533684290813,-60.63935301747165,-87.12901503013654
1658789520156066,35.248340581368666,-62.592507820248784,-95.3688868543527
1658789520172065,26.459143968871558,-63.935301747158064,-104.70740825513099
1658789520188065,28.717479209582507,-63.14183260852974,-108.30853742275121
1658789520204065,41.10780498970007,-57.22133211261166,-103.18150606546124
1658789520220065,41.90127412832817,-52.94880598153668,-99.2141603723203
1658789520236065,42.69474326695649,-53.98641947051192,-100.92317082475029
1658789520252064,38.11703669794747,-56.366826886396666,-105.43984130617241
1658789520268064,34.69901579308748,-57.64858472571905,-107.27092393377598
1658789520284064,45.74654764629577,-53.00984206912335,-99.1531242847334
1658789520300064,48.004882887006715,-47.333485923552416,-89.14320592050035
1658789520316064,33.11207751583106,-49.95803768978408,-92.19501029983962
1658789520332063,8.51453421835663,-54.901960784313815,-99.1531242847334
1658789520348063,0.2746623941404778,-57.526512550545476,-102.02182040131243
1658789520364044,7.476920729381163,-50.38529030289169,-96.52857251850173
1658789520380044,10.89494163424115,-40.86366063935316,-90.42496375982296
1658789520396043,7.598992904554734,-39.276722362096734,-94.27023727779056
1658789520412043,9.124895094224485,-40.86366063935316,-101.16731517509743
1658789520428043,11.932555123216616,-42.57267109178315,-101.16731517509743
1658789520444043,18.097199969481835,-37.56771190966674,-94.39230945296413
1658789520460043,18.58548867017612,-29.571984435797503,-92.62226291294724
1658789520476042,19.378957808804444,-29.633020523384403,-99.5193408102541
1658789520492042,25.726710917830133,-31.708247501335336,-102.51010910200671
1658789520508042,26.6422522316318,-28.717479209582507,-99.580376897841
1658789520524042,21.45418478675515,-24.07873655298681,-98.17654688334483
1658789520540042,18.89066910811016,-19.501029983978015,-97.62722209506387
1658789520556041,13.824673838406852,-14.92332341496899,-94.75852597848484
1658789520572041,7.843137254901876,-12.115663385976859,-91.95086594949248
1658789520588041,3.4485389486533222,-10.833905546654478,-89.99771114671535
1658789520604041,-1.1291676203554744,-10.711833371480907,-89.63149462119463
1658789520620041,-8.941786831464015,-10.772869459067579,-88.5938811322194
1658789520636040,-10.711833371480907,-9.979400320439481,-84.87067978942537
1658789520652040,2.410925459678083,-9.002822919050914,-78.88914320592039
1658789520668040,15.533684290836845,-7.2938124666209205,-75.65423056382087
1658789520684051,20.11139085984587,-6.195162890058782,-74.98283360036612
1658789520700051,9.063859006637585,-2.8381780727854675,-70.71030746929114
1658789520716051,-6.012054627298312,1.9226367589837992,-70.58823529411757
1658789520732051,-4.730296787975931,5.157549401083315,-72.05310139620042
1658789520748050,13.64156557564661,7.721065079728305,-65.0339513237202
1658789520764050,19.317921721217544,11.627374685282575,-51.6060120546274
1658789520780050,1.6784924086366573,14.251926451514464,-41.901274128328396
1658789520796050,-10.650797283894008,15.899900816357558,-32.928969253071045
1658789520812049,-2.288853284504512,16.26611734187827,-17.730983443961122
1658789520828049,3.4485389486533222,18.280308232242305,0.5798428320745188
1658789520844049,-15.716792553597315,19.684138246738257,14.129854276340893
1658789520860049,-34.271763179980326,19.501029983978015,26.214999618524416
1658789520876049,-24.26184481574728,20.477607385366582,43.12199588006388
1658789520892048,-11.505302510109004,23.651483939879427,58.80827038986763
1658789520908048,-26.153963530937517,26.214999618524416,69.7337300679028
1658789520924048,-44.8310063324941,26.886396581978943,79.25535973144133
1658789520940048,-39.337758449683406,27.435721370260126,89.08216983291368
1658789520956048,-22.919050888838,29.633020523384403,100.86213473716361
1658789520972047,-24.26184481574728,32.62378881513678,109.52925917448692
1658789520988047,-37.01838712138556,34.57694361791391,115.81597619592594
1658789521004028,-36.835278858625315,35.91973754482319,123.26237888151354
1658789521020028,-26.153963530937517,37.87289234760033,129.42702372777921
1658789521036028,-28.412298771648693,40.497444113832216,133.02815289539922
1658789521052027,-42.38956282902268,43.9154650186922,134.37094682230872
1658789521068027,-44.8310063324941,47.21141374837862,135.53063248645776
1658789521084027,-31.525139238574866,48.126955062180514,140.35248340581347
1658789521100027,-21.881437399862534,48.126955062180514,146.21194781414488
1658789521116027,-32.25757228961629,49.10353246356908,148.47028305485628
1658789521132026,-52.58258945601597,47.02830548561815,147.18852521553345
1658789521148026,-59.60173952849618,41.474021515220784,145.29640650034344
1658789521164026,-42.69474326695672,36.53009842069105,145.8457312886244
1658789521180026,-36.713206683451745,36.163881895170334,149.2027161058977
1658789521196025,-46.23483634699028,35.248340581368666,143.03807125963203
1658789521212025,-56.61097123674381,31.95239185168225,131.07499809262208
1658789521228025,-42.084382391088866,25.787747005416804,119.4171053635464
1658789521244025,-25.48256656748299,22.186617837796575,115.51079575799213
1658789521260025,-20.843823910887295,27.557793545433697,114.22903791866929
1658789521276024,-27.92401007095441,31.158922713053926,107.57610437170979
1658789521292024,-20.843823910887295,30.670634012359642,96.22339208056792
1658789521308024,-10.528725108720437,30.4875257495994,88.47180895704605
1658789521324035,-19.9893186846723,28.229190508888223,81.45265888456561
1658789521340035,-44.95307850766767,29.38887617303726,76.81391622796991
1658789521356035,-52.216372930495254,31.219958800640825,73.82314793621754
1658789521372035,-31.830319676508907,34.76005188067438,74.92179751277945
1658789521388034,-16.632333867398984,36.65217059586462,75.77630273899467
1658789521404034,-25.787747005416804,35.004196231021524,71.7479209582666
1658789521420034,-32.13550011444272,30.975814450293683,66.49881742580328
1658789521436034,-19.439993896391115,29.26680399786369,66.74296177615042
1658789521452034,-2.04470893415737,32.99000534065749,69.06233310444804
1658789521468033,2.410925459678083,31.76928358892178,66.43778133821661
1658789521484033,-0.15259021896690683,28.473334859235365,62.165255207140945
1658789521500033,-5.157549401083315,25.726710917830133,60.27313649195048
1658789521516033,-14.068818188753994,24.383916990920852,59.845883878843324
1658789521532033,-15.716792553597315,26.092927443350845,60.57831692988475
1658789521548032,-11.993591210803288,27.496757457846797,60.63935301747142
1658789521564032,-8.209353780422589,27.008468757152514,58.74723430228096
1658789521580032,-13.031204699778755,24.26184481574728,53.37605859464384
1658789521596032,-26.52018005645823,22.8580148012511,45.441367208361726
1658789521612032,-32.806897077897474,21.14900434882111,37.07942320897223
1658789521628031,-21.33211261158158,19.867246509498727,30.60959792477297
1658789521644012,-6.8665598535133086,20.599679560540153,25.42153047989609
1658789521660012,-5.462729839017356,21.45418478675515,18.70756084534969
1658789521676012,-10.711833371480907,19.867246509498727,9.430075532158298
1658789521692011,-2.288853284504512,14.80125123979542,2.5940337224383256
1658789521708011,12.054627298390187,8.45349813076973,-0.8239871824216607
1658789521724011,14.679179064621849,6.073090714885211,-3.936827649347606
1658789521740011,8.45349813076973,3.0823224231326094,-10.162508583199724
1658789521756011,4.974441138323073,-4.730296787975931,-19.439993896391115
1658789521772010,4.486152437628789,-13.45845731288614,-27.98504615854108
1658789521788010,3.7537193865873633,-17.181658655680167,-35.431448844129136
1658789521804010,3.3875028610666504,-16.02197299153113,-43.67132066834529
1658789521820010,15.655756466010416,-15.655756466010416,-48.85938811322194
1658789521836010,31.036850537880355,-19.195849546043974,-50.873579003585974
1658789521852009,33.4172579537651,-24.994277866788707,-53.07087815671025
1658789521868009,27.74090180819394,-30.182345311665358,-56.79407949950405
1658789521884009,28.900587472342977,-32.806897077897474,-59.90691996643022
1658789521900009,36.591134508277946,-33.844510566872714,-61.98214694438093
1658789521916009,38.30014496070794,-39.82604715037769,-64.91187914854663
1658789521932008,27.98504615854108,-46.17380025940338,-68.757152666514
1658789521948008,21.33211261158158,-47.51659418631266,-73.21278706034946
1658789521964019,28.96162355992965,-46.17380025940338,-76.14251926451516
1658789521980019,38.11703669794747,-48.249027237354085,-78.461890592813
1658789521996019,40.9246967269396,-52.70466163118954,-80.04882887006943
1658789522012019,35.065232318608196,-55.81750209811548,-82.1850919356068
1658789522028019,30.060273136491787,-55.3292133974212,-86.21347371633465
1658789522044018,33.783474479285815,-57.77065690089262,-93.04951552605462
1658789522060018,41.16884107728674,-63.752193484397594,-95.7961394674603
1658789522076018,39.09361409933604,-64.1794460975052,-93.90402075226984
1658789522092018,30.4875257495994,-61.73800259403379,-96.16235599298102
1658789522108018,28.473334859235365,-59.967956054016895,-101.10627908751053
1658789522124017,31.036850537880355,-62.8976882581826,-104.82948043030456
1658789522140017,30.60959792477297,-66.80399786373687,-102.99839780270099
1658789522156017,33.905546654459386,-64.54566262302592,-99.70244907301458
1658789522172017,30.670634012359642,-58.44205386434737,-100.80109864957672
1658789522188017,24.567025253681095,-57.587548638132375,-108.30853742275121
1658789522204016,24.322880903333953,-60.45624475471118,-111.90966659037167
1658789522220016,34.51590753032724,-55.63439383535524,-105.74502174410623
1658789522236016,38.78843366140222,-47.333485923552416,-99.09208819714672
1658789522252016,22.064545662623004,-43.121995880064105,-102.63218127718028
1658789522268015,0.9460593575952316,-45.563439383535524,-113.31349660486762
1658789522284027,1.0070954451819034,-45.19722285801481,-114.29007400625619
1658789522300027,20.05035477225897,-36.591134508278174,-104.52429999237052
1658789522316026,38.17807278553437,-27.86297398336751,-95.97924773022055
1658789522332026,43.30510414282435,-28.107118333714652,-93.90402075226984
1658789522348026,31.83031967650868,-34.21072709239343,-95.73510337987341
1658789522364026,12.787060349431613,-37.81185626001388,-96.5896086060884
1658789522380025,10.101472495613052,-34.76005188067461,-94.27023727779056
1658789522396025,21.45418478675515,-30.792706187533213,-90.79118028534367
1658789522412025,29.022659647516548,-28.229190508888223,-88.16662851911178
1658789522428025,23.407339589532285,-29.816128786144645,-90.36392767223606
1658789522444025,11.07804989700162,-31.158922713053926,-91.64568551155867
1658789522460024,4.9134050507361735,-26.337071793697987,-88.04455634393821
1658789522476024,8.575570305943302,-23.041123064011572,-87.25108720531011
1658789522492024,12.726024261844714,-22.125581750209676,-88.5328450446325
1658789522508024,13.275349050125897,-23.7125200274661,-91.03532463569081
1658789522524024,5.0354772259097444,-22.186617837796575,-90.42496375982296
1658789522540023,2.532997634851654,-17.36476691844041,-89.14320592050035
1658789522556023,6.744487678339738,-12.970168612191856,-88.5328450446325
1658789522572023,19.501029983978015,-8.6366063935302,-88.22766460669868
1658789522588023,20.599679560540153,-4.60822461280236,-85.42000457770655
1658789522604004,7.782101167315204,-2.04470893415737,-82.30716411078038
1658789522620003,-0.6408789196611906,-0.2746623941404778,-79.86572060730896
1658789522636003,7.4158846417944915,-0.213626306553806,-73.51796749828327
1658789522652003,20.23346303501944,-0.33569848172737693,-62.34836346990164
1658789522668003,15.594720378423744,4.9134050507361735,-51.85015640497454
1658789522684003,1.4953841458761872,5.645838101777599,-46.54001678492409
1658789522700002,3.814755474174035,6.744487678339738,-36.774242771038416
1658789522716002,18.76859693293659,10.528725108720437,-24.01770046540014
1658789522732002,9.185931181811156,16.510261692225413,-13.702601663233281
1658789522748002,-15.655756466010416,17.853055619134693,-6.195162890058782
1658789522764001,-16.571297779812312,19.501029983978015,4.547188525215461
1658789522780001,-0.33569848172737693,23.95666437781324,19.317921721217544
1658789522796001,-11.261158159761862,27.252613107499656,31.464103150987967
1658789522812001,-36.774242771038416,25.970855268177274,40.1312275883115
1658789522828001,-34.94316014343485,23.773556115052997,53.68123903257765
1658789522844000,-16.754406042572555,25.665674830243233,69.48958571755566
1658789522860000,-19.9282825970854,26.7032883192187,81.20851453421847
1658789522876000,-36.16388189517056,26.031891355763946,89.32631418326082
1658789522892000,-38.72739757381555,26.337071793697987,97.32204165712983
1658789522908000,-27.74090180819394,28.412298771648693,104.89051651789123
1658789522924011,-23.89562829022657,31.280994888227497,113.4355687800412
1658789522940011,-33.5393301289389,33.600366216525344,118.68467231250497
1658789522956010,-41.0467689021134,33.722438391698915,121.37026016632353
1658789522972010,-35.73662928206318,34.821087968261054,126.31418326085304
1658789522988010,-24.505989166094423,36.71320668345152,132.11261158159778
1658789523004010,-27.313649195086555,40.86366063935293,136.9954985885406
1658789523020010,-43.73235675593196,40.80262455176603,135.6527046616311
1658789523036009,-51.66704814221407,40.61951628900579,134.37094682230872
1658789523052009,-32.745860990310575,40.375371938658645,137.23964293888776
1658789523068009,-17.303730830853738,42.99992370489031,142.54978255893775
1658789523084009,-27.80193789578084,46.47898069733719,141.2069886320287
1658789523100009,-48.6762798504617,43.61028458075816,134.859235523003
1658789523116008,-51.17875944151979,41.04676890211317,132.78400854505207
1658789523132008,-28.534370946822264,42.14541847867531,136.9954985885406
1658789523148008,-12.542915999084471,45.624475471122196,142.67185473411155
1658789523164008,-27.252613107499656,45.13618677042791,136.9344625009535
1658789523180008,-58.747234302281186,37.567711909666514,123.44548714427401
1658789523196007,-62.714579995422355,32.562752727550105,117.03669794766165
1658789523212007,-40.680552376592686,34.76005188067438,122.40787365529877
1658789523228007,-21.759365224688963,42.02334630350174,125.9479667353321
1658789523243988,-28.839551384756078,42.38956282902245,117.09773403524832
1658789523259987,-49.53078507667669,32.01342793926892,99.5193408102541
1658789523275987,-50.20218204013122,24.628061341267994,90.36392767223651
1658789523291987,-36.4690623331046,29.32784008545036,95.61303120469984
1658789523307987,-24.628061341267994,40.070191500724604,102.143892576486
1658789523323987,-21.69832913710229,42.51163500419602,97.81033035782411
1658789523339986,-18.341344319828977,33.783474479285815,86.94590676737653
1658789523355986,-25.543602655069662,27.130540932326085,82.3682001983675
1658789523371986,-37.01838712138556,27.496757457846797,82.61234454871465
1658789523387986,-37.14045929655913,28.656443121995835,83.58892195010321
1658789523403986,-17.181658655680167,29.32784008545036,82.18509193560703
1658789523419985,-7.354848554207592,26.764324406805372,79.25535973144133
1658789523435985,-27.313649195086555,20.17242694743254,73.82314793621754
1658789523451985,-50.873579003585974,13.946746013580423,66.31570916304281
1658789523467985,-45.13618677042814,11.566338597695903,61.00556954299191
1658789523483985,-19.256885633630873,13.946746013580423,61.9211108567938
1658789523499984,-12.176699473563758,15.045395590142562,60.70038910505809
1658789523515984,-20.782787823300396,10.955977721828049,52.094300755321456
1658789523531984,-25.909819180590375,6.805523765926637,41.718165865567926
1658789523547984,-21.026932173647538,7.721065079728305,30.4875257495994
1658789523563995,-16.1440451667047,9.491111619745197,19.562066071564686
1658789523579995,-19.562066071564686,6.683451590753066,10.162508583199724
1658789523595995,-13.031204699778755,5.157549401083315,3.4485389486533222
1658789523611994,-1.0070954451819034,4.547188525215461,-2.105745021744042
1658789523627994,4.9134050507361735,-2.105745021744042,-12.298771648737329
1658789523643994,7.049668116273779,-9.491111619745197,-23.529411764705856
1658789523659994,9.308003356984727,-16.26611734187827,-33.966582742046285
1658789523675994,12.848096437018285,-24.07873655298681,-43.73235675593196
1658789523691993,21.881437399862534,-30.4875257495994,-51.72808422980097
1658789523707993,34.76005188067438,-32.50171663996343,-57.77065690089262
1658789523723993,40.497444113832216,-35.431448844129136,-62.47043564507521
1658789523739993,34.2107270923932,-39.398794537270305,-71.07652399481185
1658789523755993,28.04608224612798,-41.47402151522101,-80.23193713282967
1658789523771992,35.55352101930248,-42.20645456626244,-85.9693293659875
1658789523787992,51.23979552910623,-42.38956282902268,-88.9600976577401
1658789523803992,57.89272907606619,-46.11276417181671,-90.91325246051724
1658789523819992,55.634393835354786,-53.681239032578105,-93.84298466468317
1658789523835991,48.55420767528767,-58.13687342641333,-97.38307774471673
1658789523851991,46.60105287251076,-60.028992141603794,-104.70740825513099
1658789523867991,51.36186770428003,-63.81322957198449,-110.56687266346239
1658789523884033,58.258945601586674,-67.10917830167091,-111.48241397726406
1658789523900033,49.10353246356908,-66.01052872510877,-110.74998092622263
1658789523916032,34.2107270923932,-63.08079652094307,-114.10696574349595
1658789523932032,29.20576791027679,-62.714579995422355,-122.65201800564591
1658789523948032,29.999237048905115,-66.55985351338973,-129.24391546501874
1658789523964032,28.778515297169406,-63.56908522163735,-126.43625543602661
1658789523980032,33.3562218661782,-54.41367208361953,-120.1495384145876
1658789523996031,35.61455710688938,-49.40871290150312,-117.40291447318236
1658789524012031,33.29518577859153,-54.840924696726915,-124.23895628290234
1658789524028031,31.464103150987967,-66.01052872510877,-128.26733806363018
1658789524044031,27.313649195086555,-63.752193484397594,-119.72228580148021
1658789524060031,25.848783093003703,-51.42290379186693,-111.54345006485096
1658789524076030,27.74090180819394,-48.73731593804837,-116.4263370717938
1658789524092030,21.57625696192872,-52.82673380636311,-124.42206454566258
1658789524108030,16.1440451667047,-52.64362554360264,-121.24818799114973
1658789524124030,17.54787518120088,-39.82604715037769,-111.05516136415667
1658789524140030,20.11139085984587,-27.252613107499656,-111.90966659037167
1658789524156029,8.575570305943302,-27.98504615854108,-119.66124971389331
1658789524172029,10.467689021133765,-31.036850537880355,-122.10269321736473
1658789524188029,22.430762188143717,-23.7125200274661,-112.76417181658667
1658789524204010,30.670634012359642,-15.411612115663274,-106.96574349584193
1658789524220009,27.86297398336751,-16.754406042572555,-108.91889829861907
1658789524236009,18.646524757763018,-18.219272144655406,-107.39299610894955
1658789524252009,13.76363775082018,-15.228503852903032,-101.41145952544457
1658789524268009,11.566338597695903,-8.33142595559616,-95.73510337987341
1658789524284009,1.983672846570471,-4.669260700389032,-94.27023727779056
1658789524300008,0.09155413138023505,-5.157549401083315,-97.56618600747697
1658789524316008,5.645838101777599,-4.669260700389032,-94.27023727779056
1658789524332008,1.0681315327688026,-1.6174563210497581,-85.35896849011965
1658789524348008,-2.227817196917613,0.5188067444876197,-80.84229800869753
1658789524364008,7.11070420386045,5.157549401083315,-75.83733882658112
1658789524380007,23.407339589532285,8.45349813076973,-68.757152666514
1658789524396007,23.773556115052997,11.749446860456146,-60.94453345540546
1658789524412007,3.997863736934505,13.45845731288614,-57.22133211261166
1658789524428007,-10.223544670786623,14.251926451514464,-52.09430075532168
1658789524444007,1.5564202334630863,17.36476691844041,-40.80262455176626
1658789524460006,10.467689021133765,22.247653925383247,-26.092927443350845
1658789524476006,-6.012054627298312,24.567025253681095,-14.740215152208748
1658789524492006,-25.543602655069662,23.468375677118956,-3.4485389486533222
1658789524508006,-17.48683909361398,21.942473487449433,12.054627298390187
1658789524524017,-3.5095750362402214,23.7125200274661,28.839551384756078
1658789524540017,-15.594720378423744,25.116350041962278,42.938887617303635
1658789524556017,-35.12626840619532,23.590447852292527,54.169527733271934
1658789524572016,-35.91973754482342,24.200808728160382,65.03395132372043
1658789524588016,-27.98504615854108,25.116350041962278,74.86076142519278
1658789524604016,-33.23414969100486,26.52018005645823,83.40581368734274
1658789524620016,-46.84519722285813,27.679865720607268,90.18081940947604
1658789524636016,-51.78912031738764,30.121309224078686,97.19996948195649
1658789524652015,-46.47898069733742,30.30441748683893,104.46326390478362
1658789524668015,-36.10284580758389,29.571984435797503,111.48241397726406
1658789524684015,-36.652170595864845,32.19653620202939,117.03669794766165
1658789524700015,-47.028305485618375,33.478294041351774,117.89120317387642
1658789524716014,-52.277409018081926,35.91973754482319,119.23399710078593
1658789524732014,-35.370412756542464,37.567711909666514,121.24818799114973
1658789524748014,-22.919050888838,41.16884107728674,125.82589456015876
1658789524764014,-35.91973754482342,43.54924849317149,124.17792019531544
1658789524780014,-56.183718623636196,44.403753719386486,121.67544060425735
1658789524796013,-52.58258945601597,44.098573281452445,124.72724498359639
1658789524812013,-39.15465018692316,45.319295033188155,129.85427634088637
1658789524828013,-43.79339284351886,44.95307850766744,130.76981765468827
1658789524843994,-61.432822156099746,38.910505836575794,127.35179674982828
1658789524859994,-70.64927138170447,35.49248493171581,127.22972457465494
1658789524875993,-61.00556954299236,35.67559319447605,130.76981765468827
1658789524891993,-29.38887617303726,33.478294041351774,132.17364766918445
1658789524907993,-12.359807736324,35.065232318608196,136.07995727473872
1658789524923993,-32.867933165484146,33.05104142824439,133.82162203402777
1658789524939993,-50.812542915999074,24.567025253681095,123.62859540703448
1658789524955992,-40.2532997634853,25.36049439230942,118.86778057526499
1658789524971992,-21.759365224688963,37.26253147173247,118.31845578698403
1658789524987992,-16.693369954985883,43.67132066834506,112.27588311589216
1658789525003992,-27.435721370260126,38.23910887312104,98.90897993438648
1658789525019991,-39.15465018692316,30.914778362706784,89.08216983291368
1658789525035991,-37.50667582207984,31.64721141374821,89.08216983291368
1658789525051991,-20.721751735713724,40.497444113832216,94.08712901503031
1658789525067991,-14.98435950255589,47.39452201113886,94.02609292744364
1658789525083991,-14.190890363927565,38.971541924162466,84.19928282597084
1658789525099990,-22.186617837796575,30.4264896620125,79.25535973144133
1658789525115990,-41.41298542763411,31.89135576409535,78.46189059281323
1658789525131990,-52.76569771877621,33.844510566872486,74.73868925001943
1658789525147990,-33.60036621652557,30.853742275120112,71.93102922102707
1658789525164001,-9.124895094224485,28.96162355992965,72.60242618448183
1658789525180001,-11.20012207217519,29.26680399786369,71.0765239948123
1658789525196001,-28.534370946822264,23.224231326771815,64.48462653543947
1658789525212000,-26.031891355763946,16.815442130159454,57.34340428778478
1658789525228000,-11.322194247348762,15.289539940489703,54.535744258792874
1658789525244000,-8.209353780422589,14.251926451514464,52.2163729304948
1658789525260000,-19.867246509498727,12.603952086671143,45.86861982146934
1658789525276000,-26.7032883192187,9.124895094224485,34.57694361791391
1658789525291999,-20.294499122606112,4.180971999694748,22.919050888838
1658789525307999,-9.063859006637585,5.3406576638437855,16.1440451667047
1658789525323999,1.8616006713969,9.308003356984727,11.139085984588291
1658789525339999,8.392462043183059,6.9886320286868795,8.026245517662346
1658789525355999,11.139085984588291,-1.9226367589837992,1.6784924086366573
1658789525371998,11.07804989700162,-8.941786831464015,-7.782101167315204
1658789525387998,7.049668116273779,-13.885709925993751,-19.867246509498727
1658789525403998,6.744487678339738,-19.9893186846723,-31.586175326161765
1658789525419998,5.584802014190927,-27.130540932326085,-41.35194934004744
1658789525435998,-0.213626306553806,-31.830319676508907,-50.08010986495765
1658789525451997,5.3406576638437855,-31.952391851682478,-57.282368200198334
1658789525467997,25.60463874265656,-31.219958800640825,-61.493858243686645
1658789525483978,41.7792019531546,-33.844510566872714,-63.752193484397594
1658789525499978,38.971541924162466,-39.94811932555126,-68.20782787823305
1658789525515977,27.008468757152514,-45.44136720836195,-75.4711223010604
1658789525531977,28.839551384756078,-48.126955062180514,-82.36820019836728
1658789525547977,45.25825894560148,-47.028305485618375,-84.87067978942537
1658789525563977,53.498130769817635,-45.746547646295994,-83.52788586251609
1658789525579977,44.7089341573203,-46.78416113527123,-86.39658197909512
1658789525595976,35.43144884412891,-51.17875944151979,-94.69748989089817
1658789525611976,34.39383535515367,-55.14610513466096,-101.59456778820481
1658789525627976,36.89631494621176,-54.718852521553345,-101.47249561303124
1658789525643976,41.8402380407415,-49.40871290150312,-98.97001602197315
1658789525659976,39.032578011749365,-49.10353246356908,-99.580376897841
1658789525675975,29.999237048905115,-54.10849164568549,-102.02182040131243
1658789525691975,21.33211261158158,-57.64858472571905,-102.0828564888991
1658789525707975,10.345616845960194,-54.29159990844596,-101.35042343785767
1658789525723975,7.843137254901876,-50.873579003585974,-106.05020218204027
1658789525739975,14.190890363927565,-49.22560463874265,-109.28511482413978
1658789525755974,28.351262684061794,-50.01907377737098,-108.67475394827193
1658789525771974,30.60959792477297,-48.310063324940984,-103.48668650339528
1658789525787974,26.39810788128466,-45.38033112077528,-102.75425345235385
1658789525803985,25.05531395437538,-44.464789806973386,-105.31776913099884
1658789525819985,31.586175326161538,-46.54001678492409,-108.12542915999097
1658789525835985,35.61455710688938,-47.333485923552416,-105.25673304341194
1658789525851985,33.23414969100463,-41.71816586556815,-98.72587167162601
1658789525867984,23.163195239185143,-34.94316014343485,-97.87136644541101
1658789525883984,16.693369954985883,-36.10284580758389,-104.58533607995741
1658789525899984,16.754406042572555,-40.13122758831173,-108.36957351033811
1658789525915984,13.702601663233281,-40.13122758831173,-104.03601129167623
1658789525931984,14.129854276340893,-35.55352101930271,-99.82452124818815
1658789525947983,24.872205691615136,-28.96162355992965,-100.55695429922957
1658789525963983,34.08865491721963,-27.74090180819394,-103.54772259098195
1658789525979983,33.905546654459386,-30.975814450293683,-103.85290302891599
1658789525995983,25.726710917830133,-29.999237048905115,-101.289387350271
1658789526011983,19.562066071564686,-24.872205691615136,-97.81033035782411
1658789526027982,19.378957808804444,-18.70756084534969,-97.07789730678269
1658789526043982,30.243381399252257,-19.80621042191183,-101.83871213855195
1658789526059982,28.351262684061794,-20.416571297779683,-101.10627908751053
1658789526075982,17.54787518120088,-22.49179827573039,-100.80109864957672
1658789526091982,17.181658655680167,-20.721751735713724,-96.40650034332816
1658789526107981,28.412298771648693,-14.92332341496899,-89.20424200808725
1658789526123993,37.32356755931937,-15.655756466010416,-86.64072632944226
1658789526139992,36.22491798275723,-19.073777370870403,-84.87067978942537
1658789526155992,23.529411764705856,-19.9282825970854,-83.0395971618218
1658789526171992,10.040436408026153,-13.946746013580423,-81.51369497215228
1658789526187992,5.279621576256886,-8.575570305943302,-77.11909666590373
1658789526203992,13.092240787365427,-5.523765926604028,-72.35828183413446
1658789526219991,20.477607385366582,-1.2512397955290453,-67.41435873960472
1658789526235991,6.378271152819025,2.655069810025225,-64.1184100099183
1658789526251991,-14.98435950255589,5.828946364538069,-58.808270389868085
1658789526267991,-6.012054627298312,6.012054627298312,-48.79835202563527
1658789526283990,14.862287327382319,10.955977721828049,-31.952391851682478
1658789526299990,11.444266422522333,15.838864728770886,-21.33211261158158
1658789526315990,-11.871519035629717,18.463416495002548,-11.444266422522333
1658789526331990,-14.435034714274707,17.853055619134693,1.3122758831159445
1658789526347990,5.3406576638437855,22.186617837796575,18.219272144655406
1658789526363989,-1.983672846570471,27.130540932326085,35.065232318608196
1658789526379989,-28.473334859235365,26.764324406805372,46.41794460975029
1658789526395989,-37.38460364690627,25.543602655069662,59.479667353322384
1658789526411989,-28.839551384756078,26.58121614404513,74.12832837415135
1658789526427989,-31.525139238574866,29.20576791027679,85.11482413977274
1658789526443969,-41.35194934004744,28.96162355992965,92.68329900053413
1658789526459969,-43.305104142824575,31.464103150987967,104.03601129167646
1658789526475969,-31.280994888227724,33.53933012893867,114.22903791866929
1658789526491969,-23.83459220263967,36.10284580758366,121.91958495460449
1658789526507969,-33.35622186617843,41.04676890211317,127.59594110017542
1658789526523968,-46.906233310444804,42.02334630350174,129.61013199053923
1658789526539968,-42.87785152971696,46.11276417181648,133.6385137712673
1658789526555968,-27.069504844739413,50.01907377737052,141.81734950789632
1658789526571968,-23.346303501945386,53.19295033188337,147.4326695658806
1658789526587967,-39.520866712443876,51.728084229800515,147.18852521553345
1658789526603967,-54.04745555809882,48.73731593804814,145.41847867551678
1658789526619967,-58.625162127107615,50.08010986495765,147.24956130312057
1658789526635967,-51.48393987945383,52.277409018081926,148.47028305485628
1658789526651967,-38.42221713588174,51.11772335393289,150.30136568245962
1658789526667966,-40.07019150072483,48.43213550011433,149.32478828107105
1658789526683966,-55.20714122224763,42.51163500419602,140.65766384374774
1658789526699966,-70.5271992065309,37.628747997253186,134.4319829098954
1658789526715966,-62.22629129472807,38.54428931105508,134.5540550850692
1658789526731966,-33.78347447928604,44.159609369039345,137.85000381475538
1658789526747965,-14.679179064621849,46.05172808422958,133.57747768368063
1658789526763977,-29.32784008545036,37.689784084840085,117.52498664835593
1658789526779976,-64.91187914854663,28.900587472342977,102.75425345235362
1658789526795976,-71.93102922102685,30.4875257495994,98.90897993438648
1658789526811976,-37.20149538414603,40.43640802624532,107.33196002136265
1658789526827976,-9.246967269398056,52.88776989394955,114.71732661936358
1658789526843976,-20.599679560540153,50.446326390478134,101.89974822613885
1658789526859975,-53.25398641947049,36.04180971999676,82.3682001983675
1658789526875975,-64.48462653543902,29.938200961318216,79.80468451972229
1658789526891975,-48.6152437628748,37.9949645227739,89.57045853360796
1658789526907975,-21.14900434882111,46.23483634699005,96.52857251850173
1658789526923975,-10.406652933546866,44.7089341573203,94.69748989089794
1658789526939974,-20.416571297779683,34.943160143434625,88.22766460669891
1658789526955974,-36.89631494621199,25.543602655069662,82.97856107423513
1658789526971974,-40.314335851071974,27.435721370260126,80.2319371328299
1658789526987974,-28.900587472342977,31.342030975814396,76.93598840314371
1658789527003974,-4.547188525215461,28.534370946822264,74.92179751277945
1658789527019973,-1.3733119707026162,24.933241779201808,73.09071488517611
1658789527035973,-22.61387045090396,23.041123064011572,65.40016784924092
1658789527051973,-35.492484931716035,22.186617837796575,55.08506904707383
1658789527067973,-21.637293049515392,22.73594262607753,47.943846799420044
1658789527083953,-9.369039444571627,24.26184481574728,43.18303196765078
1658789527099953,-15.899900816357558,21.33211261158158,35.91973754482319
1658789527115953,-24.13977264057371,16.632333867398984,27.069504844739413
1658789527131953,-21.881437399862534,14.068818188753994,21.14900434882111
1658789527147953,-10.650797283894008,11.871519035629717,15.411612115663274
1658789527163952,-1.4953841458761872,9.002822919050914,10.223544670786623
1658789527179952,-0.45777065690094787,4.119935912108076,3.570611123826893
1658789527195952,-0.3967345693140487,-2.8992141603723667,-3.1433585107195086
1658789527211952,8.758678568703772,-10.955977721828049,-10.955977721828049
1658789527227952,17.120622568093268,-18.402380407415876,-19.9282825970854
1658789527243951,17.60891126878755,-22.8580148012511,-29.449912260623933
1658789527259951,12.4208438239109,-25.787747005416804,-37.3235675593196
1658789527275951,20.23346303501944,-27.86297398336751,-43.244068055237676
1658789527291951,33.17311360341796,-32.07446402685605,-47.88281071183337
1658789527307951,32.684824902723676,-37.750820172426984,-52.64362554360264
1658789527323950,22.61387045090396,-42.084382391088866,-59.41863126573594
1658789527339950,19.439993896391115,-42.81681544213029,-66.37674525062948
1658789527355950,27.74090180819394,-43.85442893110553,-72.41931792172113
1658789527371950,37.506675822079615,-47.7607385366598,-76.08148317692826
1658789527387950,38.78843366140222,-53.31502250705739,-79.01121538109396
1658789527403961,37.9949645227739,-58.86930647745476,-82.00198367284656
1658789527419961,45.13618677042791,-61.00556954299236,-84.7486076142518
1658789527435960,49.53078507667624,-61.493858243686645,-90.24185549706249
1658789527451960,50.690470740825276,-65.8274204623483,-96.83375295643555
1658789527467960,43.61028458075816,-72.17517357137399,-100.80109864957672
1658789527483960,37.506675822079615,-73.94522011139088,-103.42565041580838
1658789527499960,41.10780498970007,-71.01548790722518,-106.53849088273455
1658789527515959,43.42717631799792,-66.92607003891044,-107.69817654688336
1658789527531959,45.319295033188155,-69.48958571755543,-113.06935225452048
1658789527547959,43.18303196765078,-78.64499885557325,-117.2198062104219
1658789527563959,30.54856183718607,-81.8188754100861,-117.52498664835593
1658789527579959,22.064545662623004,-76.02044708934159,-119.11192492561236
1658789527595958,29.571984435797503,-71.6868848706797,-125.76485847257186
1658789527611958,48.67627985046147,-74.73868925001898,-131.8684672312504
1658789527627958,48.67627985046147,-75.28801403830016,-128.38941023880375
1658789527643958,31.70824750133511,-69.91683833066304,-121.24818799114973
1658789527659958,22.67490653849086,-62.714579995422355,-120.1495384145876
1658789527675957,24.444953078507524,-61.67696650644689,-124.54413672083615
1658789527691957,26.276035706111088,-66.80399786373687,-127.96215762569614
1658789527707957,23.041123064011572,-63.56908522163735,-123.32341496910044
1658789527723938,20.904859998473967,-51.66704814221407,-118.86778057526521
1658789527739937,14.98435950255589,-47.028305485618375,-121.12611581597616
1658789527755937,12.176699473563758,-48.432135500114555,-125.09346150911733
1658789527771937,12.848096437018285,-46.47898069733742,-120.63782711528188
1658789527787937,19.623102159151586,-39.15465018692316,-113.00831616693381
1658789527803937,23.163195239185143,-28.534370946822264,-109.46822308690025
1658789527819936,15.655756466010416,-25.787747005416804,-113.8017853055619
1658789527835936,12.664988174258042,-33.66140230411247,-117.52498664835593
1658789527851936,6.744487678339738,-34.63797970550104,-113.8017853055619
1658789527867936,6.134126802471883,-28.351262684061794,-108.30853742275121
1658789527883936,14.496070801861606,-23.041123064011572,-102.44907301441981
1658789527899935,27.069504844739413,-19.501029983978015,-100.80109864957672
1658789527915935,30.060273136491787,-23.285267414358714,-102.69321736476695
1658789527931935,20.294499122606112,-25.23842221713585,-101.04524299992386
1658789527947935,8.880750743877343,-19.684138246738257,-98.97001602197315
1658789527963935,11.322194247348762,-15.838864728770886,-99.27519645990697
1658789527979934,26.6422522316318,-16.937514305333025,-95.7961394674603
1658789527995934,28.473334859235365,-13.092240787365427,-90.30289158464939
1658789528011934,11.810482948043045,-7.782101167315204,-89.7535667963682
1658789528027934,-8.148317692835917,-5.096513313496644,-83.34477759975584
1658789528043945,-4.669260700389032,-0.33569848172737693,-71.99206530861375
1658789528059945,5.828946364538069,6.622415503166167,-57.22133211261166
1658789528075945,-2.04470893415737,11.993591210803288,-44.76997024490743
1658789528091944,-24.07873655298681,13.824673838406852,-35.614557106889606
1658789528107944,-22.61387045090396,15.411612115663274,-23.102159151598244
1658789528123944,-4.852368963149502,21.026932173647538,-6.195162890058782
1658789528139944,-0.03051804379333589,27.557793545433697,7.476920729381163
1658789528155943,-13.824673838406852,31.70824750133511,20.904859998473967
1658789528171943,-14.312962539101136,31.89135576409535,34.88212405584795
1658789528187943,-10.772869459067579,32.257572289616064,51.36186770428003
1658789528203943,-30.853742275120112,33.53933012893867,64.48462653543947
1658789528219943,-52.09430075532168,34.2107270923932,75.83733882658134
1658789528235942,-50.26321812771812,36.285954070343905,87.37315938048368
1658789528251942,-31.586175326161765,39.88708323796436,101.77767605096506
1658789528267942,-30.670634012359642,42.57267109178292,112.45899137865263
1658789528283942,-43.73235675593196,41.535057602807456,118.13534752422356
1658789528299942,-42.51163500419625,41.90127412832817,122.89616235599306
1658789528315941,-25.17738612954895,47.51659418631243,131.99053940642398
1658789528331941,-16.2050812542916,53.62020294499098,138.64347295338348
1658789528347941,-30.060273136491787,57.58754863813192,140.96284428168156
1658789528363952,-51.42290379186693,59.05241474021477,140.7186999313344
1658789528379952,-53.00984206912335,57.221332112611435,139.68108644235917
1658789528395952,-38.23910887312127,57.95376516365286,142.85496299687202
1658789528411952,-35.24834058136889,65.8884565499352,147.92095826657487
1658789528427951,-44.58686198214696,66.68192568856375,146.6392004272525
1658789528443951,-52.3994811932555,64.36255436026568,144.62500953688868
1658789528459951,-52.94880598153668,61.55489433127332,144.86915388723583
1658789528475951,-48.00488288700694,59.23552300297524,148.40924696726915
1658789528491951,-51.30083161669336,57.58754863813192,150.24032959487295
1658789528507950,-62.47043564507521,53.98641947051192,147.92095826657487
1658789528523950,-69.85580224307614,51.667048142213844,147.24956130312057
1658789528539950,-66.92607003891044,48.004882887006715,144.50293736171488
1658789528555950,-58.19790951400023,41.96231021591507,137.30067902647443
1658789528571950,-56.61097123674381,33.844510566872486,128.572518501564
1658789528587949,-52.94880598153668,30.73167009994654,124.11688410772877
1658789528603949,-47.39452201113909,35.91973754482319,124.60517280842305
1658789528619949,-29.877164873731545,40.86366063935293,121.55336842908355
1658789528635949,-3.692683299000464,38.971541924162466,113.25246051728072
1658789528651949,-0.8850232700083325,33.53933012893867,104.09704737926313
1658789528667948,-31.525139238574866,27.374685282673227,94.51438162813793
1658789528683929,-57.03822384985119,27.252613107499656,87.43419546807081
1658789528699929,-41.0467689021134,30.060273136491787,87.67833981841795
1658789528715929,-14.251926451514464,36.65217059586462,94.75852597848507
1658789528731928,-13.946746013580423,38.11703669794747,91.6456855115589
1658789528747928,-44.8310063324941,30.792706187533213,81.1474784466318
1658789528763928,-67.78057526512544,20.721751735713724,69.79476615548947
1658789528779928,-42.51163500419625,19.9893186846723,65.27809567406757
1658789528795928,-6.500343327992596,25.848783093003703,71.13756008239898
1658789528811927,-5.3406576638437855,29.633020523384403,74.31143663691182
1658789528827927,-24.811169604028237,26.39810788128466,67.84161135271233
1658789528843927,-29.694056610971074,22.308690012970146,58.625162127107615
1658789528859927,-12.359807736324,20.294499122606112,52.39948119325527
1658789528875927,-3.3264667734797513,21.759365224688963,49.34767681391622
1658789528891926,-12.4208438239109,22.125581750209676,46.11276417181648
1658789528907926,-20.477607385366582,19.745174334325156,42.14541847867531
1658789528923926,-17.181658655680167,18.341344319828977,38.60532539864175
1658789528939926,-10.955977721828049,15.045395590142562,32.13550011444249
1658789528955926,-17.853055619134693,11.139085984588291,24.322880903333953
1658789528971925,-28.595407034408936,7.232776379034021,13.885709925993751
1658789528987925,-28.839551384756078,5.706874189364498,5.706874189364498
1658789529003936,-12.054627298390187,3.997863736934505,-0.15259021896690683
1658789529019936,4.9134050507361735,0.15259021896690683,-2.532997634851654
1658789529035936,16.2050812542916,-1.983672846570471,-5.279621576256886
1658789529051936,18.402380407415876,-5.706874189364498,-10.711833371480907
1658789529067936,15.838864728770886,-14.679179064621849,-18.58548867017612
1658789529083935,14.068818188753994,-23.590447852292527,-27.557793545433697
1658789529099935,16.32715342946517,-27.74090180819394,-35.79766536964985
1658789529115935,19.073777370870403,-29.51094834821083,-42.14541847867554
1658789529131935,21.39314869916825,-29.755092698557974,-48.126955062180514
1658789529147935,24.628061341267994,-30.73167009994654,-53.559166857404534
1658789529163934,25.23842221713585,-33.11207751583129,-58.86930647745476
1658789529179934,24.200808728160382,-35.67559319447628,-65.09498741130687
1658789529195934,25.17738612954895,-38.97154192416269,-69.48958571755543
1658789529211934,33.783474479285815,-41.1078049897003,-72.35828183413446
1658789529227934,36.53009842069105,-43.48821240558482,-75.10490577553969
1658789529243933,33.05104142824439,-47.88281071183337,-79.86572060730896
1658789529259933,29.51094834821083,-50.812542915999074,-86.8238345922025
1658789529275933,34.02761882963296,-50.62943465323883,-92.92744335088105
1658789529291933,41.04676890211317,-49.40871290150312,-96.52857251850173
1658789529307932,46.17380025940315,-47.211413748378845,-98.23758297093173
1658789529323913,43.42717631799792,-44.647898069733856,-99.70244907301458
1658789529339913,34.51590753032724,-47.39452201113909,-102.38803692683314
1658789529355913,36.591134508277946,-52.94880598153668,-105.25673304341194
1658789529371913,46.845197222857905,-55.024032959487386,-104.95155260547813
1658789529387912,45.07515068284101,-50.56839856565193,-104.82948043030456
1658789529403912,28.96162355992965,-49.83596551461051,-107.69817654688336
1658789529419912,25.42153047989609,-57.22133211261166,-113.98489356832238
1658789529435912,37.87289234760033,-61.06660563057903,-114.35111009384309
1658789529451912,35.004196231021524,-51.91119249256121,-107.45403219653622
1658789529467911,24.07873655298681,-47.51659418631266,-108.43060959792479
1658789529483911,21.14900434882111,-46.35690852216385,-112.33691920347906
1658789529499911,28.412298771648693,-47.45555809872599,-114.04592965590905
1658789529515911,35.248340581368666,-47.45555809872599,-108.18646524757764
1658789529531911,31.219958800640825,-41.779201953154825,-102.44907301441981
1658789529547910,23.224231326771815,-37.62874799725341,-104.58533607995741
1658789529563910,17.48683909361398,-42.38956282902268,-105.56191348134598
1658789529579910,15.533684290836845,-44.220645456626244,-98.78690775921268
1658789529595910,16.08300907911803,-37.750820172426984,-91.40154116121153
1658789529611909,18.036163881895163,-31.219958800640825,-92.62226291294724
1658789529627909,19.745174334325156,-33.60036621652557,-100.06866559853529
1658789529643921,12.603952086671143,-36.4080262455177,-101.53353170061814
1658789529659920,10.89494163424115,-28.290226596475122,-97.19996948195626
1658789529675920,19.9282825970854,-20.538643472953254,-92.13397421225295
1658789529691920,36.83527885862509,-19.9282825970854,-94.33127336537746
1658789529707920,42.816815442130064,-20.23346303501944,-97.87136644541101
1658789529723919,26.031891355763946,-21.51522087434182,-97.93240253299768
1658789529739919,14.251926451514464,-22.003509575036105,-99.27519645990697
1658789529755919,12.542915999084471,-10.711833371480907,-94.39230945296413
1658789529771919,18.341344319828977,-5.95101853971164,-95.7961394674603
1658789529787919,32.74586099031035,-9.063859006637585,-98.23758297093173
1658789529803918,36.163881895170334,-8.026245517662346,-95.4299229419396
1658789529819918,27.98504615854108,-6.927595941100208,-90.85221637293034
1658789529835918,23.529411764705856,-6.256198977645454,-85.90829327840083
1658789529851918,29.08369573510322,-5.3406576638437855,-79.80468451972229
1658789529867918,26.52018005645823,-4.42511635004189,-73.51796749828327
1658789529883917,11.627374685282575,-3.3875028610666504,-72.72449835965517
1658789529899917,-0.15259021896690683,-1.8616006713969,-71.99206530861375
1658789529915917,5.76791027695117,-0.15259021896690683,-67.10917830167091
1658789529931917,21.026932173647538,2.8381780727854675,-59.72381170366975
1658789529947917,20.17242694743254,9.124895094224485,-55.939574273289054
1658789529963897,4.119935912108076,11.505302510109004,-57.77065690089262
1658789529979897,2.7161058976118966,10.650797283894008,-56.00061036087595
1658789529995897,20.35553521019301,10.589761196307336,-45.07515068284124
1658789530011897,22.67490653849086,13.214312962538997,-31.708247501335336
1658789530027897,8.575570305943302,13.397421225299468,-23.163195239185143
1658789530043896,0.03051804379333589,11.810482948043045,-16.44922560463874
1658789530059896,5.584802014190927,10.89494163424115,-8.148317692835917
1658789530075896,-1.4343480582895154,12.298771648737329,0.8239871824216607
1658789530091896,-17.181658655680167,12.481879911497572,7.598992904554734
1658789530107895,-21.27107652399468,14.92332341496899,16.937514305333025
1658789530123895,-13.45845731288614,14.98435950255589,25.23842221713585
1658789530139895,-7.598992904554734,15.899900816357558,31.70824750133511
1658789530155895,-14.740215152208748,15.777828641183987,39.64293888761722
1658789530171895,-20.660715648126825,16.571297779812312,47.08934157320505
1658789530187894,-20.294499122606112,16.754406042572555,54.779888609140016
1658789530203894,-15.777828641183987,16.32715342946517,62.226291294727616
1658789530219894,-19.80621042191183,17.975127794308264,68.63508049134089
1658789530235894,-28.717479209582507,20.17242694743254,74.7997253376061
1658789530251894,-32.867933165484146,21.087968261234437,79.74364843213561
1658789530267893,-29.571984435797503,20.17242694743254,85.48104066529368
1658789530283905,-28.16815442130155,20.782787823300396,91.21843289845128
1658789530299904,-38.1170366979477,21.942473487449433,95.06370641641888
1658789530315904,-45.685511558709095,21.57625696192872,96.28442816815459
1658789530331904,-41.35194934004744,24.383916990920852,98.35965514610507
1658789530347904,-32.13550011444272,28.16815442130155,102.99839780270077
1658789530363904,-37.07942320897246,31.158922713053926,106.53849088273455
1658789530379903,-47.333485923552416,32.92896925307082,105.68398565651933
1658789530395903,-41.53505760280768,33.05104142824439,105.9891660944536
1658789530411903,-29.26680399786369,34.02761882963296,110.74998092622263
1658789530427903,-36.530098420691274,35.37041275654224,112.39795529106595
1658789530443903,-58.07583733882666,33.722438391698915,110.9330891889831
1658789530459902,-62.34836346990164,32.684824902723676,112.09277485313214
1658789530475902,-31.952391851682478,32.74586099031035,116.73151750972784
1658789530491902,-13.45845731288614,35.98077363241009,124.23895628290211
1658789530507902,-31.464103150988194,36.591134508277946,123.68963149462115
1658789530523902,-60.63935301747165,26.276035706111088,115.38872358281833
1658789530539901,-70.64927138170447,22.49179827573039,111.66552224002453
1658789530555901,-57.587548638132375,28.717479209582507,116.06012054627308
1658789530571901,-29.26680399786369,35.98077363241009,122.10269321736496
1658789530587901,-26.82536049439227,37.26253147173247,121.85854886701782
1658789530603912,-54.779888609140244,29.816128786144645,108.49164568551168
1658789530619912,-78.0956740672923,22.003509575036105,99.58037689784078
1658789530635912,-61.493858243686645,22.186617837796575,102.69321736476695
1658789530651911,-25.787747005416804,29.816128786144645,111.05516136415645
1658789530667911,-2.8992141603723667,36.10284580758366,114.7783627069507
1658789530683911,-24.628061341267994,29.51094834821083,105.01258869306503
1658789530699911,-64.05737392233164,16.693369954985883,90.8522163729308
1658789530715911,-69.18440527962161,14.007782101167322,86.8848706797894
1658789530731910,-32.19653620202962,25.726710917830133,95.06370641641888
1658789530747910,-0.03051804379333589,40.00915541313793,104.46326390478362
1658789530763910,-5.523765926604028,36.89631494621176,95.61303120469984
1658789530779910,-34.88212405584818,25.29945830472252,79.316395819028
1658789530795910,-49.53078507667669,22.064545662623004,71.50377660791946
1658789530811909,-33.60036621652557,29.08369573510322,74.31143663691182
1658789530827909,-2.227817196917613,35.30937666895534,78.46189059281323
1658789530843909,11.810482948043045,37.567711909666514,78.27878233005276
1658789530859909,-5.462729839017356,31.52513923857464,69.97787441824994
1658789530875908,-36.22491798275746,22.430762188143717,59.296559090561914
1658789530891908,-37.3235675593196,20.782787823300396,54.04745555809859
1658789530907908,-14.618142977035177,25.116350041962278,57.221332112611435
1658789530923889,-0.5798428320745188,27.069504844739413,59.845883878843324
1658789530939889,-4.791332875562603,23.83459220263967,53.86434729533812
1658789530955888,-13.397421225299468,20.538643472953254,44.220645456626016
1658789530971888,-16.26611734187827,18.036163881895163,36.04180971999676
1658789530987888,-4.303044174868319,17.54787518120088,30.975814450293683
1658789531003888,6.927595941100208,19.9282825970854,29.633020523384403
1658789531019888,4.9134050507361735,19.501029983978015,27.98504615854108
1658789531035887,-2.9602502479590385,14.98435950255589,22.186617837796575
1658789531051887,-2.9602502479590385,12.359807736324,14.312962539101136
1658789531067887,-6.439307240405924,10.650797283894008,6.805523765926637
1658789531083887,-13.45845731288614,10.101472495613052,0.09155413138023505
1658789531099887,-9.185931181811156,8.148317692835917,-3.3264667734797513
1658789531115886,2.7771419851987957,5.889982452124741,-3.936827649347606
1658789531131886,8.33142595559616,2.410925459678083,-6.073090714885211
1658789531147886,6.805523765926637,-2.410925459678083,-11.322194247348762
1658789531163886,6.927595941100208,-7.598992904554734,-16.937514305333025
1658789531179885,10.101472495613052,-13.214312962538997,-20.965896086060866
1658789531195885,9.55214770733187,-18.70756084534969,-25.909819180590375
1658789531211885,4.242008087281647,-22.369726100556818,-31.403067063401295
1658789531227885,6.195162890058782,-22.79697871366443,-36.530098420691274
1658789531243896,15.472648203250174,-22.003509575036105,-39.82604715037769
1658789531259896,19.1348134584573,-22.79697871366443,-44.28168154421314
1658789531275896,16.08300907911803,-25.60463874265656,-49.469748989089794
1658789531291895,12.359807736324,-29.08369573510322,-55.14610513466096
1658789531307895,15.289539940489703,-33.5393301289389,-60.151064316777365
1658789531323895,17.60891126878755,-36.530098420691274,-63.996337834744736
1658789531339895,18.463416495002548,-39.093614099336264,-67.23125047684448
1658789531355895,19.501029983978015,-41.16884107728697,-71.01548790722518
1658789531371894,24.811169604028237,-43.244068055237676,-75.41008621347373
1658789531387894,27.191577019912984,-46.35690852216385,-80.29297322041657
1658789531403894,25.48256656748299,-49.83596551461051,-84.93171587701227
1658789531419894,20.965896086060866,-52.216372930495254,-88.41077286945892
1658789531435894,22.064545662623004,-50.32425421530479,-90.91325246051724
1658789531451893,33.722438391698915,-46.41794460975052,-92.01190203707938
1658789531467893,46.23483634699005,-49.16456855115598,-93.84298466468317
1658789531483893,39.27672236209651,-56.30579079880977,-96.95582513160912
1658789531499893,19.562066071564686,-61.79903868162046,-103.42565041580838
1658789531515893,7.721065079728305,-58.01480125123976,-106.78263523308169
1658789531531892,17.36476691844041,-54.16952773327239,-110.74998092622263
1658789531547892,38.42221713588151,-54.962996871900486,-112.21484702830548
1658789531563873,42.32852674143578,-59.1134508278019,-110.26169222552835
1658789531579873,28.04608224612798,-61.310749980926175,-108.8578622110324
1658789531595873,25.543602655069662,-57.95376516365309,-107.51506828412312
1658789531611872,28.412298771648693,-55.20714122224763,-108.55268177309836
1658789531627872,35.248340581368666,-59.66277561608308,-112.6420996414131
1658789531643872,40.314335851071746,-62.28732738231474,-111.7875944151981
1658789531659872,37.07942320897223,-58.07583733882666,-105.62294956893265
1658789531675871,21.39314869916825,-51.78912031738764,-103.60875867856885
1658789531691871,4.364080262455218,-54.4747081712062,-110.01754787518121
1658789531707871,7.2938124666209205,-56.54993514915691,-113.92385748073548
1658789531723871,14.190890363927565,-50.934615091172645,-109.6513313496605
1658789531739871,21.39314869916825,-43.61028458075839,-109.89547570000764
1658789531755870,14.129854276340893,-41.35194934004744,-114.77836270695047
1658789531771870,1.3733119707026162,-43.9765011062791,-117.52498664835593
1658789531787870,6.073090714885211,-42.93888761730386,-114.6562905317769
1658789531803870,25.17738612954895,-34.3938353551539,-107.20988784618908
1658789531819870,29.633020523384403,-29.38887617303726,-104.28015564202337
1658789531835869,23.346303501945386,-28.717479209582507,-107.88128480964383
1658789531851869,24.383916990920852,-31.586175326161765,-109.6513313496605
1658789531867869,25.848783093003703,-30.121309224078686,-105.68398565651955
1658789531883880,27.191577019912984,-25.848783093003703,-99.580376897841
1658789531899880,27.679865720607268,-21.69832913710229,-92.13397421225295
1658789531915880,23.89562829022657,-19.1348134584573,-88.65491721980607
1658789531931880,25.543602655069662,-23.83459220263967,-90.91325246051724
1658789531947879,20.17242694743254,-24.933241779201808,-88.10559243152511
1658789531963879,6.561379415579495,-20.965896086060866,-83.83306630045013
1658789531979879,4.60822461280236,-17.48683909361398,-80.53711757076371
1658789531995879,17.48683909361398,-13.031204699778755,-75.95941100175469
1658789532011879,30.73167009994654,-9.308003356984727,-71.38170443274589
1658789532027878,25.60463874265656,-7.598992904554734,-71.07652399481185
1658789532043878,5.0354772259097444,-6.8665598535133086,-70.83237964446471
1658789532059878,-3.6316472114137923,-6.8665598535133086,-67.10917830167091
1658789532075878,9.430075532158298,-5.401693751430457,-57.77065690089262
1658789532091878,16.815442130159454,-2.288853284504512,-49.10353246356908
1658789532107877,0.33569848172737693,-1.3122758831159445,-43.67132066834529
1658789532123877,-18.463416495002548,-1.9226367589837992,-38.54428931105531
1658789532139877,-7.4158846417944915,-0.6408789196611906,-30.73167009994654
1658789532155877,12.970168612191856,6.073090714885211,-18.82963302052326
1658789532171877,7.782101167315204,10.650797283894008,-10.833905546654478
1658789532187876,-11.871519035629717,11.505302510109004,-5.3406576638437855
1658789532203888,-14.068818188753994,12.481879911497572,3.6316472114137923
1658789532219887,0.6408789196611906,15.655756466010416,16.632333867398984
1658789532235887,-0.213626306553806,20.23346303501944,29.816128786144645
1658789532251887,-20.477607385366582,20.23346303501944,40.375371938658645
1658789532267887,-30.060273136491787,16.2050812542916,50.446326390478134
1658789532283887,-20.17242694743254,15.960936903944457,64.24048218509233
1658789532299886,-14.92332341496899,18.158236057068734,75.83733882658134
1658789532315886,-26.092927443350845,19.378957808804444,83.40581368734274
1658789532331886,-35.492484931716035,18.76859693293659,91.21843289845128
1658789532347886,-26.337071793697987,18.58548867017612,98.05447470817126
1658789532363886,-15.594720378423744,21.087968261234437,104.64637216754409
1658789532379885,-21.14900434882111,22.552834363317288,109.16304264896644
1658789532395885,-29.26680399786369,22.247653925383247,109.5902952620736
1658789532411885,-26.52018005645823,24.750133516441565,111.60448615243786
1658789532427885,-14.251926451514464,27.679865720607268,116.30426489662023
1658789532443884,-14.80125123979542,32.501716639963206,118.3794918745707
1658789532459884,-28.839551384756078,34.08865491721963,114.29007400625642
1658789532475884,-39.398794537270305,35.73662928206295,109.65133134966072
1658789532491884,-29.022659647516548,38.17807278553437,107.45403219653645
1658789532507884,-17.79201953154802,42.51163500419602,110.68894483863596
1658789532523864,-19.9282825970854,46.47898069733719,110.44480048828882
1658789532539864,-36.4080262455177,46.47898069733719,107.45403219653645
1658789532555864,-42.14541847867554,43.24406805523745,105.62294956893265
1658789532571864,-32.928969253071045,42.02334630350174,106.17227435721361
1658789532587864,-22.67490653849086,43.060959792477206,107.14885175860218
1658789532603863,-34.21072709239343,41.474021515220784,105.74502174410645
1658789532619863,-52.58258945601597,39.82604715037746,101.77767605096506
1658789532635863,-51.85015640497454,39.76501106279079,98.72587167162601
1658789532651863,-31.586175326161765,39.88708323796436,98.97001602197315
1658789532667863,-17.60891126878755,40.00915541313793,99.15312428473362
1658789532683862,-26.7032883192187,40.497444113832216,97.13893339436936
1658789532699862,-42.69474326695672,37.689784084840085,92.0729381246665
1658789532715862,-32.25757228961629,34.2717631799801,86.0914015411613
1658789532731862,2.105745021744042,35.73662928206295,88.04455634393844
1658789532747861,15.777828641183987,38.727397573815324,93.23262378881509
1658789532763861,-0.5188067444876197,38.23910887312104,89.99771114671557
1658789532779861,-27.252613107499656,33.23414969100463,82.73441672388799
1658789532795861,-32.44068055237676,30.670634012359642,75.95941100175514
1658789532811861,-15.899900816357558,33.3562218661782,76.20355535210228
1658789532827860,-5.584802014190927,41.96231021591507,81.39162279697894
1658789532843872,-18.158236057068734,47.08934157320505,81.1474784466318
1658789532859871,-34.45487144274057,40.192263675898175,69.8558022430766
1658789532875871,-27.069504844739413,31.83031967650868,61.73800259403333
1658789532891871,-19.073777370870403,34.943160143434625,64.78980697337329
1658789532907871,-14.98435950255589,43.060959792477206,69.7337300679028
1658789532923871,-15.838864728770886,48.79835202563481,72.90760662241564
1658789532939870,-13.45845731288614,45.74654764629577,68.32990005340662
1658789532955870,-7.904173342488775,38.910505836575794,62.53147173266234
1658789532971870,-14.129854276340893,37.9949645227739,60.57831692988475
1658789532987870,-26.092927443350845,39.27672236209651,61.43282215609952
1658789533003870,-21.51522087434182,39.032578011749365,64.48462653543947
1658789533019869,-3.5095750362402214,37.75082017242676,66.13260090028234
1658789533035869,6.378271152819025,33.905546654459386,65.52224002441471
1658789533051869,-9.246967269398056,28.839551384756078,61.00556954299191
1658789533067869,-29.14473182269012,23.407339589532285,54.84092469672669
1658789533083869,-24.933241779201808,20.35553521019301,50.873579003585746
1658789533099868,-6.256198977645454,21.210040436408008,49.2866407263291
1658789533115868,7.598992904554734,21.33211261158158,47.51659418631243
1658789533131868,3.936827649347606,21.026932173647538,43.48821240558459
1658789533147868,-7.17174029144735,20.294499122606112,38.78843366140222
1658789533163849,-8.6366063935302,17.48683909361398,33.783474479285815
1658789533179848,-0.3967345693140487,16.632333867398984,29.449912260623933
1658789533195848,3.997863736934505,17.730983443961122,26.214999618524416
1658789533211848,-2.288853284504512,16.32715342946517,22.064545662623004
1658789533227848,-10.650797283894008,10.89494163424115,17.181658655680167
1658789533243847,-8.026245517662346,5.584802014190927,13.153276874952326
1658789533259847,-0.45777065690094787,2.410925459678083,9.491111619745197
1658789533275847,-7.17174029144735,0.8239871824216607,4.486152437628789
1658789533291847,-17.48683909361398,-3.5095750362402214,-3.2654306858930795
1658789533307847,-13.397421225299468,-8.51453421835663,-9.308003356984727
1658789533323846,1.8005645838102282,-9.002822919050914,-12.970168612191856
1658789533339846,13.153276874952326,-10.284580758373295,-16.26611734187827
1658789533355846,19.378957808804444,-10.89494163424115,-19.9282825970854
1658789533371846,19.745174334325156,-13.64156557564661,-22.61387045090396
1658789533387846,18.097199969481835,-21.210040436408008,-26.7032883192187
1658789533403845,14.373998626688035,-26.52018005645823,-31.464103150988194
1658789533419845,8.33142595559616,-29.449912260623933,-37.750820172426984
1658789533435845,5.645838101777599,-30.54856183718607,-44.342717631799815
1658789533451845,11.07804989700162,-32.99000534065772,-49.28664072632955
1658789533467845,15.899900816357558,-35.431448844129136,-51.91119249256121
1658789533483856,17.66994735637445,-36.591134508278174,-55.57335774776834
1658789533499856,20.17242694743254,-39.64293888761745,-59.967956054016895
1658789533515855,23.83459220263967,-42.02334630350197,-63.26390478370331
1658789533531855,27.80193789578084,-43.67132066834529,-67.59746700236519
1658789533547855,31.76928358892178,-42.69474326695672,-70.5271992065309
1658789533563855,30.914778362706784,-42.93888761730386,-73.3958953231097
1658789533579855,22.61387045090396,-44.15960936903957,-75.71526665140755
1658789533595854,19.9282825970854,-46.47898069733742,-79.49950408178825
1658789533611854,29.877164873731545,-44.037537193866,-81.69680323491252
1658789533627854,40.314335851071746,-39.276722362096734,-81.57473105973895
1658789533643854,31.403067063401068,-39.03257801174959,-82.30716411078038
1658789533659854,20.538643472953254,-44.76997024490743,-86.51865415426869
1658789533675853,24.200808728160382,-50.7515068284124,-87.31212329289679
1658789533691853,25.48256656748299,-49.10353246356908,-84.01617456321037
1658789533707853,14.373998626688035,-46.9672693980317,-86.39658197909512
1658789533723853,17.66994735637445,-47.7607385366598,-93.47676813916223
1658789533739853,40.497444113832216,-46.78416113527123,-94.5754177157246
1658789533755852,49.95803768978385,-44.525825894560285,-87.55626764324393
1658789533771852,43.36614023041102,-42.02334630350197,-81.75783932249942
1658789533787852,25.726710917830133,-40.680552376592686,-82.30716411078038
1658789533803833,20.23346303501944,-44.58686198214696,-90.73014419775677
1658789533819832,30.4875257495994,-48.49317158770123,-94.08712901503031
1658789533835832,33.600366216525344,-45.990691996643136,-87.7393759060044
1658789533851832,23.468375677118956,-41.35194934004744,-82.2461280231937
1658789533867832,16.998550392919697,-40.680552376592686,-87.06797894254964
1658789533883832,20.294499122606112,-44.15960936903957,-93.29365987640176
1658789533899831,24.994277866788707,-44.037537193866,-90.85221637293034
1658789533915831,26.39810788128466,-37.20149538414603,-86.57969024185536
1658789533931831,22.61387045090396,-33.60036621652557,-88.5328450446325
1658789533947831,14.496070801861606,-35.91973754482342,-94.14816510261699
1658789533963831,11.932555123216616,-41.41298542763411,-95.61303120469984
1658789533979830,21.27107652399468,-38.91050583657602,-89.63149462119463
1658789533995830,30.060273136491787,-31.097886625467254,-85.60311284046679
1658789534011830,26.031891355763946,-30.121309224078686,-89.93667505912867
1658789534027830,24.07873655298681,-36.652170595864845,-97.5051499198903
1658789534043830,27.435721370260126,-37.81185626001388,-96.95582513160912
1658789534059829,30.73167009994654,-30.243381399252257,-91.76775768673224
1658789534075829,30.792706187533213,-24.872205691615136,-90.36392767223606
1658789534091829,21.087968261234437,-24.750133516441565,-93.5378042267489
1658789534107829,17.36476691844041,-29.449912260623933,-97.13893339436959
1658789534123840,15.716792553597315,-30.121309224078686,-94.94163424124531
1658789534139840,12.848096437018285,-24.26184481574728,-89.57045853360796
1658789534155840,7.904173342488775,-20.23346303501944,-89.44838635843439
1658789534171839,8.087281605249018,-21.33211261158158,-91.40154116121153
1658789534187839,19.684138246738257,-25.543602655069662,-90.73014419775677
1658789534203839,27.435721370260126,-25.23842221713585,-87.00694285496297
1658789534219839,25.848783093003703,-21.57625696192872,-83.40581368734252
1658789534235839,18.036163881895163,-21.759365224688963,-82.61234454871442
1658789534251838,13.153276874952326,-23.651483939879427,-82.36820019836728
1658789534267838,19.9282825970854,-25.05531395437538,-81.51369497215228
1658789534283838,23.529411764705856,-22.064545662623004,-79.316395819028
1658789534299838,12.970168612191856,-18.70756084534969,-77.85152971694515
1658789534315837,0.213626306553806,-17.48683909361398,-78.21774624246586
1658789534331837,5.76791027695117,-16.937514305333025,-77.66842145418468
1658789534347837,17.059586480506596,-15.411612115663274,-72.5413900968947
1658789534363837,10.711833371480907,-11.993591210803288,-68.94026092927447
1658789534379837,-9.124895094224485,-10.223544670786623,-67.78057526512544
1658789534395836,-8.575570305943302,-12.176699473563758,-61.98214694438093
1658789534411836,17.059586480506596,-7.782101167315204,-49.04249637598241
1658789534427836,20.35553521019301,-2.5940337224383256,-37.20149538414603
1658789534443847,-1.8616006713969,-1.6174563210497581,-30.60959792477297
1658789534459847,-15.228503852903032,-1.8005645838102282,-23.224231326771815
1658789534475847,-2.04470893415737,2.655069810025225,-12.542915999084471
1658789534491847,3.570611123826893,10.040436408026153,-0.9460593575952316
1658789534507846,-14.312962539101136,15.777828641183987,7.721065079728305
1658789534523846,-29.755092698557974,16.44922560463874,15.289539940489703
1658789534539846,-23.346303501945386,16.510261692225413,27.74090180819394
1658789534555846,-10.223544670786623,20.23346303501944,41.412985427633885
1658789534571846,-17.66994735637445,23.041123064011572,52.52155336842907
1658789534587845,-33.17311360341819,22.67490653849086,61.79903868162046
1658789534603845,-33.11207751583129,21.51522087434182,71.0765239948123
1658789534619845,-20.477607385366582,22.8580148012511,81.51369497215228
1658789534635845,-25.42153047989609,25.787747005416804,90.66910811017033
1658789534651845,-36.530098420691274,26.337071793697987,95.12474250400555
1658789534667844,-40.558480201419115,26.7032883192187,100.434882124056
1658789534683844,-29.51094834821083,27.61882963302037,108.06439307240407
1658789534699844,-24.13977264057371,30.4264896620125,113.67971313038834
1658789534715844,-38.1170366979477,32.74586099031035,117.46395056076926
1658789534731844,-49.713893339436936,32.257572289616064,119.17296101319926
1658789534747843,-40.314335851071974,31.89135576409535,122.04165712977783
1658789534763824,-28.717479209582507,35.79766536964962,127.47386892500208
1658789534779824,-33.60036621652557,37.689784084840085,126.49729152361351
1658789534795824,-47.45555809872599,39.52086671244365,123.9337758449683
1658789534811823,-40.1922636758984,39.21568627450961,122.77409018081926
1658789534827823,-18.463416495002548,39.27672236209651,126.49729152361351
1658789534843823,-16.510261692225413,42.877851529716736,129.61013199053923
1658789534859823,-37.872892347600555,40.74158846417936,123.75066758220783
1658789534875823,-56.061646448462625,37.2014953841458,118.74570840009164
1658789534891822,-49.591821164263365,37.9949645227739,118.13534752422356
1658789534907822,-21.820401312275862,38.0560006103608,119.60021362630641
1658789534923822,-14.190890363927565,37.87289234760033,122.83512626840638
1658789534939822,-29.755092698557974,38.36118104829461,122.89616235599306
1658789534955822,-43.121995880064105,33.905546654459386,119.23399710078593
1658789534971821,-34.088654917219856,30.36545357442583,115.08354314488452
