Timestamp (microseconds),Gyro X (°/s),Gyro Y (°/s),Gyro Z (°/s)
1658789505316528,0.5188067444876197,0.03051804379333589,-2.3498893720911838
1658789505332525,-0.213626306553806,-0.33569848172737693,-1.9226367589837992
1658789505348522,-0.5798428320745188,-0.33569848172737693,-2.532997634851654
1658789505364519,-1.4343480582895154,0.03051804379333589,-2.5940337224383256
1658789505380516,0.5188067444876197,0.33569848172737693,-1.6174563210497581
1658789505396513,1.739528496223329,0.2746623941404778,-0.7629510948347615
1658789505412510,1.3733119707026162,-0.09155413138023505,-0.7019150072480898
1658789505428506,0.5798428320745188,-0.213626306553806,-0.7019150072480898
1658789505444503,0.7019150072480898,-0.5188067444876197,-0.45777065690094787
1658789505460500,1.8005645838102282,-0.6408789196611906,-0.7629510948347615
1658789505476497,2.227817196917613,-0.7629510948347615,-0.7629510948347615
1658789505492494,1.4953841458761872,-0.15259021896690683,-0.3967345693140487
1658789505508491,0.45777065690094787,-0.03051804379333589,0.03051804379333589
1658789505524488,0.45777065690094787,-0.3967345693140487,0.213626306553806
1658789505540485,0.7629510948347615,-0.6408789196611906,0.45777065690094787
1658789505556482,0.9460593575952316,-1.0070954451819034,0.03051804379333589
1658789505572479,-0.3967345693140487,-0.7629510948347615,-0.09155413138023505
1658789505588476,-0.8850232700083325,-0.8850232700083325,0.15259021896690683
1658789505604473,1.3733119707026162,-0.6408789196611906,0.5188067444876197
1658789505620470,1.2512397955290453,-0.6408789196611906,0.213626306553806
1658789505636474,-0.2746623941404778,-1.0681315327688026,-0.33569848172737693
1658789505652471,-1.0681315327688026,-1.3122758831159445,-0.5798428320745188
1658789505668468,0.45777065690094787,-1.0070954451819034,-0.5188067444876197
1658789505684465,2.04470893415737,-1.0681315327688026,-0.03051804379333589
1658789505700462,2.04470893415737,-1.1902037079423735,-0.6408789196611906
1658789505716459,-0.213626306553806,-1.4953841458761872,-0.8239871824216607
1658789505732456,-0.09155413138023505,-1.5564202334630863,-0.8239871824216607
1658789505748453,1.4953841458761872,-1.4953841458761872,-1.0070954451819034
1658789505764450,2.410925459678083,-1.3122758831159445,-1.3122758831159445
1658789505780447,0.8239871824216607,-0.9460593575952316,-1.3733119707026162
1658789505796444,-1.5564202334630863,-1.1902037079423735,-1.0070954451819034
1658789505812440,-0.3967345693140487,-1.2512397955290453,-0.8239871824216607
1658789505828437,1.5564202334630863,-0.8850232700083325,-0.8239871824216607
1658789505844434,1.8005645838102282,-0.3967345693140487,-1.1291676203554744
1658789505860431,-0.7019150072480898,-0.5798428320745188,-1.0070954451819034
1658789505876428,0.45777065690094787,-0.5798428320745188,-0.8239871824216607
1658789505892425,1.8005645838102282,-0.5188067444876197,-1.2512397955290453
1658789505908422,1.6784924086366573,-0.5798428320745188,-1.3122758831159445
1658789505924419,-0.5188067444876197,-1.4343480582895154,-1.3733119707026162
1658789505940416,-0.6408789196611906,-1.0070954451819034,-2.04470893415737
1658789505956421,-1.8616006713969,-0.5188067444876197,-1.8616006713969
1658789505972417,-1.1291676203554744,-0.15259021896690683,-1.4343480582895154
1658789505988414,1.0681315327688026,0.2746623941404778,-0.7019150072480898
1658789506004411,2.7161058976118966,0.2746623941404778,-0.7629510948347615
1658789506020408,1.8005645838102282,-0.2746623941404778,-1.1291676203554744
1658789506036405,1.0070954451819034,-0.3967345693140487,-0.8850232700083325
1658789506052402,1.4953841458761872,-0.03051804379333589,-0.7019150072480898
1658789506068399,1.8005645838102282,-0.15259021896690683,-0.8850232700083325
1658789506084396,1.3122758831159445,0.03051804379333589,-0.9460593575952316
1658789506100393,-0.7019150072480898,0.7019150072480898,-0.8850232700083325
1658789506116390,-0.3967345693140487,1.6784924086366573,-0.6408789196611906
1658789506132387,0.09155413138023505,0.7019150072480898,-0.3967345693140487
1658789506148384,-0.6408789196611906,-0.45777065690094787,-0.15259021896690683
1658789506164381,-4.119935912108076,-1.1902037079423735,0.15259021896690683
1658789506180378,-5.584802014190927,-0.9460593575952316,0.45777065690094787
1658789506196375,-5.2185854886702145,-1.6784924086366573,0.5188067444876197
1658789506212371,-4.180971999694748,-2.7771419851987957,0.7019150072480898
1658789506228368,-4.486152437628789,-3.2654306858930795,0.8850232700083325
1658789506244365,-6.195162890058782,-1.8616006713969,0.8239871824216607
1658789506260362,-4.180971999694748,-0.3967345693140487,1.3122758831159445
1658789506276245,2.8992141603723667,-0.2746623941404778,1.8616006713969
1658789506292241,4.852368963149502,-1.739528496223329,1.9226367589837992
1658789506308238,0.45777065690094787,-2.227817196917613,1.6174563210497581
1658789506324234,-5.2185854886702145,-2.3498893720911838,1.3733119707026162
1658789506340231,-4.730296787975931,-2.5940337224383256,1.1902037079423735
1658789506356227,-1.4953841458761872,-1.983672846570471,1.1902037079423735
1658789506372223,-0.45777065690094787,-1.739528496223329,1.8616006713969
1658789506388220,-0.5188067444876197,-1.3122758831159445,1.0070954451819034
1658789506404216,-1.4343480582895154,-1.6784924086366573,-0.09155413138023505
1658789506420213,-0.3967345693140487,-2.7771419851987957,-0.03051804379333589
1658789506436209,-0.9460593575952316,-2.8992141603723667,0.5188067444876197
1658789506452206,-3.0212863355459376,-3.0823224231326094,1.2512397955290453
1658789506468202,-4.119935912108076,-3.570611123826893,1.8005645838102282
1658789506484199,-4.486152437628789,-3.570611123826893,2.04470893415737
1658789506500195,-2.7771419851987957,-4.364080262455218,3.0212863355459376
1658789506516192,1.0070954451819034,-3.936827649347606,3.814755474174035
1658789506532188,6.256198977645454,-0.03051804379333589,3.0823224231326094
1658789506548184,4.852368963149502,1.0681315327688026,1.983672846570471
1658789506564181,2.7161058976118966,1.1902037079423735,1.0681315327688026
1658789506580177,-1.6174563210497581,0.7629510948347615,0.3967345693140487
1658789506596008,-1.1291676203554744,1.8005645838102282,0.09155413138023505
1658789506612004,1.3733119707026162,2.227817196917613,-0.15259021896690683
1658789506628000,1.4343480582895154,0.45777065690094787,-0.7019150072480898
1658789506643996,0.45777065690094787,-1.0070954451819034,-0.7019150072480898
1658789506659992,2.5940337224383256,0.7019150072480898,-0.9460593575952316
1658789506675988,3.0212863355459376,2.105745021744042,-0.5798428320745188
1658789506691984,4.791332875562603,1.9226367589837992,-0.213626306553806
1658789506707980,1.0070954451819034,0.7629510948347615,0.09155413138023505
1658789506723976,-2.410925459678083,1.0681315327688026,0.213626306553806
1658789506739972,-0.8850232700083325,1.8005645838102282,-1.0681315327688026
1658789506755968,1.4953841458761872,0.33569848172737693,-1.8616006713969
1658789506771964,2.227817196917613,-1.9226367589837992,-2.227817196917613
1658789506787960,-1.1902037079423735,-1.4343480582895154,-2.410925459678083
1658789506803956,-2.8992141603723667,0.7019150072480898,-2.04470893415737
1658789506819952,1.6174563210497581,0.8850232700083325,-2.166781109330941
1658789506835948,6.256198977645454,-0.7629510948347615,-2.4719615472647547
1658789506851944,6.073090714885211,-1.0070954451819034,-2.3498893720911838
1658789506867940,2.166781109330941,-0.45777065690094787,-2.4719615472647547
1658789506883936,-1.3122758831159445,-0.45777065690094787,-2.8381780727854675
1658789506899932,-0.7629510948347615,-1.1902037079423735,-2.8992141603723667
1658789506915741,-0.15259021896690683,-1.0681315327688026,-2.166781109330941
1658789506931736,-0.6408789196611906,-0.8239871824216607,-2.288853284504512
1658789506947731,-0.8239871824216607,-0.8239871824216607,-2.655069810025225
1658789506963726,0.3967345693140487,-0.6408789196611906,-2.288853284504512
1658789506979721,4.058899824521177,0.03051804379333589,-1.9226367589837992
1658789506995716,6.622415503166167,-0.09155413138023505,-1.739528496223329
1658789507011711,4.547188525215461,-1.3733119707026162,-1.6784924086366573
1658789507027706,2.532997634851654,-1.739528496223329,-1.6174563210497581
1658789507043701,2.3498893720911838,-1.4953841458761872,-1.9226367589837992
1658789507059696,2.7771419851987957,-1.3122758831159445,-2.7161058976118966
1658789507075691,2.105745021744042,-1.739528496223329,-2.227817196917613
1658789507091686,0.9460593575952316,-1.4953841458761872,-1.4953841458761872
1658789507107681,0.9460593575952316,-1.1291676203554744,-1.739528496223329
1658789507123676,1.6784924086366573,-1.4953841458761872,-2.3498893720911838
1658789507139671,1.8616006713969,-1.6174563210497581,-2.410925459678083
1658789507155666,2.4719615472647547,-1.2512397955290453,-1.5564202334630863
1658789507171661,1.6174563210497581,-1.6784924086366573,-1.1902037079423735
1658789507187656,2.3498893720911838,-0.7629510948347615,-1.3122758831159445
1658789507203651,2.5940337224383256,-0.8239871824216607,-1.3122758831159445
1658789507219646,3.875791561760934,-1.4953841458761872,-1.6174563210497581
1658789507235534,2.227817196917613,-1.4343480582895154,-1.4343480582895154
1658789507251529,0.7019150072480898,-0.9460593575952316,-1.5564202334630863
1658789507267523,0.7019150072480898,-0.5188067444876197,-1.1902037079423735
1658789507283518,1.983672846570471,-0.9460593575952316,-0.6408789196611906
1658789507299512,2.105745021744042,-1.6174563210497581,-0.213626306553806
1658789507315507,-0.2746623941404778,-1.6174563210497581,0.15259021896690683
1658789507331502,0.8850232700083325,-0.8850232700083325,-0.3967345693140487
1658789507347496,2.655069810025225,-0.6408789196611906,-0.6408789196611906
1658789507363491,3.692683299000464,-0.9460593575952316,0.213626306553806
1658789507379485,3.5095750362402214,-1.1902037079423735,0.2746623941404778
1658789507395480,3.0823224231326094,-1.0070954451819034,-0.09155413138023505
1658789507411474,3.936827649347606,-0.5798428320745188,0.2746623941404778
1658789507427469,6.317235065232353,-0.7629510948347615,0.45777065690094787
1658789507443463,5.95101853971164,-1.0681315327688026,1.3733119707026162
1658789507459458,1.9226367589837992,-1.3122758831159445,1.8005645838102282
1658789507475453,1.3733119707026162,-1.1902037079423735,1.0070954451819034
1658789507491447,1.4343480582895154,-1.983672846570471,0.3967345693140487
1658789507507442,2.5940337224383256,-2.3498893720911838,0.9460593575952316
1658789507523436,4.486152437628789,0.2746623941404778,0.6408789196611906
1658789507539431,0.8850232700083325,0.8850232700083325,-0.5188067444876197
1658789507555267,0.7019150072480898,0.5798428320745188,-1.8616006713969
1658789507571261,0.213626306553806,0.2746623941404778,-2.04470893415737
1658789507587255,-1.1902037079423735,-0.5188067444876197,-2.04470893415737
1658789507603249,-2.410925459678083,-0.15259021896690683,-2.166781109330941
1658789507619243,-1.3122758831159445,0.09155413138023505,-2.166781109330941
1658789507635237,2.5940337224383256,-0.33569848172737693,-2.655069810025225
1658789507651231,5.645838101777599,-1.0681315327688026,-2.9602502479590385
1658789507667225,4.486152437628789,-1.8005645838102282,-3.0823224231326094
1658789507683220,2.227817196917613,-1.983672846570471,-2.8992141603723667
1658789507699214,2.288853284504512,-1.3733119707026162,-2.9602502479590385
1658789507715208,2.04470893415737,-1.0070954451819034,-2.4719615472647547
1658789507731202,2.227817196917613,-1.0681315327688026,-1.6784924086366573
1658789507747196,2.105745021744042,-0.8850232700083325,-1.3122758831159445
1658789507763190,0.8850232700083325,-1.1291676203554744,-1.4343480582895154
1658789507779184,2.7161058976118966,-0.8239871824216607,-1.6174563210497581
1658789507795178,3.0823224231326094,-0.9460593575952316,-0.8850232700083325
1658789507811172,1.4953841458761872,-1.1291676203554744,0.03051804379333589
1658789507827166,-0.8850232700083325,-1.0070954451819034,0.03051804379333589
1658789507843160,0.09155413138023505,-1.0070954451819034,0.15259021896690683
1658789507859154,2.5940337224383256,-0.8239871824216607,0.8239871824216607
1658789507875030,4.180971999694748,-0.45777065690094787,0.7019150072480898
1658789507891024,2.105745021744042,-0.33569848172737693,0.7629510948347615
1658789507907017,0.3967345693140487,-0.9460593575952316,1.3122758831159445
1658789507923011,-0.09155413138023505,-1.3122758831159445,2.166781109330941
1658789507939005,0.45777065690094787,-1.3733119707026162,2.227817196917613
1658789507954998,1.1902037079423735,-0.9460593575952316,1.1902037079423735
1658789507970992,2.7161058976118966,-1.1291676203554744,0.6408789196611906
1658789507986985,1.9226367589837992,-1.6174563210497581,0.7629510948347615
1658789508002979,-1.0070954451819034,-1.5564202334630863,1.1291676203554744
1658789508018972,-2.8992141603723667,-1.1291676203554744,1.2512397955290453
1658789508034966,-2.166781109330941,-1.4953841458761872,1.2512397955290453
1658789508050960,1.3122758831159445,-1.9226367589837992,0.9460593575952316
1658789508066953,1.739528496223329,-1.739528496223329,0.45777065690094787
1658789508082947,2.9602502479590385,-1.2512397955290453,0.33569848172737693
1658789508098940,5.401693751430457,-0.7629510948347615,0.7019150072480898
1658789508114934,6.439307240405924,-1.1902037079423735,1.5564202334630863
1658789508130928,6.256198977645454,-1.8005645838102282,2.8381780727854675
1658789508146921,4.730296787975931,-1.3733119707026162,3.0212863355459376
1658789508162915,3.814755474174035,-0.3967345693140487,2.7161058976118966
1658789508178908,4.669260700389032,0.45777065690094787,2.5940337224383256
1658789508194793,5.706874189364498,0.45777065690094787,2.8992141603723667
1658789508210786,6.073090714885211,0.03051804379333589,3.3264667734797513
1658789508226780,4.242008087281647,0.2746623941404778,2.7161058976118966
1658789508242773,0.8239871824216607,0.8850232700083325,2.3498893720911838
1658789508258766,-2.4719615472647547,-0.03051804379333589,1.6174563210497581
1658789508274759,0.5798428320745188,0.45777065690094787,0.7629510948347615
1658789508290752,2.4719615472647547,1.1291676203554744,1.1291676203554744
1658789508306745,1.8005645838102282,0.8850232700083325,0.5188067444876197
1658789508322738,0.5798428320745188,0.6408789196611906,-0.09155413138023505
1658789508338731,-0.7629510948347615,0.213626306553806,0.33569848172737693
1658789508354725,-0.213626306553806,-0.7629510948347615,0.09155413138023505
1658789508370718,0.03051804379333589,-0.8239871824216607,-0.7019150072480898
1658789508386711,-0.7629510948347615,-0.3967345693140487,-0.6408789196611906
1658789508402704,-2.105745021744042,-0.7019150072480898,-1.1291676203554744
1658789508418697,0.03051804379333589,-0.15259021896690683,-1.4953841458761872
1658789508434690,1.3122758831159445,-0.15259021896690683,-1.1902037079423735
1658789508450683,1.983672846570471,-0.213626306553806,-0.5188067444876197
1658789508466676,1.1291676203554744,-0.5188067444876197,-1.1291676203554744
1658789508482669,0.03051804379333589,-0.6408789196611906,-1.983672846570471
1658789508498663,0.7019150072480898,-0.8850232700083325,-1.4343480582895154
1658789508514557,1.2512397955290453,-1.3733119707026162,-0.8850232700083325
1658789508530549,1.8616006713969,-0.8850232700083325,-0.5798428320745188
1658789508546542,1.4343480582895154,-0.6408789196611906,-1.0681315327688026
1658789508562534,0.5798428320745188,-1.1902037079423735,-1.1902037079423735
1658789508578527,1.3733119707026162,-1.5564202334630863,-0.5188067444876197
1658789508594520,0.5188067444876197,-2.410925459678083,-0.213626306553806
1658789508610512,0.5798428320745188,-1.739528496223329,-1.3122758831159445
1658789508626505,0.213626306553806,-1.0681315327688026,-1.8005645838102282
1658789508642498,2.288853284504512,-1.6174563210497581,-1.0681315327688026
1658789508658490,4.180971999694748,-2.105745021744042,-0.7019150072480898
1658789508674483,5.0354772259097444,-0.9460593575952316,-1.3733119707026162
1658789508690476,6.500343327992596,0.45777065690094787,-1.6784924086366573
1658789508706468,7.843137254901876,1.3122758831159445,-1.3733119707026162
1658789508722461,6.134126802471883,1.2512397955290453,-2.288853284504512
1658789508738453,4.242008087281647,1.0681315327688026,-3.570611123826893
1658789508754446,5.401693751430457,1.0681315327688026,-2.9602502479590385
1658789508770439,8.697642481116873,-0.9460593575952316,-1.3122758831159445
1658789508786431,14.679179064621849,-2.8381780727854675,-1.3733119707026162
1658789508802424,16.32715342946517,-3.1433585107195086,-1.739528496223329
1658789508818417,9.430075532158298,-4.547188525215461,-1.6784924086366573
1658789508834289,3.5095750362402214,-1.5564202334630863,-2.4719615472647547
1658789508850281,0.03051804379333589,0.45777065690094787,-2.227817196917613
1658789508866274,1.739528496223329,-0.5798428320745188,-2.227817196917613
1658789508882266,2.410925459678083,-1.2512397955290453,-1.4343480582895154
1658789508898258,1.0070954451819034,-1.1902037079423735,-0.9460593575952316
1658789508914250,-4.730296787975931,0.8850232700083325,-1.4343480582895154
1658789508930242,-10.467689021133765,-0.09155413138023505,-0.8850232700083325
1658789508946234,-7.782101167315204,-2.655069810025225,0.8239871824216607
1658789508962226,-4.242008087281647,-3.7537193865873633,1.1902037079423735
1658789508978219,1.2512397955290453,-2.7771419851987957,0.45777065690094787
1658789508994211,5.76791027695117,-2.655069810025225,-0.03051804379333589
1658789509010203,8.6366063935302,-2.288853284504512,-0.03051804379333589
1658789509026195,7.965209430075447,-2.8992141603723667,0.7629510948347615
1658789509042187,4.058899824521177,-2.4719615472647547,0.15259021896690683
1658789509058179,-1.0681315327688026,-0.3967345693140487,-0.5798428320745188
1658789509074172,0.213626306553806,-0.33569848172737693,0.33569848172737693
1658789509090164,1.6784924086366573,-1.1902037079423735,1.6174563210497581
1658789509106156,-0.9460593575952316,-1.8616006713969,1.1291676203554744
1658789509122148,-5.584802014190927,-0.8850232700083325,0.45777065690094787
1658789509138140,-5.157549401083315,-0.5798428320745188,0.7629510948347615
1658789509154052,-3.1433585107195086,-1.3122758831159445,1.6784924086366573
1658789509170045,-0.33569848172737693,-2.04470893415737,1.9226367589837992
1658789509186037,-0.7629510948347615,-1.4343480582895154,1.6174563210497581
1658789509202029,-2.4719615472647547,0.33569848172737693,1.3122758831159445
1658789509218021,-0.2746623941404778,-0.15259021896690683,0.8239871824216607
1658789509234013,2.8992141603723667,-1.1902037079423735,0.33569848172737693
1658789509250005,2.3498893720911838,-1.739528496223329,-0.03051804379333589
1658789509265998,-0.3967345693140487,-0.8239871824216607,-0.213626306553806
1658789509281990,-0.5188067444876197,-0.213626306553806,-0.7629510948347615
1658789509297982,-2.7161058976118966,-0.5188067444876197,-0.2746623941404778
1658789509313974,-2.4719615472647547,-1.1291676203554744,0.09155413138023505
1658789509329966,-2.9602502479590385,-0.6408789196611906,-0.5798428320745188
1658789509345958,-2.227817196917613,-0.15259021896690683,-1.3122758831159445
1658789509361950,-0.7629510948347615,-0.15259021896690683,-0.9460593575952316
1658789509377943,0.8850232700083325,-0.45777065690094787,-0.03051804379333589
1658789509393935,2.227817196917613,0.3967345693140487,-0.6408789196611906
1658789509409927,2.227817196917613,1.3733119707026162,-1.6174563210497581
1658789509425919,2.227817196917613,-0.09155413138023505,-1.739528496223329
1658789509441911,2.655069810025225,-1.3733119707026162,-2.288853284504512
1658789509457903,2.655069810025225,-0.3967345693140487,-1.739528496223329
1658789509473816,1.3733119707026162,0.8850232700083325,-1.6784924086366573
1658789509489807,0.9460593575952316,0.8850232700083325,-2.3498893720911838
1658789509505799,-0.8850232700083325,-0.09155413138023505,-1.6174563210497581
1658789509521791,-3.3875028610666504,-0.3967345693140487,-1.0070954451819034
1658789509537782,-4.242008087281647,-0.15259021896690683,-1.0681315327688026
1658789509553774,0.09155413138023505,-0.15259021896690683,-1.6784924086366573
1658789509569766,1.3122758831159445,-0.9460593575952316,-1.739528496223329
1658789509585757,-1.3733119707026162,-2.04470893415737,-1.4953841458761872
1658789509601749,-4.669260700389032,-1.8005645838102282,-2.105745021744042
1658789509617741,-4.42511635004189,0.09155413138023505,-2.166781109330941
1658789509633732,-0.9460593575952316,-0.15259021896690683,-1.4953841458761872
1658789509649724,1.9226367589837992,-0.7019150072480898,-1.1902037079423735
1658789509665716,1.1291676203554744,-0.7629510948347615,-1.4953841458761872
1658789509681707,0.15259021896690683,-0.9460593575952316,-1.4953841458761872
1658789509697699,1.3733119707026162,-1.4343480582895154,-1.3122758831159445
1658789509713691,2.105745021744042,-1.5564202334630863,-1.4953841458761872
1658789509729683,1.5564202334630863,-1.8616006713969,-1.5564202334630863
1658789509745674,0.33569848172737693,-1.3733119707026162,-1.8005645838102282
1658789509761666,0.7629510948347615,-0.5188067444876197,-1.739528496223329
1658789509777658,2.7771419851987957,-0.9460593575952316,-1.1291676203554744
1658789509793579,2.4719615472647547,-1.2512397955290453,-0.8850232700083325
1658789509809570,-0.33569848172737693,-1.0681315327688026,-0.7629510948347615
1658789509825561,-2.105745021744042,-1.4343480582895154,-0.45777065690094787
1658789509841552,-2.7771419851987957,-2.04470893415737,-0.7019150072480898
1658789509857544,-0.7629510948347615,-1.5564202334630863,-1.1291676203554744
1658789509873535,1.8616006713969,-0.5798428320745188,-1.0070954451819034
1658789509889526,2.227817196917613,-0.9460593575952316,-1.0681315327688026
1658789509905517,2.3498893720911838,-1.3122758831159445,-1.4953841458761872
1658789509921508,-0.09155413138023505,-2.166781109330941,-1.0070954451819034
1658789509937500,-1.6784924086366573,-1.3733119707026162,-0.5188067444876197
1658789509953491,-0.6408789196611906,0.15259021896690683,-0.03051804379333589
1658789509969482,0.8239871824216607,-0.15259021896690683,-0.15259021896690683
1658789509985473,0.5188067444876197,-1.4953841458761872,-0.5188067444876197
1658789510001464,0.2746623941404778,-1.6174563210497581,-0.6408789196611906
1658789510017456,0.33569848172737693,-0.7629510948347615,-1.1902037079423735
1658789510033447,1.2512397955290453,-0.213626306553806,-2.227817196917613
1658789510049438,3.2043945983061803,-0.8850232700083325,-1.983672846570471
1658789510065429,3.0823224231326094,-1.983672846570471,-1.3122758831159445
1658789510081421,1.1291676203554744,-1.5564202334630863,-1.6784924086366573
1658789510097412,-1.739528496223329,-0.5798428320745188,-1.4953841458761872
1658789510113311,0.8850232700083325,-0.8850232700083325,-1.6174563210497581
1658789510129303,3.5095750362402214,-1.2512397955290453,-0.9460593575952316
1658789510145294,1.6784924086366573,-1.1902037079423735,-0.8850232700083325
1658789510161285,-1.8005645838102282,-0.15259021896690683,-1.2512397955290453
1658789510177276,-0.7629510948347615,0.09155413138023505,-0.5798428320745188
1658789510193267,1.739528496223329,-0.3967345693140487,-0.2746623941404778
1658789510209259,1.0681315327688026,-0.5798428320745188,-0.33569848172737693
1658789510225250,-3.5095750362402214,-0.3967345693140487,-0.6408789196611906
1658789510241241,-3.2043945983061803,0.09155413138023505,-0.5798428320745188
1658789510257232,-0.2746623941404778,-0.03051804379333589,0.6408789196611906
1658789510273224,1.1902037079423735,0.09155413138023505,1.0681315327688026
1658789510289215,1.3733119707026162,0.5798428320745188,0.213626306553806
1658789510305206,1.9226367589837992,0.5798428320745188,-0.5188067444876197
1658789510321197,2.8381780727854675,-0.7019150072480898,-0.2746623941404778
1658789510337188,0.5798428320745188,-1.1902037079423735,-0.3967345693140487
1658789510353180,-2.3498893720911838,-0.7019150072480898,-0.8239871824216607
1658789510369171,-2.166781109330941,-0.15259021896690683,-1.3122758831159445
1658789510385162,-0.09155413138023505,-0.8239871824216607,-1.0681315327688026
1658789510401153,1.0681315327688026,-1.0070954451819034,-1.0070954451819034
1658789510417144,-0.7019150072480898,-0.15259021896690683,-0.9460593575952316
1658789510433075,-1.0070954451819034,-0.15259021896690683,-0.8850232700083325
1658789510449065,-0.09155413138023505,-0.8850232700083325,-0.3967345693140487
1658789510465056,-0.5188067444876197,-0.7019150072480898,-0.5188067444876197
1658789510481047,-0.8850232700083325,-0.03051804379333589,-1.6174563210497581
1658789510497038,-0.213626306553806,-0.3967345693140487,-1.5564202334630863
1658789510513028,0.7019150072480898,-1.2512397955290453,-0.7629510948347615
1658789510529019,0.09155413138023505,-1.1902037079423735,-0.7019150072480898
1658789510545010,-1.8616006713969,-0.15259021896690683,-0.9460593575952316
1658789510561000,-0.5798428320745188,0.03051804379333589,-0.9460593575952316
1658789510576991,1.983672846570471,-0.45777065690094787,-0.45777065690094787
1658789510592982,1.8616006713969,-0.9460593575952316,0.15259021896690683
1658789510608973,-1.3733119707026162,-1.2512397955290453,-0.2746623941404778
1658789510624963,-2.655069810025225,-0.3967345693140487,-0.6408789196611906
1658789510640954,-0.8850232700083325,-0.213626306553806,-0.2746623941404778
1658789510656945,2.166781109330941,-0.2746623941404778,-0.03051804379333589
1658789510672936,1.3733119707026162,-0.6408789196611906,-0.2746623941404778
1658789510688926,-0.3967345693140487,-0.33569848172737693,-0.8239871824216607
1658789510704917,-1.0070954451819034,-0.2746623941404778,-0.8850232700083325
1658789510720908,-1.4953841458761872,-0.7019150072480898,-0.5798428320745188
1658789510736899,-0.03051804379333589,-1.0681315327688026,-0.7629510948347615
1658789510752807,1.4953841458761872,-1.3122758831159445,-1.1291676203554744
1658789510768798,0.7629510948347615,-0.9460593575952316,-1.2512397955290453
1658789510784789,-0.7629510948347615,-0.9460593575952316,-1.5564202334630863
1658789510800779,-1.3122758831159445,-0.9460593575952316,-1.3733119707026162
1658789510816770,-1.4343480582895154,-0.8239871824216607,-1.1902037079423735
1658789510832761,-0.45777065690094787,-0.5798428320745188,-1.6174563210497581
1658789510848752,-0.3967345693140487,-0.2746623941404778,-1.8005645838102282
1658789510864742,0.6408789196611906,-0.7629510948347615,-1.5564202334630863
1658789510880733,1.1291676203554744,-1.3122758831159445,-0.8850232700083325
1658789510896724,0.5798428320745188,-0.7019150072480898,-0.15259021896690683
1658789510912715,-0.213626306553806,-0.33569848172737693,-0.5188067444876197
1658789510928705,1.1291676203554744,-0.6408789196611906,-0.8239871824216607
1658789510944696,0.8850232700083325,-1.2512397955290453,-0.8239871824216607
1658789510960687,-0.213626306553806,-1.2512397955290453,-0.33569848172737693
1658789510976678,-0.33569848172737693,-0.8850232700083325,-0.5188067444876197
1658789510992668,-0.3967345693140487,-0.5798428320745188,-0.45777065690094787
1658789511008659,0.5188067444876197,-1.2512397955290453,-0.3967345693140487
1658789511024650,0.45777065690094787,-1.3122758831159445,-0.5188067444876197
1658789511040640,0.3967345693140487,-0.6408789196611906,-0.7019150072480898
1658789511056631,0.8239871824216607,-0.5798428320745188,-0.7019150072480898
1658789511072570,0.3967345693140487,-1.5564202334630863,-0.5188067444876197
1658789511088561,0.33569848172737693,-1.739528496223329,-0.45777065690094787
1658789511104551,0.8239871824216607,-1.5564202334630863,-0.8850232700083325
1658789511120541,1.6784924086366573,-0.7629510948347615,-1.1902037079423735
1658789511136531,0.9460593575952316,-1.0070954451819034,-1.1291676203554744
1658789511152522,0.7019150072480898,-1.0681315327688026,-0.9460593575952316
1658789511168512,-0.8239871824216607,-1.3122758831159445,-0.7019150072480898
1658789511184502,-0.9460593575952316,-0.15259021896690683,-1.0681315327688026
1658789511200492,0.213626306553806,-0.09155413138023505,-1.0070954451819034
1658789511216483,0.9460593575952316,-1.0681315327688026,-0.8850232700083325
1658789511232473,-0.09155413138023505,-1.0681315327688026,-0.5798428320745188
1658789511248463,-2.227817196917613,-0.7019150072480898,-0.7629510948347615
1658789511264454,-1.4343480582895154,0.33569848172737693,-1.1902037079423735
1658789511280444,1.2512397955290453,-0.15259021896690683,-0.8850232700083325
1658789511296434,3.570611123826893,-0.7019150072480898,-0.7629510948347615
1658789511312424,2.532997634851654,-0.33569848172737693,-1.1902037079423735
1658789511328415,0.5188067444876197,0.15259021896690683,-1.4953841458761872
1658789511344405,0.03051804379333589,-0.5798428320745188,-1.2512397955290453
1658789511360395,0.03051804379333589,-0.8850232700083325,-0.7629510948347615
1658789511376385,-0.09155413138023505,-0.5188067444876197,-0.5188067444876197
1658789511392334,-0.3967345693140487,0.03051804379333589,-0.8850232700083325
1658789511408324,0.8239871824216607,-0.03051804379333589,-0.7019150072480898
1658789511424314,1.1902037079423735,-0.03051804379333589,-0.09155413138023505
1658789511440304,0.03051804379333589,-0.213626306553806,-0.03051804379333589
1658789511456295,-1.1291676203554744,0.15259021896690683,-0.6408789196611906
1658789511472285,-0.8239871824216607,0.03051804379333589,-0.6408789196611906
1658789511488275,0.213626306553806,-0.09155413138023505,-0.15259021896690683
1658789511504265,0.45777065690094787,-0.09155413138023505,0.213626306553806
1658789511520256,-0.8239871824216607,0.3967345693140487,0.213626306553806
1658789511536246,-0.15259021896690683,0.2746623941404778,0.03051804379333589
1658789511552236,1.3733119707026162,-0.15259021896690683,0.03051804379333589
1658789511568226,0.33569848172737693,-1.3122758831159445,-0.15259021896690683
1658789511584217,-2.8381780727854675,-1.4343480582895154,-0.15259021896690683
1658789511600207,-2.655069810025225,-0.9460593575952316,0.2746623941404778
1658789511616197,-0.15259021896690683,-0.8239871824216607,0.45777065690094787
1658789511632187,2.288853284504512,-1.3733119707026162,0.7019150072480898
1658789511648178,1.739528496223329,-1.6174563210497581,0.45777065690094787
1658789511664168,-0.8239871824216607,-1.3122758831159445,-0.33569848172737693
1658789511680158,-0.33569848172737693,-0.6408789196611906,-0.7629510948347615
1658789511696148,0.8239871824216607,-0.8239871824216607,-0.45777065690094787
1658789511712066,-0.213626306553806,-1.2512397955290453,-0.33569848172737693
1658789511728056,-1.4343480582895154,-1.5564202334630863,-0.2746623941404778
1658789511744046,-2.532997634851654,-1.5564202334630863,-0.8850232700083325
1658789511760036,-2.410925459678083,-1.6784924086366573,-1.0681315327688026
1658789511776025,-0.213626306553806,-1.2512397955290453,-1.0681315327688026
1658789511792015,1.0681315327688026,-0.7019150072480898,-0.8850232700083325
1658789511808005,0.15259021896690683,-0.5798428320745188,-1.2512397955290453
1658789511823995,0.213626306553806,-0.8850232700083325,-1.0681315327688026
1658789511839985,1.8616006713969,-1.4343480582895154,-1.0070954451819034
1658789511855974,1.6174563210497581,-1.0681315327688026,-0.9460593575952316
1658789511871964,1.1291676203554744,-0.7629510948347615,-0.8850232700083325
1658789511887954,0.8239871824216607,-0.33569848172737693,-0.7629510948347615
1658789511903944,0.6408789196611906,-0.09155413138023505,-0.2746623941404778
1658789511919933,0.15259021896690683,-0.03051804379333589,0.2746623941404778
1658789511935923,-0.03051804379333589,0.213626306553806,-0.45777065690094787
1658789511951913,0.2746623941404778,-0.09155413138023505,-0.8850232700083325
1658789511967903,0.45777065690094787,-1.0681315327688026,-0.3967345693140487
1658789511983893,-1.6784924086366573,-2.5940337224383256,0.2746623941404778
1658789511999882,-2.410925459678083,-1.983672846570471,0.45777065690094787
1658789512015872,-1.4343480582895154,-0.8850232700083325,-0.03051804379333589
1658789512031829,-0.2746623941404778,-0.45777065690094787,0.213626306553806
1658789512047819,-0.7629510948347615,-1.0070954451819034,0.3967345693140487
1658789512063809,-1.1902037079423735,-0.8239871824216607,0.03051804379333589
1658789512079799,-0.09155413138023505,-0.03051804379333589,-0.213626306553806
1658789512095789,1.739528496223329,-0.2746623941404778,-0.09155413138023505
1658789512111778,2.410925459678083,-1.4343480582895154,-0.03051804379333589
1658789512127768,-0.09155413138023505,-1.739528496223329,-0.15259021896690683
1658789512143758,-1.5564202334630863,-1.0681315327688026,-0.8239871824216607
1658789512159748,0.8850232700083325,-0.9460593575952316,-1.3733119707026162
1658789512175737,2.410925459678083,-0.8850232700083325,-1.0070954451819034
1658789512191727,1.8005645838102282,-1.1291676203554744,-0.213626306553806
1658789512207717,-0.09155413138023505,-0.9460593575952316,-0.15259021896690683
1658789512223707,-1.0070954451819034,-0.6408789196611906,-0.6408789196611906
1658789512239697,0.213626306553806,-0.8239871824216607,-1.0681315327688026
1658789512255686,2.288853284504512,-0.9460593575952316,-1.1902037079423735
1658789512271676,3.0212863355459376,-1.6174563210497581,-1.1291676203554744
1658789512287666,1.6174563210497581,-2.655069810025225,-1.1291676203554744
1658789512303656,-0.7019150072480898,-2.655069810025225,-1.5564202334630863
1658789512319646,-1.0681315327688026,-1.2512397955290453,-1.2512397955290453
1658789512335635,0.2746623941404778,-0.5188067444876197,-0.3967345693140487
1658789512351562,1.1291676203554744,-1.0681315327688026,0.15259021896690683
1658789512367551,0.7019150072480898,-1.739528496223329,-0.09155413138023505
1658789512383541,-0.09155413138023505,-1.0070954451819034,-0.5188067444876197
1658789512399530,0.45777065690094787,-0.3967345693140487,-1.0070954451819034
1658789512415519,1.0681315327688026,-1.4343480582895154,-1.1902037079423735
1658789512431509,0.213626306553806,-1.9226367589837992,-0.9460593575952316
1658789512447498,-0.3967345693140487,-1.1902037079423735,-0.8239871824216607
1658789512463487,-0.33569848172737693,0.03051804379333589,-1.3122758831159445
1658789512479477,0.6408789196611906,-0.9460593575952316,-0.8239871824216607
1658789512495466,2.166781109330941,-1.4953841458761872,-0.2746623941404778
1658789512511455,3.3264667734797513,-0.09155413138023505,-0.8239871824216607
1658789512527444,3.997863736934505,0.45777065690094787,-1.4343480582895154
1658789512543434,2.3498893720911838,-0.45777065690094787,-1.3733119707026162
1658789512559423,0.5188067444876197,-1.1902037079423735,-1.2512397955290453
1658789512575412,0.15259021896690683,-0.213626306553806,-1.4953841458761872
1658789512591402,1.3733119707026162,0.7019150072480898,-2.105745021744042
1658789512607391,2.532997634851654,1.0681315327688026,-2.227817196917613
1658789512623380,2.410925459678083,0.3967345693140487,-1.1902037079423735
1658789512639370,1.6174563210497581,-0.213626306553806,-0.8850232700083325
1658789512655359,1.6784924086366573,0.2746623941404778,-1.0681315327688026
1658789512671325,2.7771419851987957,0.2746623941404778,-1.1902037079423735
1658789512687315,2.166781109330941,-0.15259021896690683,-1.3733119707026162
1658789512703304,0.7629510948347615,-1.0070954451819034,-0.9460593575952316
1658789512719293,0.5798428320745188,-0.2746623941404778,-0.33569848172737693
1658789512735283,1.3122758831159445,1.1291676203554744,-0.2746623941404778
1658789512751272,1.6784924086366573,1.4953841458761872,-0.2746623941404778
1658789512767261,1.0070954451819034,0.7019150072480898,-0.2746623941404778
1658789512783250,1.2512397955290453,0.213626306553806,-0.15259021896690683
1658789512799240,0.33569848172737693,0.3967345693140487,0.15259021896690683
1658789512815229,-0.3967345693140487,0.5798428320745188,0.213626306553806
1658789512831218,-1.1902037079423735,-0.03051804379333589,0.2746623941404778
1658789512847208,0.5798428320745188,-0.5188067444876197,0.2746623941404778
1658789512863197,1.8616006713969,-0.7019150072480898,-0.15259021896690683
1658789512879186,1.739528496223329,-0.33569848172737693,-0.3967345693140487
1658789512895176,-0.2746623941404778,-0.15259021896690683,-0.213626306553806
1658789512911165,-0.9460593575952316,-0.45777065690094787,0.03051804379333589
1658789512927154,-1.0070954451819034,-0.8850232700083325,0.33569848172737693
1658789512943143,-0.7629510948347615,-0.15259021896690683,0.03051804379333589
1658789512959133,0.7629510948347615,0.8850232700083325,-0.8850232700083325
1658789512975122,1.8005645838102282,0.15259021896690683,-1.1291676203554744
1658789512991058,1.9226367589837992,-0.9460593575952316,-1.1291676203554744
1658789513007047,-1.1902037079423735,-1.2512397955290453,-0.5798428320745188
1658789513023037,-2.9602502479590385,-0.213626306553806,-0.6408789196611906
1658789513039026,-2.166781109330941,0.6408789196611906,-0.8239871824216607
1658789513055015,0.6408789196611906,-0.213626306553806,-0.6408789196611906
1658789513071004,1.6174563210497581,-1.3733119707026162,-0.8239871824216607
1658789513086994,0.45777065690094787,-1.0070954451819034,-1.2512397955290453
1658789513102983,-0.9460593575952316,-0.5188067444876197,-1.8005645838102282
1658789513118972,-1.8616006713969,-0.5798428320745188,-2.3498893720911838
1658789513134962,-2.105745021744042,-0.7629510948347615,-2.288853284504512
1658789513150951,-0.3967345693140487,-0.15259021896690683,-1.8616006713969
1658789513166940,2.7771419851987957,0.8239871824216607,-2.288853284504512
1658789513182930,3.814755474174035,0.5188067444876197,-2.3498893720911838
1658789513198919,3.1433585107195086,-0.3967345693140487,-1.8616006713969
1658789513214908,2.288853284504512,-0.33569848172737693,-2.3498893720911838
1658789513230898,1.4953841458761872,-0.09155413138023505,-2.532997634851654
1658789513246887,1.4343480582895154,-0.45777065690094787,-1.8005645838102282
1658789513262876,1.0681315327688026,-0.7629510948347615,-0.9460593575952316
1658789513278865,-0.09155413138023505,-1.0070954451819034,-1.0070954451819034
1658789513294855,-1.4343480582895154,-0.6408789196611906,-0.8850232700083325
1658789513310821,-0.45777065690094787,-0.15259021896690683,-0.8239871824216607
1658789513326810,3.1433585107195086,-0.03051804379333589,-0.2746623941404778
1658789513342799,3.3264667734797513,-0.5188067444876197,-0.2746623941404778
1658789513358788,1.1291676203554744,-0.8850232700083325,-0.33569848172737693
1658789513374776,-1.1291676203554744,-1.3122758831159445,-0.03051804379333589
1658789513390765,-0.7629510948347615,-1.1902037079423735,0.15259021896690683
1658789513406754,0.5188067444876197,-1.0070954451819034,0.03051804379333589
1658789513422743,2.105745021744042,-0.5798428320745188,-0.15259021896690683
1658789513438732,1.8005645838102282,-0.7629510948347615,-0.45777065690094787
1658789513454721,0.03051804379333589,-1.2512397955290453,-0.5798428320745188
1658789513470709,-1.6174563210497581,-1.6784924086366573,0.2746623941404778
1658789513486698,-1.739528496223329,-1.1291676203554744,0.5188067444876197
1658789513502687,0.9460593575952316,-0.45777065690094787,0.03051804379333589
1658789513518676,2.4719615472647547,-1.3122758831159445,-0.3967345693140487
1658789513534665,2.9602502479590385,-1.6784924086366573,-0.09155413138023505
1658789513550654,0.5188067444876197,-1.3733119707026162,0.09155413138023505
1658789513566642,-0.7629510948347615,-0.7019150072480898,-0.45777065690094787
1658789513582631,-1.0070954451819034,-0.7019150072480898,-0.45777065690094787
1658789513598620,-0.6408789196611906,-1.0070954451819034,-0.3967345693140487
1658789513614609,1.6784924086366573,-0.7629510948347615,-1.1902037079423735
1658789513630584,1.0070954451819034,-0.09155413138023505,-2.655069810025225
1658789513646573,-1.1902037079423735,0.213626306553806,-2.9602502479590385
1658789513662562,-3.6316472114137923,-0.213626306553806,-1.8616006713969
1658789513678551,-0.8239871824216607,-0.7629510948347615,-1.1291676203554744
1658789513694540,2.7771419851987957,-0.33569848172737693,-1.8005645838102282
1658789513710528,5.2185854886702145,0.33569848172737693,-2.288853284504512
1658789513726517,4.364080262455218,-0.03051804379333589,-1.6174563210497581
1658789513742506,1.3733119707026162,-0.5798428320745188,-1.6174563210497581
1658789513758495,-0.5798428320745188,-0.3967345693140487,-1.983672846570471
1658789513774484,-0.03051804379333589,0.2746623941404778,-1.8005645838102282
1658789513790473,2.3498893720911838,0.213626306553806,-1.1902037079423735
1658789513806461,1.8005645838102282,-0.2746623941404778,-1.4343480582895154
1658789513822450,-0.3967345693140487,-0.6408789196611906,-1.4953841458761872
1658789513838439,-0.5188067444876197,0.3967345693140487,-0.9460593575952316
1658789513854428,0.7629510948347615,0.7019150072480898,-0.213626306553806
1658789513870417,1.1902037079423735,0.03051804379333589,0.213626306553806
1658789513886406,1.1902037079423735,-0.5188067444876197,0.213626306553806
1658789513902394,1.3122758831159445,-0.03051804379333589,-0.03051804379333589
1658789513918383,1.983672846570471,0.33569848172737693,0.2746623941404778
1658789513934372,2.9602502479590385,0.03051804379333589,0.6408789196611906
1658789513950348,0.7629510948347615,-0.5798428320745188,1.0681315327688026
1658789513966336,-1.6784924086366573,-0.8850232700083325,1.1291676203554744
1658789513982325,-1.2512397955290453,-0.213626306553806,0.8850232700083325
1658789513998314,0.45777065690094787,-0.3967345693140487,0.5188067444876197
1658789514014303,1.1902037079423735,-0.8850232700083325,0.45777065690094787
1658789514030292,-0.9460593575952316,-1.4343480582895154,0.5188067444876197
1658789514046280,-2.655069810025225,-0.8850232700083325,0.15259021896690683
1658789514062269,-1.739528496223329,-0.7019150072480898,-0.5798428320745188
1658789514078258,0.213626306553806,-1.0070954451819034,-1.0070954451819034
1658789514094247,1.1291676203554744,-1.0070954451819034,-0.7629510948347615
1658789514110236,0.9460593575952316,-0.8850232700083325,-0.8850232700083325
1658789514126225,1.983672846570471,-0.33569848172737693,-1.3122758831159445
1658789514142213,1.739528496223329,-0.33569848172737693,-1.6174563210497581
1658789514158202,1.1291676203554744,-0.7629510948347615,-1.9226367589837992
1658789514174191,1.5564202334630863,-0.7629510948347615,-1.8005645838102282
1658789514190180,0.2746623941404778,-0.9460593575952316,-1.6174563210497581
1658789514206169,-0.3967345693140487,-0.5798428320745188,-1.6784924086366573
1658789514222158,-0.33569848172737693,0.03051804379333589,-1.4953841458761872
1658789514238146,0.5798428320745188,0.2746623941404778,-1.6174563210497581
1658789514254135,3.1433585107195086,0.33569848172737693,-2.04470893415737
1658789514270111,4.119935912108076,0.5188067444876197,-2.227817196917613
1658789514286100,3.4485389486533222,0.7019150072480898,-1.9226367589837992
1658789514302088,1.1902037079423735,0.15259021896690683,-1.8005645838102282
1658789514318077,0.33569848172737693,-0.15259021896690683,-1.4953841458761872
1658789514334066,0.15259021896690683,0.15259021896690683,-1.1291676203554744
1658789514350055,1.3733119707026162,0.45777065690094787,-0.7629510948347615
1658789514366044,1.6784924086366573,0.2746623941404778,-0.3967345693140487
1658789514382032,0.03051804379333589,-0.2746623941404778,-0.2746623941404778
1658789514398021,-0.5188067444876197,-0.15259021896690683,-0.213626306553806
1658789514414010,-0.09155413138023505,0.5798428320745188,0.03051804379333589
1658789514429999,1.3733119707026162,0.5188067444876197,-0.213626306553806
1658789514445988,0.5798428320745188,-0.15259021896690683,-0.213626306553806
1658789514461977,-1.1291676203554744,-0.5798428320745188,0.03051804379333589
1658789514477965,0.03051804379333589,0.03051804379333589,0.03051804379333589
1658789514493954,1.6784924086366573,0.2746623941404778,-0.15259021896690683
1658789514509943,1.0681315327688026,-0.5188067444876197,-0.5188067444876197
1658789514525932,-1.2512397955290453,-1.3122758831159445,-0.5798428320745188
1658789514541921,-1.4343480582895154,-1.3733119707026162,-1.0681315327688026
1658789514557910,0.2746623941404778,-0.7019150072480898,-0.7019150072480898
1658789514573898,-0.09155413138023505,-0.7629510948347615,-0.03051804379333589
1658789514589843,-1.0070954451819034,-1.3733119707026162,0.15259021896690683
1658789514605832,0.2746623941404778,-1.1291676203554744,0.09155413138023505
1658789514621820,3.0823224231326094,-0.8239871824216607,-0.5798428320745188
1658789514637808,4.058899824521177,-0.8239871824216607,-0.9460593575952316
1658789514653797,1.983672846570471,-1.2512397955290453,-0.45777065690094787
1658789514669785,-0.9460593575952316,-0.6408789196611906,-0.33569848172737693
1658789514685773,-1.9226367589837992,-0.3967345693140487,-0.03051804379333589
1658789514701762,-0.7629510948347615,0.03051804379333589,-0.2746623941404778
1658789514717750,1.739528496223329,0.8850232700083325,-0.5798428320745188
1658789514733739,3.5095750362402214,2.105745021744042,-0.6408789196611906
1658789514749727,4.60822461280236,3.3875028610666504,-1.0070954451819034
1658789514765715,4.791332875562603,3.875791561760934,-1.3733119707026162
1658789514781704,4.486152437628789,2.655069810025225,-1.5564202334630863
1658789514797692,3.6316472114137923,0.7629510948347615,-1.739528496223329
1658789514813680,2.410925459678083,-0.213626306553806,-1.6784924086366573
1658789514829669,0.03051804379333589,-0.09155413138023505,-1.3122758831159445
1658789514845657,0.5188067444876197,0.7629510948347615,-0.7629510948347615
1658789514861645,1.6784924086366573,0.09155413138023505,0.15259021896690683
1658789514877634,1.3122758831159445,-0.9460593575952316,-0.03051804379333589
1658789514893622,-0.7019150072480898,-1.1291676203554744,-0.3967345693140487
1658789514909607,-1.3122758831159445,-0.5798428320745188,-0.5188067444876197
1658789514925595,0.5188067444876197,-0.2746623941404778,-0.15259021896690683
1658789514941583,-0.03051804379333589,-0.7019150072480898,0.15259021896690683
1658789514957572,-1.4343480582895154,-1.0681315327688026,-0.2746623941404778
1658789514973560,-1.5564202334630863,-0.8850232700083325,-1.0681315327688026
1658789514989548,1.1902037079423735,-0.8850232700083325,-1.1902037079423735
1658789515005537,2.8992141603723667,-1.3733119707026162,-1.1291676203554744
1658789515021525,0.8850232700083325,-1.8005645838102282,-0.9460593575952316
1658789515037513,-2.5940337224383256,-1.8005645838102282,-1.2512397955290453
1658789515053502,-0.8239871824216607,-1.739528496223329,-1.1902037079423735
1658789515069490,0.15259021896690683,-1.5564202334630863,-1.1291676203554744
1658789515085478,1.5564202334630863,-0.7019150072480898,-1.4343480582895154
1658789515101467,0.7019150072480898,-0.5188067444876197,-1.2512397955290453
1658789515117455,0.33569848172737693,-0.8850232700083325,-0.7019150072480898
1658789515133443,0.33569848172737693,-0.8850232700083325,-0.45777065690094787
1658789515149432,1.8005645838102282,-0.3967345693140487,-1.1902037079423735
1658789515165420,2.7161058976118966,-0.5188067444876197,-0.9460593575952316
1658789515181409,1.8005645838102282,-1.739528496223329,-0.45777065690094787
1658789515197397,0.33569848172737693,-1.8005645838102282,-0.5188067444876197
1658789515213385,-0.2746623941404778,-1.3122758831159445,-0.5188067444876197
1658789515229339,-0.9460593575952316,-1.6174563210497581,0.03051804379333589
1658789515245328,0.2746623941404778,-1.0681315327688026,0.6408789196611906
1658789515261316,0.9460593575952316,-0.8239871824216607,0.33569848172737693
1658789515277304,1.4953841458761872,-0.5188067444876197,-0.9460593575952316
1658789515293293,1.8005645838102282,-0.8239871824216607,-1.3122758831159445
1658789515309281,1.1291676203554744,-1.2512397955290453,-0.8850232700083325
1658789515325269,0.8239871824216607,-1.4953841458761872,-0.2746623941404778
1658789515341258,0.45777065690094787,-0.9460593575952316,-0.33569848172737693
1658789515357246,-0.03051804379333589,-0.6408789196611906,-0.213626306553806
1658789515373234,1.4953841458761872,-0.7019150072480898,0.15259021896690683
1658789515389223,2.7161058976118966,-0.8239871824216607,-0.213626306553806
1658789515405211,2.532997634851654,-1.1902037079423735,-0.33569848172737693
1658789515421199,0.6408789196611906,-1.4953841458761872,-0.5188067444876197
1658789515437188,0.5188067444876197,-1.1902037079423735,-0.8239871824216607
1658789515453176,0.7629510948347615,-0.3967345693140487,-1.1902037079423735
1658789515469164,-0.8239871824216607,-0.5188067444876197,-1.4343480582895154
1658789515485153,-1.1902037079423735,-0.3967345693140487,-0.9460593575952316
1658789515501141,0.03051804379333589,-0.3967345693140487,-0.33569848172737693
1658789515517130,2.3498893720911838,-0.8850232700083325,-0.5188067444876197
1658789515533118,2.227817196917613,-0.7629510948347615,-1.0681315327688026
1658789515549102,0.8239871824216607,-1.0070954451819034,-1.1902037079423735
1658789515565091,0.6408789196611906,-1.0681315327688026,-0.5188067444876197
1658789515581079,1.4343480582895154,-0.8239871824216607,-0.15259021896690683
1658789515597067,2.227817196917613,-1.1291676203554744,-0.2746623941404778
1658789515613056,0.3967345693140487,-1.0681315327688026,-0.5798428320745188
1658789515629044,-0.7629510948347615,-0.8850232700083325,-0.5798428320745188
1658789515645033,0.3967345693140487,-0.7629510948347615,-0.8850232700083325
1658789515661021,1.9226367589837992,-1.0070954451819034,-0.6408789196611906
1658789515677009,1.8616006713969,-1.1902037079423735,-0.3967345693140487
1658789515692998,0.2746623941404778,-1.3122758831159445,-0.3967345693140487
1658789515708986,-0.7019150072480898,-1.4953841458761872,-0.15259021896690683
1658789515724974,1.739528496223329,-1.0681315327688026,-0.03051804379333589
1658789515740963,2.7161058976118966,-0.6408789196611906,0.3967345693140487
1658789515756951,1.8616006713969,-0.3967345693140487,0.45777065690094787
1658789515772939,1.6784924086366573,-0.45777065690094787,0.15259021896690683
1658789515788928,0.8239871824216607,-1.0681315327688026,-0.15259021896690683
1658789515804916,1.3733119707026162,-0.8850232700083325,-0.33569848172737693
1658789515820904,0.33569848172737693,-0.33569848172737693,0.09155413138023505
1658789515836893,0.5798428320745188,-0.6408789196611906,0.2746623941404778
1658789515852881,1.6784924086366573,-1.3122758831159445,0.3967345693140487
1658789515868835,0.8850232700083325,-2.288853284504512,0.09155413138023505
1658789515884823,-0.33569848172737693,-1.983672846570471,-0.2746623941404778
1658789515900812,0.6408789196611906,-1.1902037079423735,-0.15259021896690683
1658789515916800,1.5564202334630863,-1.3122758831159445,-0.2746623941404778
1658789515932788,1.4953841458761872,-1.2512397955290453,-0.2746623941404778
1658789515948777,0.45777065690094787,-0.8850232700083325,-0.2746623941404778
1658789515964765,1.8616006713969,-0.33569848172737693,-0.15259021896690683
1658789515980754,2.8992141603723667,-0.6408789196611906,-0.2746623941404778
1658789515996742,2.410925459678083,-0.9460593575952316,-0.5798428320745188
1658789516012730,0.33569848172737693,-0.5798428320745188,-0.45777065690094787
1658789516028719,0.7629510948347615,-0.45777065690094787,-0.3967345693140487
1658789516044707,1.9226367589837992,-0.5188067444876197,-0.5798428320745188
1658789516060695,1.0681315327688026,-0.8239871824216607,-1.0070954451819034
1658789516076684,-1.5564202334630863,-1.3122758831159445,-1.1291676203554744
1658789516092672,-2.105745021744042,-0.5798428320745188,-0.8239871824216607
1658789516108660,0.15259021896690683,-0.213626306553806,-0.5798428320745188
1658789516124649,2.227817196917613,-1.0681315327688026,-0.6408789196611906
1658789516140637,2.7771419851987957,-1.1291676203554744,-1.0070954451819034
1658789516156625,1.4343480582895154,-0.45777065690094787,-1.5564202334630863
1658789516172614,1.3122758831159445,-0.33569848172737693,-1.4343480582895154
1658789516188598,1.4953841458761872,-0.8239871824216607,-0.6408789196611906
1658789516204587,2.04470893415737,-0.9460593575952316,-0.5188067444876197
1658789516220575,1.8616006713969,-0.33569848172737693,-1.4953841458761872
1658789516236563,0.7019150072480898,0.2746623941404778,-1.8005645838102282
1658789516252552,1.0681315327688026,-0.8239871824216607,-1.0681315327688026
1658789516268540,-0.09155413138023505,-1.0681315327688026,-0.09155413138023505
1658789516284528,-0.8239871824216607,-0.3967345693140487,0.5188067444876197
1658789516300517,-1.3733119707026162,0.03051804379333589,0.3967345693140487
1658789516316505,-0.33569848172737693,0.09155413138023505,0.15259021896690683
1658789516332493,2.410925459678083,-0.5188067444876197,-0.3967345693140487
1658789516348482,3.1433585107195086,-0.5188067444876197,-0.45777065690094787
1658789516364470,2.9602502479590385,0.6408789196611906,-0.5798428320745188
1658789516380458,0.7019150072480898,0.09155413138023505,-0.5188067444876197
1658789516396447,0.5798428320745188,-0.8850232700083325,-0.5798428320745188
1658789516412435,-0.6408789196611906,-1.739528496223329,-0.7019150072480898
1658789516428424,-1.983672846570471,-1.3122758831159445,-0.8239871824216607
1658789516444412,-0.33569848172737693,0.15259021896690683,-1.0070954451819034
1658789516460400,1.4953841458761872,-0.5188067444876197,-0.7629510948347615
1658789516476389,3.570611123826893,-1.3733119707026162,-0.5798428320745188
1658789516492377,1.983672846570471,-1.0681315327688026,-0.9460593575952316
1658789516508331,-1.6174563210497581,-0.213626306553806,-1.1291676203554744
1658789516524319,-2.4719615472647547,-0.3967345693140487,-0.8239871824216607
1658789516540307,-1.0681315327688026,-0.5188067444876197,-0.5188067444876197
1658789516556295,-0.03051804379333589,-0.5188067444876197,-0.3967345693140487
1658789516572282,-0.09155413138023505,-0.2746623941404778,-0.3967345693140487
1658789516588270,-0.3967345693140487,-0.45777065690094787,-0.9460593575952316
1658789516604258,0.7019150072480898,-0.8239871824216607,-0.9460593575952316
1658789516620246,0.8850232700083325,-1.3733119707026162,-0.6408789196611906
1658789516636234,0.7629510948347615,-0.213626306553806,-0.5188067444876197
1658789516652222,2.166781109330941,0.213626306553806,-0.7019150072480898
1658789516668210,2.9602502479590385,-0.5188067444876197,-1.0681315327688026
1658789516684198,2.4719615472647547,-0.9460593575952316,-1.1291676203554744
1658789516700185,-0.03051804379333589,-0.8239871824216607,-0.9460593575952316
1658789516716173,-1.6174563210497581,-0.3967345693140487,-0.5188067444876197
1658789516732161,-0.45777065690094787,-0.45777065690094787,-0.15259021896690683
1658789516748149,0.8850232700083325,-0.8850232700083325,-0.7019150072480898
1658789516764137,0.15259021896690683,-0.9460593575952316,-1.3122758831159445
1658789516780125,-0.15259021896690683,-0.2746623941404778,-1.2512397955290453
1658789516796113,0.5798428320745188,0.09155413138023505,-0.7629510948347615
1658789516812101,2.8381780727854675,-0.15259021896690683,-0.8850232700083325
1658789516828064,2.288853284504512,-0.3967345693140487,-1.1291676203554744
1658789516844051,-0.45777065690094787,-0.7629510948347615,-1.6174563210497581
1658789516860039,-0.7629510948347615,-0.8850232700083325,-1.739528496223329
1658789516876027,0.45777065690094787,-0.8850232700083325,-1.0070954451819034
1658789516892015,1.0681315327688026,-1.3733119707026162,-0.7019150072480898
1658789516908003,0.45777065690094787,-0.8239871824216607,-0.7629510948347615
1658789516923991,-0.03051804379333589,0.213626306553806,-0.7629510948347615
1658789516939979,0.7019150072480898,-0.213626306553806,-0.8850232700083325
1658789516955967,1.8005645838102282,-0.7019150072480898,-0.7019150072480898
1658789516971954,1.6784924086366573,-0.5188067444876197,-0.7019150072480898
1658789516987942,2.288853284504512,-0.09155413138023505,-1.1291676203554744
1658789517003930,2.105745021744042,-0.33569848172737693,-1.1291676203554744
1658789517019918,2.3498893720911838,-1.2512397955290453,-0.8239871824216607
1658789517035906,0.15259021896690683,-1.2512397955290453,-0.7019150072480898
1658789517051894,-1.983672846570471,-0.45777065690094787,-0.8850232700083325
1658789517067882,-1.1291676203554744,-0.213626306553806,-0.8239871824216607
1658789517083870,1.0070954451819034,-0.7019150072480898,-0.7629510948347615
1658789517099857,2.105745021744042,-0.9460593575952316,-0.9460593575952316
1658789517115845,1.6784924086366573,-0.7629510948347615,-0.8850232700083325
1658789517131833,1.1291676203554744,-0.8850232700083325,-1.3122758831159445
1658789517147827,1.1291676203554744,-1.3733119707026162,-1.739528496223329
1658789517163815,1.2512397955290453,-1.0070954451819034,-0.7629510948347615
1658789517179803,-0.213626306553806,-0.8239871824216607,0.03051804379333589
1658789517195790,-1.4343480582895154,-1.2512397955290453,-0.03051804379333589
1658789517211778,-0.15259021896690683,-1.2512397955290453,0.03051804379333589
1658789517227766,2.166781109330941,-0.45777065690094787,-0.213626306553806
1658789517243754,3.0212863355459376,-0.45777065690094787,-0.6408789196611906
1658789517259742,2.04470893415737,-0.3967345693140487,-0.45777065690094787
1658789517275730,-0.9460593575952316,-0.45777065690094787,0.33569848172737693
1658789517291718,-1.4343480582895154,-0.7019150072480898,0.45777065690094787
1658789517307706,-0.9460593575952316,-0.7019150072480898,-0.15259021896690683
1658789517323693,-0.03051804379333589,-0.7629510948347615,-0.213626306553806
1658789517339681,-0.2746623941404778,-0.33569848172737693,-0.213626306553806
1658789517355669,-0.8850232700083325,0.15259021896690683,-0.5798428320745188
1658789517371657,0.03051804379333589,-0.15259021896690683,-0.6408789196611906
1658789517387645,2.04470893415737,-0.9460593575952316,-0.8850232700083325
1658789517403633,2.532997634851654,-1.0070954451819034,-1.1291676203554744
1658789517419621,1.739528496223329,-0.8239871824216607,-1.2512397955290453
1658789517435608,-0.15259021896690683,-0.7019150072480898,-1.4953841458761872
1658789517451596,-1.0070954451819034,-1.2512397955290453,-1.3733119707026162
1658789517467559,0.5188067444876197,-1.2512397955290453,-0.3967345693140487
1658789517483547,0.7629510948347615,-0.7019150072480898,-0.2746623941404778
1658789517499535,1.1902037079423735,-0.33569848172737693,-0.8239871824216607
1658789517515523,1.739528496223329,-1.1291676203554744,-1.0070954451819034
1658789517531511,1.5564202334630863,-1.6784924086366573,-0.8850232700083325
1658789517547499,0.9460593575952316,-1.1902037079423735,-0.5188067444876197
1658789517563487,1.3122758831159445,-0.15259021896690683,-0.5188067444876197
1658789517579475,1.0070954451819034,-0.7629510948347615,-0.6408789196611906
1658789517595462,0.9460593575952316,-1.3122758831159445,-0.213626306553806
1658789517611450,-0.9460593575952316,-0.7629510948347615,-0.15259021896690683
1658789517627438,-0.7629510948347615,0.3967345693140487,0.03051804379333589
1658789517643426,0.2746623941404778,0.03051804379333589,0.2746623941404778
1658789517659414,2.288853284504512,-0.2746623941404778,-0.15259021896690683
1658789517675402,1.8616006713969,-0.5798428320745188,-0.5188067444876197
1658789517691390,2.288853284504512,-0.33569848172737693,-1.3122758831159445
1658789517707378,-0.03051804379333589,-0.45777065690094787,-1.739528496223329
1658789517723365,-0.8239871824216607,-0.6408789196611906,-1.1291676203554744
1658789517739353,-1.0070954451819034,-0.7019150072480898,-0.7019150072480898
1658789517755341,-0.7019150072480898,0.15259021896690683,-1.0681315327688026
1658789517771329,0.8239871824216607,0.6408789196611906,-1.5564202334630863
1658789517787323,2.8381780727854675,0.2746623941404778,-1.6784924086366573
1658789517803310,2.410925459678083,-0.3967345693140487,-1.8616006713969
1658789517819298,-0.213626306553806,-0.03051804379333589,-2.288853284504512
1658789517835286,-1.3122758831159445,0.33569848172737693,-2.227817196917613
1658789517851274,1.4343480582895154,0.7629510948347615,-2.105745021744042
1658789517867262,3.3875028610666504,0.8850232700083325,-1.8005645838102282
1658789517883250,3.3875028610666504,0.5188067444876197,-2.227817196917613
1658789517899238,0.45777065690094787,0.15259021896690683,-2.532997634851654
1658789517915226,-1.5564202334630863,0.09155413138023505,-1.983672846570471
1658789517931213,-1.3122758831159445,0.5798428320745188,-0.9460593575952316
1658789517947201,-0.5188067444876197,0.09155413138023505,-0.8239871824216607
1658789517963189,0.7019150072480898,0.03051804379333589,-0.8239871824216607
1658789517979177,1.4343480582895154,0.15259021896690683,-0.8239871824216607
1658789517995165,1.6784924086366573,0.2746623941404778,-0.6408789196611906
1658789518011153,2.532997634851654,0.2746623941404778,-0.213626306553806
1658789518027141,1.2512397955290453,-0.15259021896690683,0.2746623941404778
1658789518043129,-0.6408789196611906,-0.9460593575952316,0.6408789196611906
1658789518059116,-1.6174563210497581,-0.9460593575952316,0.45777065690094787
1658789518075104,0.3967345693140487,-0.7629510948347615,0.9460593575952316
1658789518091092,1.8616006713969,-0.33569848172737693,1.3122758831159445
1658789518107055,2.655069810025225,-0.8850232700083325,0.9460593575952316
1658789518123043,1.983672846570471,-1.1902037079423735,0.33569848172737693
1658789518139031,0.2746623941404778,-1.4343480582895154,0.213626306553806
1658789518155019,-1.6784924086366573,-1.3733119707026162,1.0070954451819034
1658789518171007,-1.6784924086366573,-1.4343480582895154,0.9460593575952316
1658789518186995,2.7771419851987957,-0.7629510948347615,0.09155413138023505
1658789518202983,2.4719615472647547,-1.1902037079423735,0.03051804379333589
1658789518218970,0.6408789196611906,-0.9460593575952316,-0.09155413138023505
1658789518234958,-2.04470893415737,-0.5188067444876197,0.33569848172737693
1658789518250946,-1.4343480582895154,-0.7019150072480898,0.09155413138023505
1658789518266934,0.5188067444876197,-1.6174563210497581,-0.03051804379333589
1658789518282922,1.3122758831159445,-1.3122758831159445,-0.213626306553806
1658789518298910,-0.03051804379333589,-0.8239871824216607,-0.45777065690094787
1658789518314898,-0.5188067444876197,-1.3122758831159445,0.03051804379333589
1658789518330886,1.1902037079423735,-0.9460593575952316,0.5188067444876197
1658789518346873,1.8005645838102282,-0.7629510948347615,0.8850232700083325
1658789518362861,2.410925459678083,-0.45777065690094787,0.33569848172737693
1658789518378849,2.105745021744042,-0.9460593575952316,-0.213626306553806
1658789518394837,1.6174563210497581,-1.2512397955290453,-0.15259021896690683
1658789518410825,-0.09155413138023505,-1.3733119707026162,0.15259021896690683
1658789518426818,-0.9460593575952316,-0.9460593575952316,0.213626306553806
1658789518442806,0.09155413138023505,-1.0681315327688026,0.03051804379333589
1658789518458794,0.5798428320745188,-1.1902037079423735,-0.03051804379333589
1658789518474782,0.6408789196611906,-0.9460593575952316,-0.33569848172737693
1658789518490770,0.3967345693140487,-0.7019150072480898,-0.3967345693140487
1658789518506758,-0.6408789196611906,-0.5188067444876197,-0.213626306553806
1658789518522746,0.09155413138023505,-0.7019150072480898,-0.3967345693140487
1658789518538734,-0.03051804379333589,-1.5564202334630863,-0.7629510948347615
1658789518554721,1.1291676203554744,-1.1291676203554744,-0.5188067444876197
1658789518570709,1.8005645838102282,-1.0681315327688026,-0.15259021896690683
1658789518586697,1.5564202334630863,-1.2512397955290453,-0.7019150072480898
1658789518602685,1.6784924086366573,-0.7629510948347615,-0.5798428320745188
1658789518618673,2.105745021744042,-0.6408789196611906,-0.33569848172737693
1658789518634661,3.0212863355459376,-0.3967345693140487,0.213626306553806
1658789518650649,3.3264667734797513,-0.8239871824216607,0.03051804379333589
1658789518666637,2.3498893720911838,-1.3122758831159445,-0.2746623941404778
1658789518682624,1.1902037079423735,-1.983672846570471,0.09155413138023505
1658789518698612,-0.09155413138023505,-1.739528496223329,0.7629510948347615
1658789518714600,0.5798428320745188,-1.3733119707026162,1.3733119707026162
1658789518730588,0.45777065690094787,-1.8616006713969,1.0681315327688026
1658789518746551,-0.6408789196611906,-2.3498893720911838,0.5188067444876197
1658789518762539,0.213626306553806,-1.8616006713969,0.09155413138023505
1658789518778527,0.3967345693140487,-1.1902037079423735,0.03051804379333589
1658789518794515,0.9460593575952316,-0.8850232700083325,-0.09155413138023505
1658789518810503,0.33569848172737693,-0.8239871824216607,0.09155413138023505
1658789518826491,-0.3967345693140487,-0.5798428320745188,-0.5798428320745188
1658789518842478,0.15259021896690683,-0.33569848172737693,-1.1902037079423735
1658789518858466,1.6174563210497581,-0.7019150072480898,-0.8850232700083325
1658789518874454,1.0681315327688026,-0.8239871824216607,-0.8239871824216607
1658789518890442,-0.3967345693140487,-1.4343480582895154,-1.1291676203554744
1658789518906430,-0.5798428320745188,-1.8005645838102282,-1.5564202334630863
1658789518922418,1.3733119707026162,-1.3122758831159445,-1.5564202334630863
1658789518938406,2.3498893720911838,-1.3122758831159445,-0.7019150072480898
1658789518954393,2.166781109330941,-0.9460593575952316,-0.7629510948347615
1658789518970381,1.8616006713969,-0.03051804379333589,-1.2512397955290453
1658789518986369,3.814755474174035,0.5188067444876197,-1.4953841458761872
1658789519002357,8.880750743877343,2.3498893720911838,1.8005645838102282
1658789519018345,14.679179064621849,6.8665598535133086,7.049668116273779
1658789519034333,18.58548867017612,13.64156557564661,8.880750743877343
1658789519050321,24.567025253681095,17.36476691844041,12.603952086671143
1658789519066314,21.39314869916825,14.312962539101136,18.82963302052326
1658789519082302,23.163195239185143,10.467689021133765,23.102159151598244
1658789519098290,21.210040436408008,6.8665598535133086,29.32784008545036
1658789519114278,20.538643472953254,7.782101167315204,36.408026245517476
1658789519130266,15.167467765316132,7.965209430075447,44.52582589456006
1658789519146254,13.64156557564661,6.378271152819025,53.498130769817635
1658789519162242,9.063859006637585,2.3498893720911838,64.36255436026568
1658789519178229,3.692683299000464,-0.2746623941404778,73.09071488517611
1658789519194217,1.739528496223329,0.7629510948347615,80.47608148317704
1658789519210205,-2.8992141603723667,0.15259021896690683,89.38735027084795
1658789519226193,-9.430075532158298,-1.983672846570471,100.19073777370886
1658789519242181,-14.679179064621849,-3.875791561760934,109.46822308690025
1658789519258169,-14.740215152208748,-2.5940337224383256,118.3794918745707
1658789519274157,-11.932555123216616,-1.6784924086366573,128.51148241397732
1658789519290145,-8.45349813076973,-3.692683299000464,138.39932860303634
1658789519306132,-8.148317692835917,-7.965209430075447,145.96780346379774
1658789519322120,-9.613183794918768,-10.467689021133765,152.43762874799722
1658789519338108,-11.20012207217519,-14.190890363927565,160.67750057221338
1658789519354096,-13.45845731288614,-21.026932173647538,168.0628671702143
1658789519370084,-20.23346303501944,-25.787747005416804,171.23674372472715
1658789519386047,-24.26184481574728,-27.80193789578084,169.6498054474705
1658789519402034,-22.79697871366443,-27.069504844739413,165.9266041046767
1658789519418022,-17.24269474326684,-26.58121614404513,166.29282063019764
1658789519434009,-21.39314869916825,-30.243381399252257,170.50431067368572
1658789519449997,-39.03257801174959,-33.35622186617843,169.34462500953668
1658789519465984,-53.559166857404534,-34.3938353551539,159.51781490806434
1658789519481971,-59.72381170366975,-34.76005188067461,152.9259174486915
1658789519497959,-61.12764171816593,-34.82108796826128,150.4844739452201
1658789519513946,-58.808270389868085,-34.63797970550104,147.79888609140153
1658789519529934,-53.681239032578105,-31.036850537880355,142.36667429617773
1658789519545921,-45.38033112077528,-22.980086976424673,132.96711680781254
1658789519561908,-40.619516289006015,-16.998550392919697,125.03242542153066
1658789519577896,-37.14045929655913,-18.70756084534969,122.04165712977783
1658789519593883,-29.20576791027679,-23.590447852292527,118.86778057526499
1658789519609871,-23.529411764705856,-24.444953078507524,115.81597619592594
1658789519625858,-21.45418478675515,-18.70756084534969,111.29930571450359
1658789519641845,-23.285267414358714,-13.336385137712568,103.3646143282217
1658789519657833,-20.477607385366582,-16.1440451667047,99.33623254749364
1658789519673820,-6.012054627298312,-15.045395590142562,100.74006256198982
1658789519689808,7.17174029144735,-3.5095750362402214,100.98420691233696
1658789519705810,6.195162890058782,4.730296787975931,95.67406729228651
1658789519721798,-11.688410772869474,-2.105745021744042,87.25108720531034
1658789519737786,-30.914778362706784,-10.040436408026153,81.81887541008655
1658789519753774,-33.90554665445961,-5.157549401083315,77.85152971694515
1658789519769762,-23.95666437781324,3.692683299000464,74.73868925001943
1658789519785750,-13.336385137712568,8.45349813076973,72.60242618448183
1658789519801737,-13.76363775082018,4.852368963149502,68.75715266651423
1658789519817725,-19.195849546043974,3.875791561760934,62.897688258182825
1658789519833713,-23.163195239185143,6.622415503166167,54.962996871900486
1658789519849701,-29.571984435797503,16.693369954985883,38.11703669794747
1658789519865689,-44.525825894560285,9.308003356984727,23.468375677118956
1658789519881677,-56.85511558709095,-14.007782101167322,25.848783093003703
1658789519897665,-49.652857251850264,-20.660715648126825,28.04608224612798
1658789519913653,-23.285267414358714,-7.660028992141633,14.618142977035177
1658789519929640,7.598992904554734,0.3967345693140487,-4.9134050507361735
1658789519945628,32.13550011444249,1.1291676203554744,-19.684138246738257
1658789519961616,42.38956282902245,8.45349813076973,-32.806897077897474
1658789519977604,41.10780498970007,14.068818188753994,-42.32852674143601
1658789519993592,29.999237048905115,8.575570305943302,-49.53078507667669
1658789520009580,11.20012207217519,-5.279621576256886,-57.83169298847952
1658789520025573,-1.9226367589837992,-17.48683909361398,-67.65850308995186
1658789520041561,-6.256198977645454,-17.730983443961122,-79.86572060730896
1658789520057549,12.23773556115043,-6.744487678339738,-91.5236133363851
1658789520073537,55.634393835354786,2.04470893415737,-99.27519645990697
1658789520089525,87.43419546807081,2.227817196917613,-105.19569695582527
1658789520105513,90.91325246051747,0.15259021896690683,-108.06439307240407
1658789520121501,86.39658197909512,-0.213626306553806,-113.67971313038834
1658789520137488,77.79049362935848,-5.096513313496644,-121.30922407873663
1658789520153476,67.59746700236519,-7.965209430075447,-122.04165712977806
1658789520169464,46.05172808422958,-13.214312962538997,-117.34187838559546
1658789520185452,23.95666437781324,-15.228503852903032,-115.5107957579919
1658789520201440,15.411612115663274,-9.369039444571627,-120.51575494010831
1658789520217428,22.064545662623004,-3.570611123826893,-125.82589456015876
1658789520233416,29.38887617303726,-4.974441138323073,-124.05584802014187
1658789520249404,31.52513923857464,-6.439307240405924,-115.38872358281833
1658789520265391,30.36545357442583,-6.500343327992596,-105.31776913099884
1658789520281379,35.18730449378177,1.4953841458761872,-104.82948043030456
1658789520297367,49.53078507667624,8.51453421835663,-115.93804837109951
1658789520313355,56.000610360875726,6.683451590753066,-125.33760585946447
1658789520329343,43.79339284351863,2.7161058976118966,-125.154497596704
1658789520345306,28.534370946822264,2.532997634851654,-117.70809491111618
1658789520361293,13.76363775082018,3.1433585107195086,-111.90966659037167
1658789520377281,8.819714656290444,6.012054627298312,-116.18219272144665
1658789520393268,13.519493400473038,5.157549401083315,-121.3702601663233
1658789520409256,16.32715342946517,3.570611123826893,-116.79255359731451
1658789520425243,20.17242694743254,10.040436408026153,-107.27092393377598
1658789520441230,15.350576028076603,12.298771648737329,-102.63218127718028
1658789520457218,21.51522087434182,9.85732814526591,-107.57610437170979
1658789520473205,26.337071793697987,5.645838101777599,-107.88128480964383
1658789520489193,26.58121614404513,7.965209430075447,-97.5051499198903
1658789520505180,25.60463874265656,11.07804989700162,-91.70672159914534
1658789520521167,28.839551384756078,12.115663385976859,-96.16235599298102
1658789520537155,27.130540932326085,9.308003356984727,-96.46753643091483
1658789520553142,24.26184481574728,4.791332875562603,-90.18081940947582
1658789520569130,21.33211261158158,2.4719615472647547,-87.06797894254964
1658789520585117,19.01274128328373,5.584802014190927,-87.55626764324393
1658789520601104,10.955977721828049,6.683451590753066,-86.39658197909512
1658789520617092,-1.6174563210497581,5.645838101777599,-83.52788586251609
1658789520633079,-14.98435950255589,9.246967269398056,-83.16166933699537
1658789520649067,-17.54787518120088,15.045395590142562,-82.06301976043324
1658789520665069,-12.176699473563758,17.975127794308264,-77.79049362935825
1658789520681057,-1.4343480582895154,19.623102159151586,-71.99206530861375
1658789520697044,4.303044174868319,18.219272144655406,-66.98710612649734
1658789520713031,10.772869459067579,13.45845731288614,-66.13260090028234
1658789520729019,15.472648203250174,11.932555123216616,-64.85084306095973
1658789520745006,24.567025253681095,23.651483939879427,-57.465476462958804
1658789520760994,31.097886625467254,30.670634012359642,-46.23483634699028
1658789520776981,26.337071793697987,23.7125200274661,-35.98077363241032
1658789520792968,22.79697871366443,16.26611734187827,-26.153963530937517
1658789520808956,19.378957808804444,17.42580300602731,-17.24269474326684
1658789520824943,12.542915999084471,19.501029983978015,-7.17174029144735
1658789520840931,1.8005645838102282,16.754406042572555,4.303044174868319
1658789520856918,-8.6366063935302,13.824673838406852,16.02197299153113
1658789520872905,-12.481879911497572,14.435034714274707,27.374685282673227
1658789520888893,-13.885709925993751,14.251926451514464,38.17807278553437
1658789520904880,-15.472648203250174,11.322194247348762,49.89700160219718
1658789520920868,-19.501029983978015,6.378271152819025,60.761425192644765
1658789520936855,-21.942473487449433,3.0823224231326094,70.83237964446516
1658789520952842,-22.61387045090396,2.4719615472647547,82.42923628595418
1658789520968830,-25.23842221713585,0.213626306553806,95.61303120469984
1658789520984802,-28.290226596475122,-5.0354772259097444,106.59952697032122
1658789521000789,-32.25757228961629,-9.918364232852582,114.16800183108262
1658789521016777,-33.78347447928604,-11.505302510109004,122.28580148012497
1658789521032764,-36.652170595864845,-14.312962539101136,132.78400854505207
1658789521048751,-41.71816586556815,-19.195849546043974,142.48874647135108
1658789521064739,-48.371099412527656,-25.36049439230942,148.71442740520342
1658789521080726,-50.01907377737098,-27.191577019912984,153.53627832455913
1658789521096714,-45.38033112077528,-24.933241779201808,158.4802014190891
1658789521112701,-42.084382391088866,-24.01770046540014,163.1189440756848
1658789521128688,-46.23483634699028,-28.107118333714652,163.7903410391391
1658789521144676,-56.48889906157024,-30.975814450293683,162.14236667429623
1658789521160663,-61.67696650644689,-28.473334859235365,160.31128404669244
1658789521176651,-59.1744869153888,-26.52018005645823,156.28290226596482
1658789521192638,-51.239795529106686,-27.130540932326085,151.46105134660866
1658789521208625,-40.37537193865887,-33.29518577859176,149.75204089417866
1658789521224613,-28.900587472342977,-36.28595407034413,150.54551003280676
1658789521240600,-22.369726100556818,-28.656443121995835,149.62996871900486
1658789521256588,-16.998550392919697,-23.773556115052997,144.563973449302
1658789521272575,-16.32715342946517,-24.750133516441565,136.20202944991206
1658789521288562,-24.994277866788707,-27.008468757152514,131.44121461814302
1658789521304565,-27.80193789578084,-21.57625696192872,130.89188982986207
1658789521320552,-25.543602655069662,-16.815442130159454,127.71801327534922
1658789521336540,-34.21072709239343,-18.524452582589447,119.90539406424068
1658789521352527,-53.13191424429692,-22.919050888838,108.06439307240407
1658789521368515,-58.56412603952094,-22.308690012970146,100.19073777370886
1658789521384502,-33.478294041352,-12.4208438239109,94.27023727779078
1658789521400489,-1.9226367589837992,-3.1433585107195086,90.79118028534367
1658789521416477,10.467689021133765,-3.3875028610666504,90.54703593499653
1658789521432464,7.17174029144735,-2.7161058976118966,87.61730373083083
1658789521448452,-2.410925459678083,0.5798428320745188,82.18509193560703
1658789521464439,-9.491111619745197,0.213626306553806,80.10986495765655
1658789521480426,-12.603952086671143,-3.2043945983061803,83.1616693369956
1658789521496414,-13.031204699778755,-0.213626306553806,82.30716411078083
1658789521512401,-10.833905546654478,4.9134050507361735,76.3866636148623
1658789521528389,-14.373998626688035,8.270389868009488,71.44274052033279
1658789521544376,-25.05531395437538,9.918364232852582,67.59746700236519
1658789521560363,-24.567025253681095,13.275349050125897,63.32494087129044
1658789521576351,-15.411612115663274,18.58548867017612,58.686198214694286
1658789521592338,-11.993591210803288,18.89066910811016,55.02403295948716
1658789521608326,-17.853055619134693,13.64156557564661,49.408712901502895
1658789521624359,-26.092927443350845,11.322194247348762,41.535057602807456
1658789521640347,-27.98504615854108,11.505302510109004,33.905546654459386
1658789521656335,-25.05531395437538,9.491111619745197,27.252613107499656
1658789521672322,-21.210040436408008,0.8850232700083325,22.919050888838
1658789521688310,-15.045395590142562,-4.303044174868319,18.524452582589447
1658789521704298,2.7771419851987957,3.814755474174035,10.89494163424115
1658789521720286,23.041123064011572,11.749446860456146,-0.2746623941404778
1658789521736274,25.36049439230942,10.772869459067579,-12.23773556115043
1658789521752262,18.402380407415876,6.561379415579495,-21.637293049515392
1658789521768250,12.4208438239109,6.195162890058782,-27.374685282673227
1658789521784237,3.3264667734797513,4.180971999694748,-33.35622186617843
1658789521800225,-8.697642481116873,-4.974441138323073,-40.436408026245545
1658789521816213,-7.476920729381163,-13.58052948805971,-47.211413748378845
1658789521832201,11.07804989700162,-8.51453421835663,-55.87853818570238
1658789521848189,32.80689707789725,4.9134050507361735,-64.85084306095973
1658789521864177,48.187991149767186,9.430075532158298,-71.44274052033256
1658789521880165,43.18303196765078,0.2746623941404778,-77.05806057831683
1658789521896153,30.792706187533213,-9.918364232852582,-81.14747844663157
1658789521912140,25.17738612954895,-11.139085984588291,-83.77203021286323
1658789521928128,30.4264896620125,-6.134126802471883,-86.94590676737607
1658789521944061,34.2107270923932,-9.613183794918768,-89.50942244602106
1658789521960048,28.656443121995835,-16.44922560463874,-91.4625772487982
1658789521976036,27.130540932326085,-16.44922560463874,-93.04951552605462
1658789521992023,30.060273136491787,-14.98435950255589,-96.95582513160912
1658789522008010,33.17311360341796,-15.167467765316132,-101.89974822613885
1658789522023998,31.158922713053926,-19.9282825970854,-105.19569695582527
1658789522039985,29.08369573510322,-24.933241779201808,-105.56191348134598
1658789522055973,33.661402304112244,-22.247653925383247,-104.82948043030456
1658789522071960,35.43144884412891,-20.416571297779683,-108.0033569848174
1658789522087947,29.32784008545036,-23.346303501945386,-112.70313572899977
1658789522103935,27.80193789578084,-30.853742275120112,-111.66552224002453
1658789522119922,32.80689707789725,-28.16815442130155,-113.00831616693381
1658789522135910,34.2107270923932,-17.120622568093268,-117.46395056076904
1658789522151897,31.403067063401068,-11.871519035629717,-120.57679102769521
1658789522167884,30.914778362706784,-16.08300907911803,-120.33264667734807
1658789522183872,24.994277866788707,-25.909819180590375,-116.3653009842069
1658789522199859,20.23346303501944,-25.116350041962278,-111.90966659037167
1658789522215847,16.815442130159454,-15.472648203250174,-114.7173266193638
1658789522231834,24.26184481574728,-9.246967269398056,-120.69886320286878
1658789522247821,36.408026245517476,-13.214312962538997,-119.23399710078593
1658789522263824,34.14969100480653,-21.14900434882111,-110.99412527656978
1658789522279811,22.308690012970146,-15.411612115663274,-106.53849088273455
1658789522295799,10.345616845960194,-3.0823224231326094,-111.84863050278477
1658789522311786,14.007782101167322,5.157549401083315,-114.7173266193638
1658789522327774,37.32356755931937,7.17174029144735,-108.36957351033811
1658789522343761,48.85938811322194,4.303044174868319,-98.66483558403911
1658789522359748,36.469062333104375,1.4953841458761872,-95.18577859159245
1658789522375736,13.58052948805971,1.1291676203554744,-100.80109864957672
1658789522391723,7.232776379034021,4.058899824521177,-105.25673304341194
1658789522407711,21.45418478675515,8.45349813076973,-101.71663996337838
1658789522423698,35.91973754482319,9.67421988250544,-97.93240253299768
1658789522439685,38.66636148622865,8.575570305943302,-96.95582513160912
1658789522455673,20.599679560540153,7.232776379034021,-101.83871213855195
1658789522471660,9.55214770733187,3.7537193865873633,-105.13466086823837
1658789522487648,6.317235065232353,3.875791561760934,-98.72587167162601
1658789522503635,4.119935912108076,8.148317692835917,-89.57045853360796
1658789522519622,-4.9134050507361735,12.23773556115043,-87.19005111772321
1658789522535610,-9.918364232852582,11.20012207217519,-91.27946898603795
1658789522551597,-10.955977721828049,7.782101167315204,-91.88982986190581
1658789522567585,-1.1291676203554744,10.711833371480907,-83.0395971618218
1658789522583557,11.932555123216616,13.275349050125897,-74.12832837415112
1658789522599544,11.505302510109004,12.603952086671143,-72.96864271000231
1658789522615532,1.1902037079423735,10.833905546654478,-72.84657053482874
1658789522631519,-0.5798428320745188,18.402380407415876,-69.06233310444804
1658789522647506,15.472648203250174,31.70824750133511,-62.592507820248784
1658789522663494,17.54787518120088,30.73167009994654,-54.718852521553345
1658789522679481,18.341344319828977,23.285267414358714,-47.88281071183337
1658789522695469,17.42580300602731,20.782787823300396,-39.88708323796459
1658789522711456,18.524452582589447,23.83459220263967,-30.670634012359642
1658789522727443,14.435034714274707,21.210040436408008,-19.501029983978015
1658789522743431,7.2938124666209205,16.815442130159454,-8.148317692835917
1658789522759418,1.8616006713969,14.92332341496899,3.3264667734797513
1658789522775406,1.2512397955290453,16.754406042572555,12.787060349431613
1658789522791393,-2.8381780727854675,15.960936903944457,23.041123064011572
1658789522807380,-7.660028992141633,12.176699473563758,34.51590753032724
1658789522823368,-16.754406042572555,10.711833371480907,43.12199588006388
1658789522839355,-21.026932173647538,13.64156557564661,51.4229037918667
1658789522855342,-20.782787823300396,14.618142977035177,61.67696650644666
1658789522871330,-20.17242694743254,12.848096437018285,71.80895704585373
1658789522887317,-23.83459220263967,8.880750743877343,79.01121538109419
1658789522903320,-23.163195239185143,6.805523765926637,85.17586022735941
1658789522919307,-18.280308232242305,6.073090714885211,93.53780422674936
1658789522935295,-18.097199969481835,4.242008087281647,103.79186694132932
1658789522951282,-21.51522087434182,0.33569848172737693,112.15381094071881
1658789522967270,-28.412298771648693,-3.2654306858930795,117.09773403524832
1658789522983257,-33.78347447928604,-4.242008087281647,121.37026016632353
1658789522999244,-36.4080262455177,-5.76791027695117,128.8776989394978
1658789523015232,-39.398794537270305,-9.246967269398056,135.46959639887064
1658789523031219,-46.906233310444804,-16.02197299153113,141.87838559548345
1658789523047207,-51.42290379186693,-20.782787823300396,144.19775692378107
1658789523063194,-48.79835202563527,-19.317921721217544,147.0664530403601
1658789523079181,-44.58686198214696,-19.439993896391115,152.4986648355839
1658789523095169,-40.1922636758984,-22.61387045090396,154.87907225146864
1658789523111156,-41.47402151522101,-25.848783093003703,156.03875791561768
1658789523127143,-44.647898069733856,-23.407339589532285,153.53627832455913
1658789523143131,-39.398794537270305,-17.36476691844041,148.95857175555057
1658789523159118,-30.670634012359642,-12.603952086671143,148.47028305485628
1658789523175106,-24.505989166094423,-15.777828641183987,153.10902571145198
1658789523191093,-30.792706187533213,-16.2050812542916,153.17006179903865
1658789523207080,-37.750820172426984,-5.889982452124741,140.59662775616061
1658789523223053,-31.464103150988194,-0.5798428320745188,128.02319371328304
1658789523239040,-20.721751735713724,-4.242008087281647,128.14526588845638
1658789523255027,-25.848783093003703,-12.909132524605184,136.38513771267253
1658789523271015,-36.16388189517056,-14.679179064621849,141.14595254444203
1658789523287002,-43.67132066834529,-7.660028992141633,130.64774547951492
1658789523302990,-53.559166857404534,-4.974441138323073,115.449759670405
1658789523318977,-53.13191424429692,-3.2654306858930795,107.69817654688359
1658789523334964,-35.12626840619532,-2.655069810025225,110.139620050355
1658789523350952,-7.660028992141633,1.983672846570471,110.68894483863596
1658789523366939,-5.889982452124741,5.706874189364498,100.92317082475029
1658789523382927,-28.16815442130155,3.3875028610666504,90.42496375982319
1658789523398914,-39.093614099336264,-1.9226367589837992,87.06797894254987
1658789523414901,-29.38887617303726,-1.0681315327688026,85.35896849011988
1658789523430889,-14.496070801861606,3.2654306858930795,83.64995803768988
1658789523446876,-19.867246509498727,5.3406576638437855,80.2319371328299
1658789523462864,-43.244068055237676,-0.3967345693140487,76.08148317692849
1658789523478851,-55.81750209811548,-4.058899824521177,70.58823529411802
1658789523494838,-52.76569771877621,0.6408789196611906,63.44701304646378
1658789523510826,-44.15960936903957,6.317235065232353,56.54993514915668
1658789523526813,-28.16815442130155,8.45349813076973,51.4229037918667
1658789523542816,-22.247653925383247,4.9134050507361735,43.54924849317149
1658789523558803,-25.116350041962278,-1.4343480582895154,30.670634012359642
1658789523574791,-18.58548867017612,-8.880750743877343,19.256885633630873
1658789523590778,-12.726024261844714,-11.383230334935433,11.383230334935433
1658789523606765,-6.9886320286868795,-4.180971999694748,3.2043945983061803
1658789523622753,10.406652933546866,4.9134050507361735,-7.537956816968062
1658789523638740,28.473334859235365,6.317235065232353,-18.58548867017612
1658789523654728,27.374685282673227,2.3498893720911838,-29.816128786144645
1658789523670715,11.261158159761862,-2.8381780727854675,-40.98573281452673
1658789523686702,3.4485389486533222,-7.17174029144735,-49.83596551461051
1658789523702690,6.317235065232353,-8.819714656290444,-58.930342565041656
1658789523718677,15.838864728770886,-8.819714656290444,-69.79476615548947
1658789523734665,30.4264896620125,-5.828946364538069,-79.01121538109396
1658789523750652,39.154650186922936,-4.791332875562603,-86.33554589150822
1658789523766639,43.54924849317149,-8.026245517662346,-93.5378042267489
1658789523782627,48.004882887006715,-8.270389868009488,-103.18150606546124
1658789523798614,49.71389333943671,-5.523765926604028,-112.27588311589238
1658789523814602,57.95376516365286,0.33569848172737693,-118.80674448767832
1658789523830589,61.24971389333905,-1.1902037079423735,-122.77409018081948
1658789523846576,45.502403295948625,-8.575570305943302,-125.52071412222472
1658789523862548,32.379644464789635,-12.542915999084471,-128.32837415121685
1658789523878536,50.32425421530479,-9.124895094224485,-130.2204928664073
1658789523894523,64.97291523613376,-4.119935912108076,-134.67612726024254
1658789523910511,61.55489433127332,-4.486152437628789,-142.3666742961775
1658789523926498,52.948805981536225,-14.068818188753994,-144.0756847486075
1658789523942485,47.6997024490729,-16.815442130159454,-140.90180819409466
1658789523958473,39.27672236209651,-12.664988174258042,-137.66689555199514
1658789523974460,37.689784084840085,-6.012054627298312,-141.69527733272298
1658789523990448,42.32852674143578,-4.180971999694748,-145.54055085069035
1658789524006435,43.12199588006388,-10.772869459067579,-140.90180819409466
1658789524022422,36.285954070343905,-12.054627298390187,-129.61013199053946
1658789524038410,27.130540932326085,-7.232776379034021,-125.03242542153043
1658789524054397,24.01770046540014,-0.45777065690094787,-132.7840085450523
1658789524070385,21.759365224688963,-3.2654306858930795,-134.67612726024254
1658789524086372,24.26184481574728,-6.439307240405924,-126.13107499809257
1658789524102359,29.999237048905115,-1.1291676203554744,-121.00404364080259
1658789524118347,20.538643472953254,2.532997634851654,-125.52071412222472
1658789524134334,24.13977264057371,1.8616006713969,-129.54909590295256
1658789524150322,27.008468757152514,-3.997863736934505,-124.84931715877019
1658789524166309,28.351262684061794,1.5564202334630863,-113.98489356832238
1658789524182312,23.346303501945386,9.979400320439481,-106.96574349584193
1658789524198299,17.853055619134693,12.848096437018285,-108.24750133516454
1658789524214286,13.214312962538997,10.772869459067579,-104.58533607995741
1658789524230274,8.209353780422589,12.848096437018285,-96.71168078126198
1658789524246261,5.523765926604028,19.501029983978015,-94.88059815365841
1658789524262249,11.01701380941472,21.942473487449433,-98.60379949645244
1658789524278236,8.392462043183059,19.256885633630873,-101.10627908751053
1658789524294223,4.9134050507361735,16.388189517051842,-96.28442816815459
1658789524310211,7.843137254901876,20.782787823300396,-88.28870069428535
1658789524326198,4.60822461280236,29.38887617303726,-83.64995803768966
1658789524342186,-2.8381780727854675,30.73167009994654,-83.77203021286323
1658789524358173,-6.683451590753066,28.473334859235365,-80.29297322041657
1658789524374160,4.852368963149502,32.74586099031035,-72.78553444724184
1658789524390148,17.60891126878755,35.004196231021524,-61.12764171816593
1658789524406135,16.1440451667047,26.459143968871558,-49.95803768978408
1658789524422123,5.828946364538069,17.975127794308264,-42.57267109178315
1658789524438110,-0.5188067444876197,16.876478217746126,-34.82108796826128
1658789524454097,1.4343480582895154,19.439993896391115,-23.651483939879427
1658789524470085,5.706874189364498,15.350576028076603,-11.749446860456146
1658789524486072,3.692683299000464,10.406652933546866,-1.3122758831159445
1658789524502044,-0.45777065690094787,10.406652933546866,9.002822919050914
1658789524518032,-8.819714656290444,11.871519035629717,20.965896086060866
1658789524534019,-15.655756466010416,11.139085984588291,32.684824902723676
1658789524550006,-19.80621042191183,7.904173342488775,42.08438239108864
1658789524565994,-23.163195239185143,3.814755474174035,50.56839856565193
1658789524581981,-22.8580148012511,2.532997634851654,59.1134508278019
1658789524597969,-22.186617837796575,1.0070954451819034,69.61165789272945
1658789524613956,-27.98504615854108,-3.0212863355459376,79.37743190661513
1658789524629943,-32.07446402685605,-7.721065079728305,86.64072632944226
1658789524645931,-32.928969253071045,-10.589761196307336,92.92744335088128
1658789524661918,-32.50171663996343,-11.627374685282575,100.74006256198982
1658789524677906,-35.24834058136889,-13.702601663233281,109.40718699931358
1658789524693893,-40.2532997634853,-18.402380407415876,115.99908445868641
1658789524709880,-46.17380025940338,-26.031891355763946,121.3092240787364
1658789524725868,-48.49317158770123,-31.586175326161765,126.00900282291923
1658789524741855,-40.80262455176626,-30.4264896620125,132.90608072022587
1658789524757843,-36.16388189517056,-31.342030975814623,142.0004577706568
1658789524773830,-35.431448844129136,-34.69901579308771,147.0664530403601
1658789524789817,-38.60532539864198,-36.22491798275746,148.04303044174867
1658789524805805,-38.54428931105531,-33.72243839169914,146.9443808651863
1658789524821807,-36.713206683451745,-30.914778362706784,147.24956130312057
1658789524837795,-37.68978408484031,-30.182345311665358,151.09483482108772
1658789524853782,-43.244068055237676,-29.38887617303726,154.69596398870817
1658789524869770,-53.803311207751676,-26.52018005645823,153.47524223697246
1658789524885757,-57.77065690089262,-20.294499122606112,147.79888609140153
1658789524901744,-40.80262455176626,-14.251926451514464,144.99122606240917
1658789524917732,-16.693369954985883,-8.758678568703772,142.97703517204536
1658789524933719,-2.410925459678083,-9.613183794918768,142.06149385824347
1658789524949707,-8.758678568703772,-11.20012207217519,143.09910734721916
1658789524965694,-29.20576791027679,-9.613183794918768,140.53559166857394
1658789524981681,-38.48325322346841,-9.246967269398056,133.57747768368063
1658789524997669,-30.975814450293683,-14.496070801861606,130.52567330434113
1658789525013656,-24.322880903333953,-12.848096437018285,131.31914244296922
1658789525029644,-25.60463874265656,-5.462729839017356,127.84008545052257
1658789525045631,-27.86297398336751,-1.4343480582895154,117.40291447318214
1658789525061618,-37.01838712138556,-0.7629510948347615,108.61371786068503
1658789525077606,-34.271763179980326,1.3733119707026162,104.89051651789123
1658789525093593,-17.181658655680167,3.875791561760934,103.18150606546124
1658789525109581,-8.51453421835663,7.2938124666209205,96.04028381780745
1658789525125568,-21.39314869916825,3.0212863355459376,86.94590676737653
1658789525141540,-34.63797970550104,-1.2512397955290453,82.61234454871465
1658789525157528,-25.42153047989609,3.936827649347606,81.20851453421847
1658789525173515,-11.322194247348762,11.810482948043045,76.81391622796991
1658789525189502,-11.20012207217519,11.07804989700162,72.54139009689516
1658789525205490,-17.79201953154802,7.4158846417944915,71.32066834515945
1658789525221477,-22.919050888838,8.819714656290444,67.96368352788613
1658789525237465,-26.52018005645823,10.833905546654478,58.9913786526281
1658789525253452,-28.656443121995835,10.223544670786623,50.93461509117242
1658789525269439,-31.097886625467254,10.101472495613052,42.32852674143578
1658789525285427,-31.342030975814623,5.706874189364498,32.562752727550105
1658789525301414,-29.32784008545036,-5.3406576638437855,29.08369573510322
1658789525317402,-20.17242694743254,-11.932555123216616,23.95666437781324
1658789525333389,2.04470893415737,-6.683451590753066,12.481879911497572
1658789525349376,31.52513923857464,8.758678568703772,-0.7019150072480898
1658789525365364,46.41794460975029,17.730983443961122,-12.115663385976859
1658789525381351,32.01342793926892,12.481879911497572,-21.45418478675515
1658789525397338,5.645838101777599,-2.7771419851987957,-29.20576791027679
1658789525413326,-12.970168612191856,-12.481879911497572,-36.530098420691274
1658789525429313,-12.481879911497572,-13.336385137712568,-45.31929503318838
1658789525445301,-6.622415503166167,-12.726024261844714,-55.45128557259477
1658789525461303,2.8992141603723667,-11.749446860456146,-65.58327611200116
1658789525477291,21.14900434882111,-8.6366063935302,-74.49454489967184
1658789525493278,43.060959792477206,-2.7161058976118966,-82.49027237354085
1658789525509266,53.37605859464384,-1.8005645838102282,-88.71595330739297
1658789525525253,46.967269398031476,-9.369039444571627,-94.45334554055103
1658789525541240,41.16884107728674,-14.496070801861606,-100.19073777370886
1658789525557228,38.971541924162466,-12.481879911497572,-108.43060959792479
1658789525573215,43.060959792477206,-9.369039444571627,-114.29007400625619
1658789525589203,54.413672083619076,-6.744487678339738,-114.04592965590905
1658789525605190,61.24971389333905,-8.880750743877343,-111.54345006485096
1658789525621177,51.30083161669336,-16.571297779812312,-109.7123674372474
1658789525637165,32.99000534065749,-21.759365224688963,-112.52002746623953
1658789525653152,27.252613107499656,-23.285267414358714,-115.38872358281833
1658789525669139,29.877164873731545,-22.247653925383247,-113.8628213931488
1658789525685127,29.816128786144645,-15.716792553597315,-113.92385748073548
1658789525701114,20.35553521019301,-12.664988174258042,-117.15877012283522
1658789525717102,10.589761196307336,-18.58548867017612,-119.47814145113307
1658789525733089,2.8992141603723667,-21.820401312275862,-116.24322880903333
1658789525749076,10.406652933546866,-18.036163881895163,-113.92385748073548
1658789525765064,27.435721370260126,-8.087281605249018,-114.29007400625619
1658789525781036,41.8402380407415,-3.570611123826893,-117.76913099870308
1658789525797023,34.76005188067438,-8.51453421835663,-116.85358968490118
1658789525813011,29.816128786144645,-13.214312962538997,-114.16800183108262
1658789525828998,25.665674830243233,-9.124895094224485,-112.15381094071881
1658789525844986,32.01342793926892,-1.0681315327688026,-112.5810635538262
1658789525860973,38.727397573815324,-0.5188067444876197,-115.44975967040523
1658789525876960,37.2014953841458,-7.354848554207592,-115.38872358281833
1658789525892948,27.92401007095441,-9.55214770733187,-110.13962005035478
1658789525908935,17.60891126878755,-2.7771419851987957,-106.11123826962694
1658789525924923,12.848096437018285,5.95101853971164,-110.50583657587549
1658789525940910,6.9886320286868795,6.256198977645454,-113.67971313038834
1658789525956897,7.537956816968062,3.0212863355459376,-109.83443961242097
1658789525972885,13.885709925993751,5.279621576256886,-104.1580834668498
1658789525988872,23.468375677118956,11.07804989700162,-100.434882124056
1658789526004860,29.38887617303726,11.566338597695903,-102.99839780270099
1658789526020847,25.05531395437538,10.162508583199724,-107.57610437170979
1658789526036834,20.11139085984587,5.95101853971164,-106.17227435721384
1658789526052822,19.073777370870403,7.965209430075447,-98.72587167162601
1658789526068809,18.158236057068734,13.519493400473038,-96.16235599298102
1658789526084797,14.007782101167322,16.876478217746126,-100.74006256198982
1658789526100799,9.369039444571627,17.853055619134693,-102.0828564888991
1658789526116787,13.64156557564661,16.937514305333025,-97.5051499198903
1658789526132774,24.200808728160382,20.660715648126825,-90.54703593499653
1658789526148761,19.80621042191183,25.48256656748299,-85.78622110322726
1658789526164749,5.0354772259097444,22.8580148012511,-86.70176241702893
1658789526180736,-3.936827649347606,19.378957808804444,-88.9600976577401
1658789526196724,2.04470893415737,21.39314869916825,-85.17586022735941
1658789526212711,16.44922560463874,25.23842221713585,-74.2504005493247
1658789526228698,27.61882963302037,24.13977264057371,-63.01976043335617
1658789526244686,14.190890363927565,15.899900816357558,-55.87853818570238
1658789526260673,7.476920729381163,13.519493400473038,-49.53078507667669
1658789526276661,10.406652933546866,16.815442130159454,-37.20149538414603
1658789526292648,13.58052948805971,18.280308232242305,-23.285267414358714
1658789526308635,7.843137254901876,12.909132524605184,-9.918364232852582
1658789526324623,0.7629510948347615,8.819714656290444,2.8992141603723667
1658789526340610,2.655069810025225,10.589761196307336,15.655756466010416
1658789526356598,-0.45777065690094787,10.528725108720437,26.58121614404513
1658789526372585,-2.410925459678083,10.528725108720437,36.71320668345152
1658789526388572,-7.476920729381163,8.270389868009488,47.33348592355219
1658789526404560,-16.876478217746126,8.941786831464015,56.48889906157001
1658789526420562,-25.05531395437538,9.979400320439481,67.04814221408424
1658789526436550,-25.05531395437538,9.063859006637585,77.66842145418514
1658789526452537,-26.52018005645823,7.232776379034021,86.76279850461606
1658789526468525,-30.4264896620125,6.9886320286868795,92.92744335088128
1658789526484512,-29.694056610971074,7.476920729381163,101.65560387579171
1658789526500499,-29.20576791027679,5.645838101777599,114.10696574349595
1658789526516487,-32.806897077897474,2.3498893720911838,122.83512626840638
1658789526532474,-37.3235675593196,-3.4485389486533222,128.63355458915066
1658789526548462,-37.50667582207984,-4.303044174868319,132.53986419470493
1658789526564449,-37.62874799725341,-4.547188525215461,140.2914473182268
1658789526580436,-42.51163500419625,-7.782101167315204,148.89753566796344
1658789526596424,-52.277409018081926,-13.397421225299468,155.67254139009674
1658789526612411,-63.81322957198449,-19.317921721217544,159.02952620737005
1658789526628399,-72.96864271000231,-22.064545662623004,158.54123750667577
1658789526644386,-70.89341573205161,-21.45418478675515,156.58808270389864
1658789526660373,-58.686198214694514,-19.9893186846723,156.46601052872484
1658789526676361,-46.05172808422981,-22.79697871366443,161.89822232394908
1658789526692348,-45.92965590905624,-23.95666437781324,165.1331349660486
1658789526708336,-48.98146028839551,-22.125581750209676,156.52704661631196
1658789526724323,-48.249027237354085,-17.303730830853738,144.19775692378107
1658789526740295,-41.41298542763411,-11.322194247348762,139.68108644235917
1658789526756282,-24.13977264057371,-12.298771648737329,145.8457312886244
1658789526772270,-11.993591210803288,-15.777828641183987,153.7193865873196
1658789526788257,-21.881437399862534,-17.48683909361398,150.9117265583277
1658789526804245,-42.38956282902268,-17.54787518120088,137.7889677271687
1658789526820232,-59.23552300297547,-13.64156557564661,126.68039978637353
1658789526836219,-53.43709468223096,-6.012054627298312,124.66620889600972
1658789526852207,-42.14541847867554,-12.4208438239109,130.40360112916778
1658789526868194,-42.45059891660958,-14.129854276340893,131.31914244296922
1658789526884182,-49.40871290150312,-5.828946364538069,118.3794918745707
1658789526900169,-52.76569771877621,0.7629510948347615,104.34119172961027
1658789526916156,-40.86366063935316,2.9602502479590385,100.49591821164267
1658789526932144,-16.998550392919697,6.744487678339738,100.55695429922935
1658789526948131,-0.2746623941404778,15.289539940489703,98.05447470817126
1658789526964119,-1.3122758831159445,14.679179064621849,91.95086594949271
1658789526980106,-23.83459220263967,7.537956816968062,83.71099412527656
1658789526996093,-41.1078049897003,2.8992141603723667,79.316395819028
1658789527012081,-27.496757457846797,11.749446860456146,78.76707103074705
1658789527028068,-11.932555123216616,18.646524757763018,75.04386968795325
1658789527044056,-15.10643167772946,14.251926451514464,70.22201876859708
1658789527060058,-24.01770046540014,8.880750743877343,63.56908522163758
1658789527076046,-28.656443121995835,7.4158846417944915,55.634393835354786
1658789527092033,-29.877164873731545,6.805523765926637,48.126955062180514
1658789527108020,-24.628061341267994,2.9602502479590385,42.633707179369594
1658789527124008,-17.42580300602731,-1.4343480582895154,36.22491798275723
1658789527139995,-12.359807736324,-1.4953841458761872,26.58121614404513
1658789527155983,-5.95101853971164,1.1902037079423735,16.754406042572555
1658789527171970,2.105745021744042,3.0823224231326094,8.575570305943302
1658789527187957,7.721065079728305,4.180971999694748,-0.5188067444876197
1658789527203945,14.312962539101136,5.584802014190927,-9.55214770733187
1658789527219932,14.435034714274707,2.7161058976118966,-18.158236057068734
1658789527235920,8.026245517662346,-2.5940337224383256,-24.872205691615136
1658789527251907,3.5095750362402214,-9.85732814526591,-31.586175326161765
1658789527267894,4.486152437628789,-13.275349050125897,-40.2532997634853
1658789527283882,14.312962539101136,-13.58052948805971,-50.08010986495765
1658789527299869,28.839551384756078,-9.063859006637585,-58.56412603952094
1658789527315857,39.09361409933604,-5.645838101777599,-65.94949263752187
1658789527331844,36.591134508277946,-9.613183794918768,-72.5413900968947
1658789527347831,25.848783093003703,-18.58548867017612,-78.21774624246586
1658789527363819,23.468375677118956,-21.51522087434182,-84.26031891355751
1658789527379791,32.07446402685582,-16.388189517051842,-91.34050507362463
1658789527395778,41.35194934004721,-11.01701380941472,-98.90897993438625
1658789527411766,45.68551155870887,-10.223544670786623,-105.8670939192798
1658789527427753,45.86861982146934,-12.298771648737329,-110.50583657587549
1658789527443740,42.26749065384888,-14.92332341496899,-114.59525444419023
1658789527459728,51.97222858014766,-12.909132524605184,-119.96643015182735
1658789527475715,55.939574273289054,-14.190890363927565,-125.88693064774543
1658789527491703,46.540016784923864,-16.1440451667047,-131.38017853055612
1658789527507690,43.61028458075816,-18.70756084534969,-136.75135423819324
1658789527523677,48.24902723735386,-22.064545662623004,-141.75631342030965
1658789527539665,56.12268253604907,-17.79201953154802,-140.2914473182268
1658789527555652,49.71389333943671,-17.48683909361398,-139.37590600442513
1658789527571640,32.257572289616064,-16.510261692225413,-143.83154039826036
1658789527587627,18.70756084534969,-21.881437399862534,-145.41847867551678
1658789527603614,20.721751735713724,-27.679865720607268,-140.3524834058137
1658789527619602,34.51590753032724,-20.23346303501944,-134.4319829098954
1658789527635589,54.04745555809859,-8.270389868009488,-138.5824368657968
1658789527651577,62.348363469901415,-6.9886320286868795,-143.95361257343393
1658789527667564,56.000610360875726,-15.289539940489703,-143.03807125963226
1658789527683551,43.73235675593173,-20.904859998473967,-137.48378728923467
1658789527699554,35.91973754482319,-16.08300907911803,-134.004730296788
1658789527715541,32.379644464789635,-11.627374685282575,-133.51644159609373
1658789527731529,35.30937666895534,-11.444266422522333,-132.60090028229183
1658789527747516,31.95239185168225,-14.679179064621849,-126.61936369878686
1658789527763504,20.904859998473967,-9.55214770733187,-122.83512626840616
1658789527779491,9.85732814526591,-1.983672846570471,-124.05584802014187
1658789527795478,10.833905546654478,0.8850232700083325,-122.10269321736473
1658789527811466,21.45418478675515,-1.5564202334630863,-117.03669794766165
1658789527827453,29.14473182269012,-1.739528496223329,-109.59029526207382
1658789527843441,21.637293049515392,2.9602502479590385,-102.57114518959338
1658789527859428,5.401693751430457,6.073090714885211,-105.98916609445337
1658789527875415,-0.45777065690094787,8.758678568703772,-112.45899137865263
1658789527891403,-3.0823224231326094,11.566338597695903,-110.81101701380953
1658789527907390,12.298771648737329,14.007782101167322,-104.76844434271766
1658789527923378,33.722438391698915,17.54787518120088,-101.41145952544457
1658789527939365,31.586175326161538,18.097199969481835,-103.91393911650266
1658789527955352,24.505989166094423,12.542915999084471,-108.67475394827193
1658789527971340,19.684138246738257,13.275349050125897,-107.57610437170979
1658789527987327,21.33211261158158,25.29945830472252,-97.01686121919602
1658789528003315,17.24269474326684,23.83459220263967,-85.90829327840083
1658789528019287,9.796292057679011,17.24269474326684,-81.08644235904467
1658789528035274,0.7629510948347615,19.9893186846723,-78.33981841763944
1658789528051262,4.852368963149502,24.994277866788707,-69.73373006790257
1658789528067249,8.6366063935302,23.163195239185143,-57.282368200198334
1658789528083236,6.622415503166167,16.2050812542916,-44.342717631799815
1658789528099224,4.730296787975931,12.664988174258042,-30.060273136491787
1658789528115211,-1.8616006713969,14.190890363927565,-12.848096437018285
1658789528131199,-2.8992141603723667,12.848096437018285,4.42511635004189
1658789528147186,-5.0354772259097444,9.918364232852582,19.073777370870403
1658789528163173,-7.537956816968062,8.209353780422589,32.440680552376534
1658789528179161,-7.843137254901876,9.796292057679011,45.13618677042791
1658789528195148,-14.373998626688035,11.383230334935433,56.48889906157001
1658789528211135,-28.107118333714652,12.054627298390187,65.03395132372043
1658789528227123,-35.67559319447628,9.73525597009234,72.84657053482897
1658789528243110,-32.928969253071045,9.796292057679011,79.98779278248276
1658789528259098,-29.755092698557974,10.467689021133765,90.8522163729308
1658789528275085,-29.999237048905115,8.941786831464015,104.34119172961027
1658789528291072,-33.11207751583129,4.486152437628789,114.96147096971072
1658789528307060,-36.652170595864845,2.655069810025225,122.28580148012497
1658789528323047,-36.89631494621199,2.410925459678083,129.24391546501874
1658789528339050,-32.01342793926915,1.5564202334630863,136.87342641336681
1658789528355037,-33.60036621652557,-3.3875028610666504,144.0146486610206
1658789528371025,-41.29091325246054,-10.284580758373295,149.38582436865772
1658789528387012,-47.94384679942027,-13.336385137712568,155.7335774776834
1658789528403000,-56.79407949950405,-14.251926451514464,160.92164492256052
1658789528418987,-55.87853818570238,-14.129854276340893,161.53200579842814
1658789528434974,-52.70466163118954,-15.838864728770886,163.9124132143129
1658789528450962,-52.3994811932555,-17.120622568093268,168.18493934538765
1658789528466949,-55.63439383535524,-13.519493400473038,169.22255283436334
1658789528482936,-58.44205386434737,-7.843137254901876,167.7576867322805
1658789528498924,-59.29655909056237,-7.598992904554734,164.705882352941
1658789528514911,-60.028992141603794,-6.683451590753066,158.29709315632863
1658789528530899,-56.30579079880977,-4.547188525215461,152.07141222247628
1658789528546886,-50.08010986495765,-6.8665598535133086,151.33897917143486
1658789528562873,-48.00488288700694,-10.833905546654478,153.59731441214626
1658789528578861,-38.72739757381555,-10.711833371480907,152.07141222247628
1658789528594848,-26.58121614404513,-8.026245517662346,143.28221560997918
1658789528610836,-33.90554665445961,-7.721065079728305,135.53063248645776
1658789528626823,-45.01411459525457,-11.505302510109004,132.90608072022587
1658789528642810,-38.60532539864198,-6.927595941100208,131.68535896849016
1658789528658813,-17.54787518120088,1.3122758831159445,131.99053940642398
1658789528674800,-18.89066910811016,0.33569848172737693,128.14526588845638
1658789528690788,-41.657129777981254,-8.819714656290444,115.5718318455788
1658789528706775,-58.99137865262833,-9.185931181811156,102.9373617151141
1658789528722763,-48.249027237354085,0.45777065690094787,94.94163424124508
1658789528738750,-27.86297398336751,2.7161058976118966,92.19501029983985
1658789528754737,-19.501029983978015,0.5798428320745188,91.46257724879842
1658789528770725,-30.4264896620125,-3.814755474174035,90.730144197757
1658789528786712,-42.32852674143601,-3.0212863355459376,85.17586022735941
1658789528802700,-41.901274128328396,0.15259021896690683,77.91256580453228
1658789528818687,-35.06523231860842,2.8992141603723667,73.76211184863087
1658789528834674,-26.031891355763946,5.2185854886702145,72.23620965896089
1658789528850662,-22.73594262607753,5.462729839017356,69.12336919203517
1658789528866649,-14.190890363927565,8.819714656290444,64.48462653543947
1658789528882637,-11.932555123216616,6.378271152819025,58.74723430228096
1658789528898624,-17.181658655680167,2.410925459678083,52.88776989394955
1658789528914611,-16.32715342946517,5.584802014190927,46.35690852216362
1658789528930599,-14.862287327382319,10.162508583199724,38.23910887312104
1658789528946586,-15.533684290836845,10.162508583199724,31.219958800640825
1658789528962574,-21.27107652399468,3.2654306858930795,26.947432669565842
1658789528978546,-28.96162355992965,-8.392462043183059,22.369726100556818
1658789528994533,-30.853742275120112,-15.655756466010416,16.1440451667047
1658789529010521,-17.120622568093268,-12.909132524605184,8.148317692835917
1658789529026508,2.288853284504512,-4.669260700389032,-0.213626306553806
1658789529042495,21.33211261158158,1.983672846570471,-9.246967269398056
1658789529058483,30.670634012359642,1.983672846570471,-17.975127794308264
1658789529074470,27.008468757152514,0.213626306553806,-24.689097428854666
1658789529090458,15.777828641183987,-3.7537193865873633,-30.36545357442583
1658789529106445,5.584802014190927,-11.20012207217519,-37.3235675593196
1658789529122432,4.974441138323073,-16.1440451667047,-45.31929503318838
1658789529138420,11.505302510109004,-15.533684290836845,-52.70466163118954
1658789529154407,22.49179827573039,-10.406652933546866,-59.1744869153888
1658789529170395,33.783474479285815,-7.904173342488775,-66.25467307545591
1658789529186382,36.346990157930804,-9.124895094224485,-73.3958953231097
1658789529202369,32.86793316548392,-10.467689021133765,-79.62157625696182
1658789529218357,31.70824750133511,-11.139085984588291,-85.60311284046679
1658789529234344,34.33279926756677,-8.392462043183059,-91.64568551155867
1658789529250332,36.65217059586462,-9.613183794918768,-95.7961394674603
1658789529266319,37.1404592965589,-12.603952086671143,-100.61799038681625
1658789529282306,34.2717631799801,-14.80125123979542,-105.98916609445337
1658789529298278,34.57694361791391,-12.848096437018285,-112.6420996414131
1658789529314266,35.73662928206295,-10.711833371480907,-118.62363622491807
1658789529330253,42.816815442130064,-12.115663385976859,-124.60517280842305
1658789529346241,45.86861982146934,-10.223544670786623,-126.863508049134
1658789529362228,50.629434653238604,-3.3264667734797513,-128.20630197604328
1658789529378215,47.45555809872576,-2.8992141603723667,-127.718013275349
1658789529394203,36.65217059586462,-9.73525597009234,-127.04661631189447
1658789529410190,32.501716639963206,-13.397421225299468,-125.58175020981162
1658789529426178,32.562752727550105,-12.115663385976859,-121.4312962539102
1658789529442165,26.58121614404513,-10.284580758373295,-120.33264667734807
1658789529458152,32.99000534065749,-6.195162890058782,-127.29076066224161
1658789529474140,32.13550011444249,-10.650797283894008,-124.66620889600972
1658789529490127,33.4172579537651,-13.64156557564661,-119.60021362630664
1658789529506115,36.71320668345152,-8.148317692835917,-118.37949187457093
1658789529522102,42.57267109178292,-0.7629510948347615,-118.37949187457093
1658789529538089,40.253299763485074,-3.570611123826893,-113.74074921797524
1658789529554077,41.10780498970007,-8.148317692835917,-106.11123826962694
1658789529570064,31.64721141374821,-6.134126802471883,-102.75425345235385
1658789529586052,15.10643167772946,1.3122758831159445,-107.51506828412312
1658789529602039,8.392462043183059,5.279621576256886,-113.06935225452048
1658789529618042,13.76363775082018,3.0823224231326094,-109.28511482413978
1658789529634029,17.60891126878755,3.0823224231326094,-99.64141298542768
1658789529650016,15.777828641183987,6.683451590753066,-96.77271686884887
1658789529666004,11.993591210803288,10.284580758373295,-103.3646143282217
1658789529681991,12.359807736324,9.796292057679011,-106.05020218204027
1658789529697979,17.059586480506596,8.392462043183059,-97.32204165712983
1658789529713966,28.717479209582507,11.688410772869474,-89.20424200808725
1658789529729953,32.01342793926892,13.45845731288614,-88.5938811322194
1658789529745941,23.346303501945386,12.4208438239109,-94.27023727779056
1658789529761928,11.871519035629717,6.561379415579495,-97.81033035782411
1658789529777916,13.702601663233281,8.45349813076973,-91.21843289845106
1658789529793903,29.26680399786369,14.435034714274707,-77.42427710383754
1658789529809890,31.586175326161538,15.350576028076603,-73.82314793621731
1658789529825878,22.79697871366443,13.76363775082018,-78.461890592813
1658789529841865,15.289539940489703,13.397421225299468,-79.19432364385443
1658789529857853,14.068818188753994,18.76859693293659,-75.28801403830016
1658789529873840,15.045395590142562,22.430762188143717,-70.466163118944
1658789529889827,7.4158846417944915,19.378957808804444,-66.43778133821615
1658789529905815,-5.706874189364498,16.26611734187827,-65.15602349889377
1658789529921802,-4.303044174868319,19.745174334325156,-63.08079652094307
1658789529937774,1.8005645838102282,23.285267414358714,-57.09925993743809
1658789529953762,8.33142595559616,20.843823910887295,-50.812542915999074
1658789529969749,11.07804989700162,16.937514305333025,-42.999923704890534
1658789529985736,14.557106889448278,21.27107652399468,-35.55352101930271
1658789530001724,14.312962539101136,26.337071793697987,-31.403067063401295
1658789530017711,8.392462043183059,27.130540932326085,-27.80193789578084
1658789530033699,5.0354772259097444,22.67490653849086,-21.820401312275862
1658789530049686,2.7161058976118966,19.501029983978015,-13.885709925993751
1658789530065673,-4.9134050507361735,16.937514305333025,-5.828946364538069
1658789530081661,-6.012054627298312,13.214312962538997,0.3967345693140487
1658789530097648,-9.185931181811156,9.430075532158298,6.317235065232353
1658789530113636,-6.195162890058782,8.33142595559616,11.688410772869474
1658789530129623,-5.0354772259097444,6.744487678339738,20.294499122606112
1658789530145610,-6.9886320286868795,4.486152437628789,29.694056610971074
1658789530161598,-13.824673838406852,2.7771419851987957,38.11703669794747
1658789530177585,-14.618142977035177,0.03051804379333589,45.502403295948625
1658789530193573,-12.787060349431613,-0.09155413138023505,51.17875944151956
1658789530209560,-10.833905546654478,0.33569848172737693,57.52651255054525
1658789530225547,-11.566338597695903,-1.5564202334630863,62.28732738231474
1658789530241535,-12.23773556115043,-3.936827649347606,66.62088960097662
1658789530257537,-10.833905546654478,-5.889982452124741,72.29724574654801
1658789530273525,-11.627374685282575,-7.11070420386045,77.97360189211895
1658789530289512,-17.79201953154802,-8.941786831464015,82.49027237354085
1658789530305500,-23.102159151598244,-11.444266422522333,86.51865415426892
1658789530321487,-26.886396581978943,-15.350576028076603,92.0729381246665
1658789530337474,-29.022659647516548,-19.501029983978015,97.26100556954316
1658789530353462,-32.745860990310575,-21.942473487449433,102.63218127718028
1658789530369449,-36.10284580758389,-24.26184481574728,108.73579003585883
1658789530385437,-38.84946974898912,-27.679865720607268,113.13038834210738
1658789530401424,-40.741588464179586,-27.557793545433697,116.3653009842069
1658789530417411,-40.2532997634853,-25.543602655069662,120.94300755321592
1658789530433399,-38.48325322346841,-23.651483939879427,124.36102845807591
1658789530449386,-42.02334630350197,-25.665674830243233,124.29999237048924
1658789530465374,-46.84519722285813,-25.36049439230942,122.16372930495163
1658789530481361,-39.337758449683406,-19.073777370870403,122.83512626840638
1658789530497348,-26.886396581978943,-14.557106889448278,125.64278629739829
1658789530513336,-19.745174334325156,-15.045395590142562,127.47386892500208
1658789530529323,-24.322880903333953,-21.210040436408008,130.34256504158066
1658789530545311,-38.056000610361025,-22.308690012970146,128.81666285191113
1658789530561298,-43.91546501869243,-17.79201953154802,120.82093537804212
1658789530577270,-33.41725795376533,-11.871519035629717,117.28084229800879
1658789530593258,-17.059586480506596,-11.993591210803288,124.42206454566258
1658789530609245,-17.730983443961122,-16.937514305333025,134.0657663843749
1658789530625232,-35.00419623102175,-17.36476691844041,134.859235523003
1658789530641220,-60.94453345540546,-12.726024261844714,126.863508049134
1658789530657207,-69.85580224307614,-11.444266422522333,120.82093537804212
1658789530673195,-52.3994811932555,-8.270389868009488,120.45471885252164
1658789530689182,-37.2625314717327,-9.185931181811156,124.42206454566258
1658789530705169,-36.835278858625315,-12.664988174258042,125.09346150911733
1658789530721157,-49.04249637598241,-14.068818188753994,114.04592965590928
1658789530737144,-58.686198214694514,-8.575570305943302,98.84794384679935
1658789530753131,-40.436408026245545,-2.5940337224383256,93.59884031433603
1658789530769119,-17.36476691844041,-0.213626306553806,98.48172732127887
1658789530785106,-4.852368963149502,0.8239871824216607,103.30357824063503
1658789530801094,-3.814755474174035,1.8616006713969,95.00267032883221
1658789530817081,-21.820401312275862,0.6408789196611906,83.58892195010321
1658789530833068,-34.3938353551539,-0.03051804379333589,81.08644235904512
1658789530849056,-27.069504844739413,5.2185854886702145,82.61234454871465
1658789530865043,-10.833905546654478,6.134126802471883,82.30716411078083
1658789530881031,-0.213626306553806,4.119935912108076,78.46189059281323
