Timestamp (microseconds),Accel X (g),Accel Y (g),Accel Z (g)
1658789412899932,-0.11883726253147175,1.0297398336766612,0.1747463187609677
1658789412915929,-0.10540932326237895,1.0082551308461127,0.16693369954985915
1658789412931926,-0.1030899519340811,0.9750514991989014,0.16888685435263628
1658789412947923,-0.11334401464866106,0.9756618600747693,0.17535667963683554
1658789412963920,-0.11126878767071036,0.9893339436942092,0.16656748302433844
1658789412979917,-0.10992599374380108,0.9945830472266728,0.16693369954985915
1658789412995914,-0.10443274586099038,0.9844510566872664,0.16656748302433844
1658789413011911,-0.11432059205004963,0.9943389028763256,0.17584496833752983
1658789413027908,-0.11920347905699247,1.0099641412985427,0.168398565651942
1658789413043905,-0.11322194247348749,1.0039826047150378,0.17145037003128127
1658789413059902,-0.10675211718928823,0.9667505912870986,0.17279316395819055
1658789413075899,-0.10846112764171822,0.9618677042801558,0.17669947356374482
1658789413091896,-0.11432059205004963,1.009597924773022,0.16766613260090057
1658789413107893,-0.10614175631342038,1.0083772030212863,0.17560082398718269
1658789413123890,-0.1106584267948425,0.9698023956664379,0.17450217441062055
1658789413139886,-0.11725032425421533,0.9822537575341421,0.18841840238040763
1658789413155883,-0.1144426642252232,0.9792019531548029,0.19134813458457334
1658789413171880,-0.11700617990386819,0.9917753871976807,0.19159227893492048
1658789413187877,-0.12213321126115817,1.018997482261387,0.18670939192797764
1658789413203874,-0.12103456168459603,1.0120393682764934,0.20025940337224402
1658789413219879,-0.11078049897001607,0.9872587167162585,0.1923247119859619
1658789413235876,-0.11700617990386819,0.9690699626153965,0.18890669108110192
1658789413251873,-0.12420843823910888,0.9907988097962921,0.19794003204394617
1658789413267870,-0.1123674372472725,0.9920195315480278,0.18658731975280407
1658789413283867,-0.10699626153963537,0.9826199740596628,0.16070801861600703
1658789413299863,-0.11187914854657821,0.9826199740596628,0.1725490196078434
1658789413315860,-0.11505302510109106,0.9937285420004578,0.19269092851148262
1658789413331857,-0.10577553978789966,0.9971465629053178,0.18890669108110192
1658789413347854,-0.09881742580300612,0.9806668192568857,0.17999542229343124
1658789413363851,-0.1077286945906768,0.9655298695353629,0.167544060425727
1658789413379848,-0.11932555123216604,0.9849393453879607,0.18585488670176264
1658789413395845,-0.11663996337834748,1.0004425116350042,0.18841840238040763
1658789413411842,-0.11200122072175178,0.9967803463797971,0.17022964827954556
1658789413427839,-0.11419851987487606,0.9788357366292821,0.16766613260090057
1658789413443836,-0.12530708781567101,0.9892118715190357,0.1847562371252005
1658789413459833,-0.1135881589990082,1.0192416266117341,0.18695353627832478
1658789413475830,-0.10467689021133753,0.9799343862058443,0.18023956664377838
1658789413491827,-0.10821698329137108,0.9532005798428322,0.1721828030823227
1658789413507824,-0.1249408712901503,0.9762722209506371,0.1843900205996798
1658789413523821,-0.1173723964293889,0.9967803463797971,0.19269092851148262
1658789413539825,-0.11639581902800034,0.9732204165712979,0.1797512779430841
1658789413555822,-0.12164492256046389,0.9624780651560236,0.17914091706721624
1658789413571819,-0.12921339742122528,0.9955596246280614,0.1961089494163426
1658789413587816,-0.12335393301289388,1.0091096360723277,0.1911039902342262
1658789413603813,-0.10345616845960182,0.9920195315480278,0.1914702067597469
1658789413619810,-0.11053635461966893,0.9610131990539408,0.1780422674906541
1658789413635807,-0.11834897383077747,0.98628213931487,0.16559090562294987
1658789413651804,-0.11004806591897465,1.004226749065385,0.16363775082017273
1658789413667801,-0.1135881589990082,0.9922636758983749,0.16070801861600703
1658789413683797,-0.12713817044327458,0.9981231403067063,0.16498054474708201
1658789413699794,-0.1426413366903181,1.0376745250629433,0.18121614404516695
1658789413715791,-0.12469672693980316,1.0449988555733576,0.18072785534447267
1658789413731788,-0.1068741893644618,0.9849393453879607,0.18316929884794408
1658789413747785,-0.11004806591897465,0.9522240024414437,0.1826810101472498
1658789413763782,-0.126161593041886,0.9759060044251164,0.1751125352864884
1658789413779779,-0.13690394445716025,1.0088654917219806,0.15680170901045276
1658789413795776,-0.11871519035629818,1.0092317082475013,0.16119630731670131
1658789413811773,-0.11346608682383463,0.9567406729228658,0.15802243076218847
1658789413827770,-0.13397421225299455,0.9678492408636608,0.1776760509651334
1658789413843767,-0.13018997482261385,0.9994659342336156,0.2007476920729383
1658789413859649,-0.12225528343633174,0.9928740367742428,0.19037155718318477
1658789413875646,-0.12298771648737317,0.9843289845120928,0.1852445258258948
1658789413891642,-0.12530708781567101,0.987136644541085,0.1919584954604412
1658789413907639,-0.1383688105592431,1.0214389257648584,0.206240939955749
1658789413923635,-0.12310978866254674,1.0175326161593041,0.18963912413214334
1658789413939632,-0.11163500419623107,0.9754177157244222,0.16852063782711557
1658789413955628,-0.11346608682383463,0.9438010223544673,0.16656748302433844
1658789413971624,-0.1240863660639353,0.9698023956664379,0.1747463187609677
1658789413987621,-0.11334401464866106,1.0014190890363928,0.17450217441062055
1658789414003617,-0.11004806591897465,0.9833524071107043,0.16949721522850414
1658789414019614,-0.11969176775768675,0.9514915693904022,0.16974135957885128
1658789414035610,-0.1283588921950103,0.9950713359273671,0.19098191805905262
1658789414051607,-0.11419851987487606,1.0146028839551384,0.1978179598687726
1658789414067603,-0.10736247806515609,0.9986114290074006,0.1826810101472498
1658789414083600,-0.1161516746776532,0.9823758297093157,0.18402380407415908
1658789414099596,-0.12896925307087814,0.983718623636225,0.1864652475776305
1658789414115593,-0.12396429388876173,1.0006866559853513,0.17779812314030696
1658789414131589,-0.11212329289692535,0.9960479133287556,0.17376974135957912
1658789414147585,-0.11273365377279321,0.9661402304112308,0.17084000915541342
1658789414163582,-0.12310978866254674,0.9658960860608836,0.17938506141756339
1658789414179382,-0.12762645914396886,0.9757839322499429,0.17364766918440555
1658789414195378,-0.12945754177157243,0.9931181811245899,0.1742580300602734
1658789414211374,-0.12689402609292744,1.0114290074006256,0.19073777370870548
1658789414227370,-0.12896925307087814,1.0032501716639963,0.1940337224383919
1658789414243366,-0.11969176775768675,0.9860379949645228,0.18780804150453978
1658789414259362,-0.11883726253147175,0.9718776226443886,0.17315938048371127
1658789414275358,-0.12738231479362172,0.9812771801327536,0.17999542229343124
1658789414291354,-0.12933546959639886,0.9903105210955978,0.18500038147554765
1658789414307350,-0.12091248950942246,0.9834744792858778,0.17877470054169553
1658789414323346,-0.12640573739223315,0.9821316853589686,0.16510261692225559
1658789414339342,-0.12738231479362172,0.9936064698252842,0.17193865873197556
1658789414355338,-0.1283588921950103,0.9986114290074006,0.18377965972381194
1658789414371334,-0.12066834515907532,0.9945830472266728,0.18707560845349835
1658789414387330,-0.11602960250247962,0.9767605096513314,0.17547875181200911
1658789414403326,-0.12591744869153887,0.978591592278935,0.17145037003128127
1658789414419322,-0.13141069657434956,1.0093537804226749,0.19269092851148262
1658789414435318,-0.12603952086671244,1.0086213473716334,0.18500038147554765
1658789414451314,-0.11627374685282676,0.9879911497673,0.18121614404516695
1658789414467310,-0.11981383993286032,0.9698023956664379,0.166689555199512
1658789414483306,-0.1328755626764324,0.9883573662928207,0.17242694743266984
1658789414499145,-0.12359807736324102,0.9931181811245899,0.17352559700923198
1658789414515140,-0.11834897383077747,0.9792019531548029,0.1797512779430841
1658789414531135,-0.11871519035629818,0.97773708705272,0.17071793698023985
1658789414547130,-0.13348592355230027,0.9983672846570535,0.17901884489204267
1658789414563125,-0.13519493400473026,1.017288471808957,0.19757381551842546
1658789414579120,-0.12249942778667888,0.9823758297093157,0.1860990310521098
1658789414595115,-0.12213321126115817,0.9619897764553293,0.18573281452658907
1658789414611110,-0.12713817044327458,0.9696803234912643,0.18536659800106836
1658789414627105,-0.13153276874952313,1.0028839551384756,0.17438010223544698
1658789414643100,-0.127016098268101,1.0185091935606927,0.18036163881895195
1658789414659095,-0.12274357213702602,0.9838406958113985,0.16693369954985915
1658789414675090,-0.12591744869153887,0.96406500343328,0.1768215457389184
1658789414691085,-0.13031204699778742,0.9745632104982072,0.1885404745555812
1658789414707080,-0.1308003356984817,0.9950713359273671,0.1881742580300605
1658789414723075,-0.12420843823910888,0.9951934081025406,0.17706569008926554
1658789414739071,-0.12176699473563746,0.9861600671396964,0.17071793698023985
1658789414755066,-0.13153276874952313,0.9864042114900435,0.18109407186999338
1658789414771061,-0.131288624399176,1.0031280994888228,0.18670939192797764
1658789414787056,-0.11663996337834748,0.9868925001907378,0.18622110322728336
1658789414803051,-0.11468680857557034,0.9529564354924851,0.17535667963683554
1658789414818908,-0.13189898527504385,0.9655298695353629,0.16900892652780986
1658789414834903,-0.14019989318684667,1.0126497291523613,0.1864652475776305
1658789414850897,-0.13238727397573813,1.017288471808957,0.1948882276646069
1658789414866892,-0.11859311818112461,0.98628213931487,0.18963912413214334
1658789414882887,-0.12140077821011674,0.9712672617685207,0.18255893797207623
1658789414898881,-0.1337300679026474,0.9831082627603571,0.18866254673075478
1658789414914876,-0.13324177920195313,0.9964141298542764,0.18133821622034052
1658789414930870,-0.12274357213702602,0.9967803463797971,0.17865262836652196
1658789414946865,-0.12530708781567101,0.9713893339436943,0.17926298924238981
1658789414962859,-0.13775844968337525,0.9735866330968186,0.1801174944686048
1658789414978854,-0.13104448004882885,0.9938506141756314,0.17938506141756339
1658789414994848,-0.12591744869153887,0.9810330357824064,0.17755397878995982
1658789415010843,-0.126161593041886,0.9792019531548029,0.18707560845349835
1658789415026837,-0.13299763485160598,0.9806668192568857,0.18512245365072122
1658789415042832,-0.13104448004882885,1.0006866559853513,0.16815442130159486
1658789415058827,-0.12518501564049744,1.0021515220874342,0.1704737926298927
1658789415074821,-0.12628366521705958,0.9877470054169528,0.18414587624933265
1658789415090816,-0.1316548409246967,0.9834744792858778,0.18658731975280407
1658789415106810,-0.12628366521705958,0.97431906614786,0.18158236057068766
1658789415122805,-0.12677195391775387,0.9800564583810178,0.16241702906843702
1658789415138672,-0.13092240787365528,0.9931181811245899,0.1633936064698256
1658789415154666,-0.13092240787365528,1.002761882963302,0.17840848401617482
1658789415170660,-0.12433051041428245,0.9861600671396964,0.18329137102311766
1658789415186654,-0.13031204699778742,0.97431906614786,0.17230487525749627
1658789415202648,-0.14068818188754095,0.983718623636225,0.17279316395819055
1658789415218642,-0.1383688105592431,1.0154573891813534,0.19085984588387905
1658789415234636,-0.12518501564049744,0.9966582742046235,0.18670939192797764
1658789415250630,-0.12726024261844815,0.9622339208056765,0.17792019531548053
1658789415266624,-0.13934538796063167,0.9799343862058443,0.17120622568093413
1658789415282618,-0.1333638513771267,1.0045929655909056,0.170107576104372
1658789415298612,-0.1266498817425803,0.9939726863508049,0.16400396734569345
1658789415314606,-0.1275043869687953,0.970901045243,0.170107576104372
1658789415330600,-0.13934538796063167,0.9771267261768521,0.18036163881895195
1658789415346594,-0.13568322270542454,1.0092317082475013,0.17499046311131483
1658789415362589,-0.12713817044327458,1.00337224383917,0.17376974135957912
1658789415378583,-0.12176699473563746,0.9698023956664379,0.168398565651942
1658789415394577,-0.12652780956740672,0.9678492408636608,0.16937514305333057
1658789415410571,-0.13397421225299455,0.9960479133287556,0.17828641184100125
1658789415426565,-0.13311970702677955,1.0065461203936827,0.16437018387121416
1658789415442559,-0.13226520180056456,0.9937285420004578,0.17401388570992626
1658789415458404,-0.13055619134813456,0.9782253757534143,0.17608911268787697
1658789415474398,-0.128725108720531,0.9735866330968186,0.18121614404516695
1658789415490391,-0.13519493400473026,0.9987335011825742,0.17999542229343124
1658789415506385,-0.1333638513771267,1.0069123369192035,0.17059586480506628
1658789415522379,-0.12567330434119173,0.9915312428473335,0.1671778439002063
1658789415538372,-0.12555123216601816,0.9599145494773786,0.17364766918440555
1658789415554366,-0.13556115053025097,0.9772487983520257,0.1771877622644391
1658789415570359,-0.13617151140611883,1.0034943160143435,0.1725490196078434
1658789415586353,-0.1328755626764324,0.9984893568322271,0.17206073090714913
1658789415602347,-0.127016098268101,0.9812771801327536,0.1680323491264213
1658789415618340,-0.12982375829709314,0.9669947356374458,0.18377965972381194
1658789415634334,-0.14105439841306167,0.9713893339436943,0.18756389715419264
1658789415650327,-0.13971160448615239,0.9956816968032349,0.1823147936217291
1658789415666321,-0.1333638513771267,0.9948271915770199,0.17022964827954556
1658789415682314,-0.13446250095368883,0.9859159227893493,0.16534676127260273
1658789415698308,-0.13568322270542454,1.0047150377660792,0.17486839093614126
1658789415714302,-0.12896925307087814,0.988845654993515,0.1843900205996798
1658789415730295,-0.13104448004882885,0.96748302433814,0.17877470054169553
1658789415746289,-0.13446250095368883,0.9745632104982072,0.17230487525749627
1658789415762282,-0.13788052185854882,1.0012970168612192,0.17608911268787697
1658789415778198,-0.131288624399176,0.9940947585259785,0.18487830930037408
1658789415794191,-0.13275349050125884,0.9673609521629665,0.17657740138857125
1658789415810184,-0.13360799572747384,0.9694361791409172,0.168398565651942
1658789415826177,-0.13788052185854882,0.9988555733577478,0.16437018387121416
1658789415842170,-0.13971160448615239,1.0148470283054856,0.17608911268787697
1658789415858163,-0.1342183566033417,1.000808728160525,0.18719768062867193
1658789415874157,-0.1342183566033417,0.9779812314030671,0.18756389715419264
1658789415890150,-0.14142061493858238,0.9804226749065386,0.17523460746166197
1658789415906143,-0.14117647058823524,0.9960479133287556,0.17706569008926554
1658789415922136,-0.13018997482261385,0.9907988097962921,0.17315938048371127
1658789415938129,-0.1371480888075074,0.98115510795758,0.17608911268787697
1658789415954122,-0.13995574883649953,0.9876249332417792,0.1797512779430841
1658789415970115,-0.1438620584420538,0.9989776455329213,0.17364766918440555
1658789415986108,-0.14081025406271452,0.9922636758983749,0.17962920576791053
1658789416002102,-0.1366598001068131,0.9840848401617457,0.17438010223544698
1658789416018095,-0.13556115053025097,0.9865262836652171,0.17621118486305054
1658789416034088,-0.13946746013580524,0.9864042114900435,0.1768215457389184
1658789416050081,-0.14081025406271452,0.9901884489204242,0.17608911268787697
1658789416066074,-0.13311970702677955,0.9904325932707714,0.1742580300602734
1658789416082067,-0.12982375829709314,0.9772487983520257,0.16473640039673487
1658789416097931,-0.13482871747920955,0.9823758297093157,0.17535667963683554
1658789416113923,-0.13971160448615239,0.9900663767452507,0.18329137102311766
1658789416129916,-0.1400778210116731,0.9928740367742428,0.18707560845349835
1658789416145908,-0.13763637750820168,0.9851834897383078,0.17755397878995982
1658789416161901,-0.13604943923094526,0.9883573662928207,0.18084992751964624
1658789416177894,-0.13763637750820168,0.98628213931487,0.18036163881895195
1658789416193886,-0.13690394445716025,0.9801785305561914,0.1839017318989855
1658789416209879,-0.13446250095368883,0.9798123140306707,0.17560082398718269
1658789416225872,-0.13482871747920955,0.9783474479285879,0.16729991607537986
1658789416241864,-0.13702601663233382,0.9929961089494164,0.16949721522850414
1658789416257857,-0.13470664530403598,0.9980010681315328,0.17962920576791053
1658789416273850,-0.13141069657434956,0.9784695201037614,0.18280308232242337
1658789416289842,-0.1350728618295567,0.9660181582360572,0.17169451438162842
1658789416305835,-0.14532692454413665,0.9792019531548029,0.1797512779430841
1658789416321828,-0.14361791409170666,1.0041046768902113,0.17621118486305054
1658789416337820,-0.13104448004882885,1.0056916151674677,0.17560082398718269
1658789416353813,-0.1290913252460517,0.9801785305561914,0.1704737926298927
1658789416369805,-0.13617151140611883,0.9652857251850158,0.169253070878157
1658789416385798,-0.14447241931792165,0.9805447470817121,0.18194857709620837
1658789416401791,-0.14349584191653308,0.9932402532997635,0.1830472266727705
1658789416417694,-0.1388570992599374,1.0006866559853513,0.17706569008926554
1658789416433686,-0.13763637750820168,0.9827420462348364,0.1771877622644391
1658789416449678,-0.14837872892347592,0.98628213931487,0.18316929884794408
1658789416465670,-0.14630350194552522,1.002761882963302,0.18805218585488692
1658789416481662,-0.13775844968337525,1.0005645838101778,0.1751125352864884
1658789416497655,-0.13006790264744028,0.975173571374075,0.1680323491264213
1658789416513647,-0.13653772793163954,0.9676050965133136,0.167544060425727
1658789416529639,-0.14276340886549166,0.970046540016785,0.17438010223544698
1658789416545631,-0.13910124361028453,0.9818875410086214,0.17267109178301698
1658789416561623,-0.14032196536202024,0.9827420462348364,0.169253070878157
1658789416577615,-0.14703593499656664,0.9926298924238957,0.17376974135957912
1658789416593608,-0.14911116197451735,0.9993438620584421,0.17279316395819055
1658789416609600,-0.1459372854200045,0.9969024185549706,0.18756389715419264
1658789416625592,-0.14154268711375595,0.9727321278706036,0.1902494850080112
1658789416641584,-0.13763637750820168,0.9840848401617457,0.17523460746166197
1658789416657576,-0.13153276874952313,0.9936064698252842,0.17865262836652196
1658789416673568,-0.132143129625391,0.99140917067216,0.18109407186999338
1658789416689561,-0.1383688105592431,0.9707789730678265,0.17694361791409197
1658789416705553,-0.13763637750820168,0.9701686121919586,0.1852445258258948
1658789416721545,-0.14251926451514452,0.9860379949645228,0.19122606240939977
1658789416737457,-0.14081025406271452,0.9969024185549706,0.18426794842450622
1658789416753449,-0.13958953231097881,0.9927519645990692,0.1948882276646069
1658789416769441,-0.1447165636682688,0.9829861905851836,0.19879453727016116
1658789416785433,-0.14227512016479738,0.9886015106431678,0.1906157015335319
1658789416801426,-0.14630350194552522,0.9971465629053178,0.1847562371252005
1658789416817418,-0.13739223315785454,0.9810330357824064,0.18451209277485336
1658789416833410,-0.14483863584344236,0.9695582513160907,0.1906157015335319
1658789416849402,-0.15155260547798877,0.9756618600747693,0.18536659800106836
1658789416865394,-0.15008773937590592,1.0020294499122606,0.1823147936217291
1658789416881386,-0.14154268711375595,0.9926298924238957,0.19134813458457334
1658789416897379,-0.1430075532158388,0.9707789730678265,0.19977111467154973
1658789416913371,-0.14837872892347592,0.983718623636225,0.18976119630731692
1658789416929363,-0.14789044022278164,1.0108186465247577,0.18329137102311766
1658789416945355,-0.14288548104066523,1.0037384603646906,0.1826810101472498
1658789416961347,-0.1442282749675745,0.9761501487754636,0.19085984588387905
1658789416977339,-0.1459372854200045,0.9600366216525522,0.17962920576791053
1658789416993332,-0.1442282749675745,0.9783474479285879,0.18829633020523406
1658789417009324,-0.13861295490959025,0.9798123140306707,0.17816433966582768
1658789417025316,-0.1392233157854581,0.9816433966582743,0.17352559700923198
1658789417041308,-0.14105439841306167,0.9877470054169528,0.18255893797207623
1658789417057220,-0.14325169756618594,0.9855497062638285,0.19501029983978047
1658789417073212,-0.1464255741206988,0.985427634088655,0.20184634164950044
1658789417089203,-0.14361791409170666,0.9922636758983749,0.18951705195696977
1658789417105195,-0.14312962539101237,0.9927519645990692,0.1814602883955141
1658789417121187,-0.14459449149309522,0.9824979018844893,0.19537651636530118
1658789417137179,-0.14996566720073234,0.9685816739147022,0.20184634164950044
1658789417153170,-0.15191882200350948,0.9745632104982072,0.18963912413214334
1658789417169162,-0.1380025940337224,0.9839627679865721,0.18243686579690266
1658789417185154,-0.14251926451514452,0.9756618600747693,0.17694361791409197
1658789417201145,-0.14361791409170666,0.9817654688334478,0.18719768062867193
1658789417217137,-0.14190890363927666,0.9870145723659114,0.19037155718318477
1658789417233129,-0.14239719233997095,0.9792019531548029,0.1797512779430841
1658789417249120,-0.14862287327382306,0.9857938506141757,0.1835355153734648
1658789417265112,-0.14398413061722737,0.9881132219424735,0.19049362935835834
1658789417281104,-0.14019989318684667,0.97773708705272,0.1847562371252005
1658789417297095,-0.14068818188754095,0.96748302433814,0.17706569008926554
1658789417313087,-0.14630350194552522,0.9894560158693828,0.18219272144655552
1658789417329079,-0.14569314106965736,1.006179903868162,0.18890669108110192
1658789417345070,-0.14251926451514452,0.9912870984969864,0.1835355153734648
1658789417361062,-0.14435034714274808,0.9646753643091479,0.18744182497901907
1658789417376953,-0.1417868314641031,0.9662623025864043,0.1826810101472498
1658789417392944,-0.15045395590142663,0.9987335011825742,0.18377965972381194
1658789417408935,-0.14825665674830235,1.004226749065385,0.1856107423514155
1658789417424926,-0.14435034714274808,0.9774929427023729,0.1890287632562755
1658789417440918,-0.1509422446021209,0.9611352712291144,0.18414587624933265
1658789417456909,-0.16156252384222158,0.9898222323949035,0.1830472266727705
1658789417472900,-0.15680170901045232,1.0202182040131227,0.18292515449759694
1658789417488891,-0.14483863584344236,0.9995880064087892,0.1713282978561077
1658789417504882,-0.13580529488059812,0.9585717555504694,0.17999542229343124
1658789417520874,-0.1354390783550774,0.945021744106203,0.1902494850080112
1658789417536865,-0.14666971847104593,0.9737087052719922,0.17779812314030696
1658789417552856,-0.14630350194552522,1.0004425116350042,0.201968413824674
1658789417568847,-0.1409323262378881,0.9846952010376135,0.20514229037918685
1658789417584838,-0.14398413061722737,0.9654077973601893,0.20172426947432687
1658789417600830,-0.15130846112764162,0.9816433966582743,0.1981841763942933
1658789417616821,-0.14862287327382306,1.0026398107881285,0.19085984588387905
1658789417632812,-0.14825665674830235,0.9971465629053178,0.19293507286182976
1658789417648803,-0.14654764629587236,0.9833524071107043,0.20392156862745114
1658789417664795,-0.15216296635385662,0.9765163653009843,0.2066071564812697
1658789417680786,-0.1517967498283359,0.9911650263218128,0.20172426947432687
1658789417696716,-0.14019989318684667,0.9928740367742428,0.18707560845349835
1658789417712707,-0.1409323262378881,0.9816433966582743,0.1839017318989855
1658789417728698,-0.14959945067521163,0.9890897993438621,0.1995269703212026
1658789417744690,-0.15338368810559233,0.9900663767452507,0.205386434729534
1658789417760681,-0.1526512550545509,0.9761501487754636,0.1973296711680783
1658789417776672,-0.14837872892347592,0.968337529564355,0.19647516594186332
1658789417792663,-0.15106431677729448,0.97431906614786,0.20599679560540185
1658789417808654,-0.1526512550545509,0.9868925001907378,0.20550850690470757
1658789417824646,-0.15155260547798877,0.9992217898832685,0.19330128938735047
1658789417840637,-0.1531395437552452,0.9856717784390021,0.19378957808804476
1658789417856628,-0.15533684290836947,0.9730983443961243,0.20599679560540185
1658789417872619,-0.15289539940489805,0.988845654993515,0.2095368886854354
1658789417888610,-0.1467917906462195,1.0000762951094835,0.20062561989776473
1658789417904602,-0.13958953231097881,0.9701686121919586,0.19427786678873904
1658789417920593,-0.14776836804760807,0.9546654459449151,0.1826810101472498
1658789417936584,-0.15619134813458446,0.978591592278935,0.1948882276646069
1658789417952575,-0.1517967498283359,0.9910429541466392,0.20123598077363258
1658789417968567,-0.14532692454413665,0.9762722209506371,0.19159227893492048
1658789417984558,-0.13958953231097881,0.976882581826505,0.19842832074464045
1658789418000549,-0.14666971847104593,0.9833524071107043,0.1914702067597469
1658789418016479,-0.14911116197451735,0.9999542229343099,0.201968413824674
1658789418032470,-0.14288548104066523,0.9793240253299764,0.1961089494163426
1658789418048461,-0.13995574883649953,0.9568627450980394,0.19427786678873904
1658789418064451,-0.1552147707331959,0.9676050965133136,0.19940489814602902
1658789418080442,-0.1502098115510795,0.98970016021973,0.20001525902189687
1658789418096433,-0.14325169756618594,0.9867704280155642,0.19586480506599546
1658789418112424,-0.1388570992599374,0.9766384374761579,0.19183642328526762
1658789418128414,-0.14544899671931022,0.9759060044251164,0.19122606240939977
1658789418144405,-0.14740215152208735,0.9921416037232014,0.1868314641031512
1658789418160396,-0.14776836804760807,0.9898222323949035,0.1969634546425576
1658789418176386,-0.14447241931792165,0.975173571374075,0.20477607385366614
1658789418192377,-0.1433737697413595,0.9650415808346686,0.1923247119859619
1658789418208368,-0.1535057602807659,0.9920195315480278,0.1911039902342262
1658789418224359,-0.15155260547798877,1.0120393682764934,0.1990386816205083
1658789418240349,-0.14312962539101237,0.9944609750514992,0.19208056763561476
1658789418256340,-0.13653772793163954,0.9672388799877929,0.18219272144655552
1658789418272331,-0.14703593499656664,0.976882581826505,0.18451209277485336
1658789418288322,-0.1564354924849316,0.9977569237811856,0.18927290760662263
1658789418304312,-0.14496070801861594,1.0017853055619135,0.19293507286182976
1658789418320303,-0.1442282749675745,0.9778591592278936,0.1885404745555812
1658789418336212,-0.14569314106965736,0.970046540016785,0.19427786678873904
1658789418352202,-0.15008773937590592,0.9816433966582743,0.20135805294880615
1658789418368192,-0.14581521324483093,0.9881132219424735,0.19623102159151617
1658789418384183,-0.14142061493858238,0.9809109636072328,0.1923247119859619
1658789418400173,-0.14398413061722737,0.980300602731365,0.2024567025253683
1658789418416163,-0.14837872892347592,0.9853055619134814,0.1998931868467233
1658789418432153,-0.14447241931792165,0.9927519645990692,0.19391165026321833
1658789418448144,-0.13958953231097881,0.9755397878995957,0.19073777370870548
1658789418464134,-0.14190890363927666,0.9601586938277258,0.19794003204394617
1658789418480124,-0.14654764629587236,0.9812771801327536,0.20611886778057542
1658789418496114,-0.14203097581445023,0.9978789959563592,0.20062561989776473
1658789418512105,-0.13824673838406953,0.9801785305561914,0.19073777370870548
1658789418528095,-0.13641565575646597,0.9646753643091479,0.1826810101472498
1658789418544085,-0.1467917906462195,0.9724879835202564,0.20599679560540185
1658789418560075,-0.14789044022278164,1.0030060273136492,0.20440985732814543
1658789418576066,-0.1350728618295567,0.9976348516060121,0.19183642328526762
1658789418592056,-0.13470664530403598,0.9696803234912643,0.1961089494163426
1658789418608046,-0.14166475928892952,0.9577172503242544,0.201113908598459
1658789418624036,-0.14435034714274808,0.9718776226443886,0.21393148699168396
1658789418640027,-0.14081025406271452,0.9744411383230336,0.20221255817502115
1658789418655975,-0.14190890363927666,0.9853055619134814,0.18292515449759694
1658789418671965,-0.1442282749675745,0.9972686350804914,0.19134813458457334
1658789418687955,-0.14239719233997095,0.9997100785839628,0.201968413824674
1658789418703946,-0.1362935835812924,0.9755397878995957,0.19745174334325188
1658789418719936,-0.13946746013580524,0.950148775463493,0.18670939192797764
1658789418735926,-0.1450827801937895,0.9701686121919586,0.18548867017624193
1658789418751917,-0.1459372854200045,0.9987335011825742,0.18988326848249049
1658789418767907,-0.1409323262378881,1.0020294499122606,0.18890669108110192
1658789418783897,-0.13873502708476382,0.9745632104982072,0.1885404745555812
1658789418799887,-0.1442282749675745,0.9613794155794615,0.19354543373769761
1658789418815878,-0.1535057602807659,0.9838406958113985,0.2048981460288397
1658789418831868,-0.14410620279240094,1.002761882963302,0.20978103303578255
1658789418847858,-0.13702601663233382,0.9784695201037614,0.18866254673075478
1658789418863848,-0.13824673838406953,0.9556420233463037,0.17779812314030696
1658789418879839,-0.1576562142366673,0.9835965514610514,0.19037155718318477
1658789418895829,-0.15033188372625306,1.0182650492103456,0.1931792172121769
1658789418911819,-0.1442282749675745,1.0049591821164263,0.19757381551842546
1658789418927809,-0.13702601663233382,0.9607690547035936,0.20392156862745114
1658789418943800,-0.1517967498283359,0.9529564354924851,0.2086823834592204
1658789418959790,-0.15716792553597303,0.9944609750514992,0.20001525902189687
1658789418975708,-0.14325169756618594,1.0186312657358663,0.19244678416113548
1658789418991697,-0.1383688105592431,0.9932402532997635,0.18292515449759694
1658789419007687,-0.14154268711375595,0.9656519417105365,0.18890669108110192
1658789419023677,-0.15289539940489805,0.9733424887464714,0.18744182497901907
1658789419039667,-0.14752422369726093,1.0032501716639963,0.1906157015335319
1658789419055657,-0.13861295490959025,0.9844510566872664,0.1890287632562755
1658789419071646,-0.13434042877851526,0.9577172503242544,0.19012741283283763
1658789419087636,-0.14874494544899663,0.9711451895933472,0.1981841763942933
1658789419103626,-0.15582513160906375,1.0084992751964599,0.20929274433508827
1658789419119616,-0.14605935759517807,1.0054474708171206,0.20648508430609613
1658789419135605,-0.1380025940337224,0.9678492408636608,0.19977111467154973
1658789419151595,-0.14740215152208735,0.9661402304112308,0.19794003204394617
1658789419167585,-0.14776836804760807,0.9894560158693828,0.19916075379568188
1658789419183575,-0.14032196536202024,0.9839627679865721,0.1868314641031512
1658789419199565,-0.13812466620889596,0.9651636530098422,0.18219272144655552
1658789419215554,-0.14190890363927666,0.9607690547035936,0.1864652475776305
1658789419231544,-0.15069810025177377,0.9922636758983749,0.19354543373769761
1658789419247534,-0.14398413061722737,1.0060578316929885,0.1995269703212026
1658789419263524,-0.14190890363927666,0.9805447470817121,0.19830624856946688
1658789419279513,-0.14618142977035165,0.9652857251850158,0.2033112077515833
1658789419295471,-0.15167467765316234,0.9733424887464714,0.22418554970626392
1658789419311461,-0.15130846112764162,0.9798123140306707,0.20904859998474112
1658789419327450,-0.14410620279240094,0.9893339436942092,0.19208056763561476
1658789419343440,-0.13824673838406953,0.973464560921645,0.1809719996948198
1658789419359430,-0.15130846112764162,0.9740749217975129,0.18915083543144906
1658789419375420,-0.15374990463111304,0.9881132219424735,0.20587472343022828
1658789419391409,-0.14166475928892952,0.9784695201037614,0.20257877470054186
1658789419407399,-0.14325169756618594,0.9551537346456094,0.18548867017624193
1658789419423389,-0.15033188372625306,0.9617456321049822,0.19647516594186332
1658789419439379,-0.1552147707331959,0.9999542229343099,0.20648508430609613
1658789419455369,-0.14789044022278164,1.007034409094377,0.20086976424811187
1658789419471358,-0.13971160448615239,0.98286411841001,0.19806210421911974
1658789419487348,-0.1476462958724345,0.9621118486305029,0.20294499122606258
1658789419503338,-0.15802243076218803,0.9833524071107043,0.20099183642328544
1658789419519328,-0.1502098115510795,1.0074006256198977,0.1902494850080112
1658789419535318,-0.1388570992599374,0.9953154802777142,0.18707560845349835
1658789419551307,-0.14166475928892952,0.9721217669947357,0.19354543373769761
1658789419567297,-0.15411612115663376,0.9723659113450829,0.20050354772259116
1658789419583287,-0.15887693598840302,0.9907988097962921,0.19269092851148262
1658789419599277,-0.15374990463111304,0.9962920576791028,0.19598687724116903
1658789419615203,-0.14569314106965736,0.9801785305561914,0.19586480506599546
1658789419631193,-0.15423819333180733,0.9829861905851836,0.20270084687571543
1658789419647183,-0.15704585336079946,1.0058136873426413,0.20392156862745114
1658789419663173,-0.15289539940489805,0.9983672846570535,0.18963912413214334
1658789419679163,-0.1455710688944838,0.9723659113450829,0.18341344319829123
1658789419695152,-0.15277332722972448,0.9639429312581065,0.19049362935835834
1658789419711142,-0.16131837949187444,0.9870145723659114,0.20550850690470757
1658789419727132,-0.15448233768215447,1.0052033264667735,0.20782787823300541
1658789419743122,-0.14544899671931022,0.97773708705272,0.20404364080262472
1658789419759112,-0.15216296635385662,0.9610131990539408,0.20318913557640972
1658789419775101,-0.15838864728770874,0.9923857480735485,0.21258869306477468
1658789419791091,-0.14581521324483093,0.9883573662928207,0.1957427328908219
1658789419807081,-0.14398413061722737,0.9607690547035936,0.17792019531548053
1658789419823071,-0.14459449149309522,0.9573510337987337,0.18463416495002694
1658789419839060,-0.15277332722972448,0.9727321278706036,0.19891660944533474
1658789419855050,-0.1480125123979552,0.9970244907301442,0.21063553826199755
1658789419871040,-0.14117647058823524,0.9710231174181736,0.204531929503319
1658789419887030,-0.13788052185854882,0.9585717555504694,0.205386434729534
1658789419903020,-0.14837872892347592,0.97602807660029,0.20599679560540185
1658789419919009,-0.15252918287937733,0.9990997177080949,0.20440985732814543
1658789419934967,-0.1514305333028152,1.0012970168612192,0.2083161669336997
1658789419950956,-0.1433737697413595,0.9792019531548029,0.20209048599984758
1658789419966945,-0.1400778210116731,0.9594262607766844,0.1990386816205083
1658789419982935,-0.14496070801861594,0.9755397878995957,0.20599679560540185
1658789419998924,-0.14923323414969092,0.9824979018844893,0.20770580605783184
1658789420014913,-0.1476462958724345,0.9678492408636608,0.19684138246738403
1658789420030902,-0.14312962539101237,0.9669947356374458,0.18927290760662263
1658789420046892,-0.1517967498283359,0.9732204165712979,0.18658731975280407
1658789420062881,-0.1517967498283359,0.9973907072556649,0.1957427328908219
1658789420078870,-0.14239719233997095,0.9792019531548029,0.19806210421911974
1658789420094860,-0.14740215152208735,0.9623559929808501,0.1969634546425576
1658789420110849,-0.15448233768215447,0.98286411841001,0.20184634164950044
1658789420126838,-0.15667963683527875,0.9936064698252842,0.20965896086060898
1658789420142828,-0.15387197680628661,0.9988555733577478,0.205386434729534
1658789420158817,-0.14813458457312878,0.9849393453879607,0.203677424277104
1658789420174806,-0.1488670176241702,0.9596704051270315,0.19208056763561476
1658789420190796,-0.15655756466010518,0.97602807660029,0.19293507286182976
1658789420206785,-0.15790035858701446,1.0069123369192035,0.1931792172121769
1658789420222774,-0.1547264820325016,1.0135042343785763,0.19684138246738403
1658789420238763,-0.1467917906462195,0.9868925001907378,0.1957427328908219
1658789420254699,-0.13946746013580524,0.9481956206607158,0.20001525902189687
1658789420270689,-0.15252918287937733,0.9667505912870986,0.19549858854047475
1658789420286678,-0.15204089417868305,0.9839627679865721,0.1911039902342262
1658789420302667,-0.15533684290836947,0.9842069123369193,0.18463416495002694
1658789420318657,-0.15106431677729448,0.9832303349355307,0.19073777370870548
1658789420334646,-0.15484855420767518,0.9894560158693828,0.19769588769359903
1658789420350635,-0.1522850385290302,1.000198367284657,0.21149004348821254
1658789420366624,-0.1459372854200045,0.9795681696803236,0.201113908598459
1658789420382614,-0.14691386282139307,0.9626001373311972,0.2007476920729383
1658789420398603,-0.1526512550545509,0.9815213244831007,0.20257877470054186
1658789420414592,-0.1543602655069809,0.98457312886244,0.19940489814602902
1658789420430582,-0.14947737850003806,0.9886015106431678,0.19330128938735047
1658789420446571,-0.14459449149309522,0.9737087052719922,0.1928130006866562
1658789420462560,-0.14959945067521163,0.9677271686884872,0.1965972381170369
1658789420478550,-0.1502098115510795,0.9770046540016786,0.19940489814602902
1658789420494539,-0.14837872892347592,0.9873807888914321,0.19269092851148262
1658789420510528,-0.1476462958724345,0.98628213931487,0.19855039291981402
1658789420526517,-0.14984359502555877,0.97261005569543,0.1978179598687726
1658789420542507,-0.15240711070420376,0.98628213931487,0.19464408331425975
1658789420558496,-0.1505760280766002,0.9929961089494164,0.1952544441901276
1658789420574463,-0.14703593499656664,0.9744411383230336,0.19806210421911974
1658789420590452,-0.15204089417868305,0.968337529564355,0.20123598077363258
1658789420606441,-0.1517967498283359,0.9853055619134814,0.18915083543144906
1658789420622430,-0.1450827801937895,0.9969024185549706,0.1860990310521098
1658789420638420,-0.14483863584344236,0.9818875410086214,0.19049362935835834
1658789420654409,-0.14373998626688023,0.9770046540016786,0.201968413824674
1658789420670398,-0.1552147707331959,0.9865262836652171,0.22211032272831321
1658789420686388,-0.15680170901045232,1.0023956664377813,0.2074616617074847
1658789420702377,-0.1502098115510795,0.9960479133287556,0.1931792172121769
1658789420718366,-0.15533684290836947,0.9827420462348364,0.18878461890592835
1658789420734356,-0.1593652246890973,0.982009613183795,0.20013733119707044
1658789420750345,-0.15655756466010518,0.9823758297093157,0.20697337300679042
1658789420766334,-0.15045395590142663,0.9732204165712979,0.1923247119859619
1658789420782323,-0.14752422369726093,0.9690699626153965,0.18121614404516695
1658789420798313,-0.1531395437552452,0.970901045243,0.19513237201495404
1658789420814302,-0.14581521324483093,0.9983672846570535,0.21063553826199755
1658789420830291,-0.1450827801937895,0.9853055619134814,0.20672922865644328
1658789420846281,-0.14496070801861594,0.9676050965133136,0.1873197528038455
1658789420862270,-0.14862287327382306,0.9719996948195622,0.19269092851148262
1658789420878259,-0.15399404898146019,0.9870145723659114,0.1995269703212026
1658789420894226,-0.14251926451514452,0.9752956435492486,0.20563057907988114
1658789420910215,-0.15301747158007162,0.9610131990539408,0.203677424277104
1658789420926203,-0.15204089417868305,0.9704127565423057,0.19855039291981402
1658789420942192,-0.14959945067521163,0.9864042114900435,0.20416571297779829
1658789420958181,-0.14361791409170666,0.9833524071107043,0.20221255817502115
1658789420974170,-0.1426413366903181,0.9763942931258107,0.18890669108110192
1658789420990159,-0.14752422369726093,0.9856717784390021,0.19452201113908618
1658789421006147,-0.1467917906462195,0.9887235828183414,0.18316929884794408
1658789421022136,-0.14813458457312878,0.98286411841001,0.18780804150453978
1658789421038125,-0.14435034714274808,0.9892118715190357,0.1881742580300605
1658789421054114,-0.1442282749675745,0.9688258182650493,0.1868314641031512
1658789421070103,-0.14789044022278164,0.9884794384679942,0.1885404745555812
1658789421086092,-0.14776836804760807,0.9990997177080949,0.19513237201495404
1658789421102080,-0.14373998626688023,0.982009613183795,0.19366750591287119
1658789421118069,-0.1455710688944838,0.9652857251850158,0.19330128938735047
1658789421134058,-0.15509269855802232,0.9663843747615779,0.19073777370870548
1658789421150047,-0.15240711070420376,0.9977569237811856,0.18170443274586123
1658789421166036,-0.14532692454413665,0.9964141298542764,0.18207064927138195
1658789421182025,-0.14166475928892952,0.9702906843671322,0.19586480506599546
1658789421198013,-0.14752422369726093,0.9638208590829329,0.20758373388265827
1658789421213989,-0.15362783245593947,0.9773708705271993,0.19708552681773117
1658789421229978,-0.161440451667048,0.9937285420004578,0.1957427328908219
1658789421245967,-0.15533684290836947,0.9962920576791028,0.20343327992675686
1658789421261955,-0.14874494544899663,0.9920195315480278,0.20721751735713756
1658789421277944,-0.15033188372625306,0.9865262836652171,0.20697337300679042
1658789421293933,-0.14923323414969092,0.97944609750515,0.19476615548943332
1658789421309922,-0.14752422369726093,0.9665064469367515,0.18280308232242337
1658789421325911,-0.15240711070420376,0.9745632104982072,0.1893949797817962
1658789421341899,-0.1502098115510795,0.9940947585259785,0.1998931868467233
1658789421357888,-0.14496070801861594,0.9917753871976807,0.1940337224383919
1658789421373877,-0.14154268711375595,0.9737087052719922,0.19293507286182976
1658789421389866,-0.14496070801861594,0.9622339208056765,0.19037155718318477
1658789421405855,-0.1607080186160066,0.9947051194018464,0.20306706340123615
1658789421421844,-0.15509269855802232,0.9948271915770199,0.2179598687724118
1658789421437832,-0.15033188372625306,0.9767605096513314,0.20514229037918685
1658789421453821,-0.14544899671931022,0.96919203479057,0.20697337300679042
1658789421469810,-0.15423819333180733,0.9809109636072328,0.20148012512397973
1658789421485799,-0.15082017242694734,0.9972686350804914,0.19562066071564832
1658789421501788,-0.15008773937590592,0.96406500343328,0.19000534065766406
1658789421517777,-0.15680170901045232,0.9499046311131458,0.2091706721599147
1658789421533722,-0.15960936903944445,0.9715114061188679,0.20062561989776473
1658789421549710,-0.15680170901045232,1.0000762951094835,0.1990386816205083
1658789421565699,-0.1514305333028152,0.9960479133287556,0.20099183642328544
1658789421581688,-0.1409323262378881,0.9699244678416115,0.2091706721599147
1658789421597677,-0.14581521324483093,0.9579613946746015,0.19806210421911974
1658789421613666,-0.1497215228503852,0.9883573662928207,0.18793011367971335
1658789421629655,-0.15033188372625306,1.0076447699702449,0.18695353627832478
1658789421645643,-0.14691386282139307,0.9881132219424735,0.19598687724116903
1658789421661632,-0.14068818188754095,0.9623559929808501,0.2057526512550547
1658789421677621,-0.15448233768215447,0.953566796368353,0.21063553826199755
1658789421693610,-0.16156252384222158,0.9792019531548029,0.20648508430609613
1658789421709599,-0.1517967498283359,1.000808728160525,0.1990386816205083
1658789421725587,-0.14496070801861594,0.9901884489204242,0.19891660944533474
1658789421741576,-0.14947737850003806,0.9843289845120928,0.20416571297779829
1658789421757565,-0.1514305333028152,0.9918974593728542,0.2091706721599147
1658789421773554,-0.15204089417868305,0.9943389028763256,0.1948882276646069
1658789421789543,-0.15326161593041876,0.9770046540016786,0.18170443274586123
1658789421805532,-0.1514305333028152,0.9917753871976807,0.18805218585488692
1658789421821520,-0.14654764629587236,0.9867704280155642,0.19842832074464045
1658789421837509,-0.14813458457312878,0.9724879835202564,0.1990386816205083
1658789421853485,-0.15045395590142663,0.9508812085145344,0.19830624856946688
1658789421869474,-0.1602197299153123,0.9590600442511636,0.1961089494163426
1658789421885462,-0.15753414206149374,1.0136263065537499,0.19476615548943332
1658789421901451,-0.1517967498283359,1.0404821850919355,0.20611886778057542
1658789421917440,-0.1450827801937895,1.0014190890363928,0.20685130083161685
1658789421933429,-0.13910124361028453,0.9606469825284201,0.1990386816205083
1658789421949418,-0.1552147707331959,0.9602807660028994,0.20819409475852613
1658789421965407,-0.16009765774013873,0.9929961089494164,0.22113374532692465
1658789421981395,-0.14691386282139307,1.0009308003356985,0.20428778515297186
1658789421997384,-0.13763637750820168,0.9798123140306707,0.18793011367971335
1658789422013373,-0.1455710688944838,0.9680933852140079,0.19476615548943332
1658789422029362,-0.14532692454413665,0.9752956435492486,0.19635309376668975
1658789422045351,-0.14032196536202024,0.9706569008926529,0.19293507286182976
1658789422061339,-0.1430075532158388,0.9668726634622722,0.19415579461356547
1658789422077328,-0.14459449149309522,0.9712672617685207,0.202822919050889
1658789422093317,-0.1459372854200045,0.978591592278935,0.2129549095902954
1658789422109306,-0.14911116197451735,0.9900663767452507,0.21368734264133682
1658789422125295,-0.14251926451514452,1.000808728160525,0.20648508430609613
1658789422141284,-0.13641565575646597,0.982009613183795,0.19586480506599546
1658789422157272,-0.1366598001068131,0.9590600442511636,0.21112382696269183
1658789422173248,-0.1438620584420538,0.9545433737697415,0.2146639200427254
1658789422189236,-0.14142061493858238,0.9762722209506371,0.2095368886854354
1658789422205225,-0.1392233157854581,0.9687037460898758,0.19293507286182976
1658789422221213,-0.13189898527504385,0.9688258182650493,0.1873197528038455
1658789422237201,-0.14435034714274808,0.9750514991989014,0.20404364080262472
1658789422253190,-0.14776836804760807,0.9900663767452507,0.22504005493247892
1658789422269178,-0.1426413366903181,0.9790798809796293,0.21527428091859324
1658789422285166,-0.13409628442816812,0.9582055390249486,0.20355535210193043
1658789422301155,-0.14239719233997095,0.9644312199588008,0.19891660944533474
1658789422317143,-0.15118638895246805,1.0034943160143435,0.20892652780956755
1658789422333131,-0.1455710688944838,0.9960479133287556,0.2103913939116504
1658789422349120,-0.1388570992599374,0.9618677042801558,0.19842832074464045
1658789422365108,-0.1509422446021209,0.9571068894483865,0.2016021972991533
1658789422381096,-0.1505760280766002,1.0000762951094835,0.21393148699168396
1658789422397085,-0.14959945067521163,0.9944609750514992,0.21441977569237824
1658789422413073,-0.1430075532158388,0.98286411841001,0.20856031128404684
1658789422429062,-0.1502098115510795,0.9672388799877929,0.2024567025253683
1658789422445050,-0.1543602655069809,0.9805447470817121,0.205386434729534
1658789422461038,-0.15033188372625306,1.0175326161593041,0.20135805294880615
1658789422477027,-0.13971160448615239,1.0014190890363928,0.20013733119707044
1658789422492981,-0.1404440375371938,0.9639429312581065,0.19183642328526762
1658789422508969,-0.1569237811856259,0.9645532921339743,0.2074616617074847
1658789422524957,-0.1602197299153123,0.9796902418554971,0.2141756313420311
1658789422540946,-0.16058594644083302,1.0076447699702449,0.20526436255436042
1658789422556934,-0.15497062638284875,1.0082551308461127,0.20782787823300541
1658789422572922,-0.14813458457312878,0.9750514991989014,0.20856031128404684
1658789422588911,-0.14105439841306167,0.9596704051270315,0.21808194094758537
1658789422604899,-0.13910124361028453,0.9702906843671322,0.19928282597085545
1658789422620887,-0.14032196536202024,0.9960479133287556,0.18927290760662263
1658789422636876,-0.1476462958724345,0.9938506141756314,0.1965972381170369
1658789422652864,-0.14447241931792165,0.9875028610666057,0.21612878614480824
1658789422668852,-0.14752422369726093,0.9638208590829329,0.21686121919584966
1658789422684841,-0.14666971847104593,0.9562523842221715,0.20477607385366614
1658789422700829,-0.1502098115510795,0.9624780651560236,0.21100175478751826
1658789422716817,-0.14923323414969092,1.0045929655909056,0.2246738384069582
1658789422732806,-0.1421530479896238,1.0176546883344777,0.21747158007171752
1658789422748794,-0.1383688105592431,0.9898222323949035,0.20233463035019472
1658789422764783,-0.13983367666132596,0.9658960860608836,0.2048981460288397
1658789422780771,-0.14227512016479738,0.9617456321049822,0.2016021972991533
1658789422796759,-0.13983367666132596,0.9772487983520257,0.2108796826123447
1658789422812744,-0.1333638513771267,0.9746852826733807,0.1998931868467233
1658789422828732,-0.13861295490959025,0.9719996948195622,0.20148012512397973
1658789422844720,-0.14740215152208735,0.9805447470817121,0.21344319829098968
1658789422860709,-0.14630350194552522,0.9937285420004578,0.22357518883039607
1658789422876697,-0.13556115053025097,0.987136644541085,0.2217441062027925
1658789422892686,-0.12640573739223315,0.9560082398718244,0.21368734264133682
1658789422908674,-0.14984359502555877,0.9638208590829329,0.2146639200427254
1658789422924662,-0.1502098115510795,1.0015411612115663,0.22418554970626392
1658789422940651,-0.14142061493858238,0.97944609750515,0.21185626001373326
1658789422956639,-0.14312962539101237,0.9582055390249486,0.20440985732814543
1658789422972627,-0.1447165636682688,0.9696803234912643,0.20770580605783184
1658789422988616,-0.1476462958724345,0.9920195315480278,0.2179598687724118
1658789423004604,-0.13580529488059812,0.9812771801327536,0.22662699320973534
1658789423020592,-0.13519493400473026,0.9444113832303351,0.21686121919584966
1658789423036581,-0.14325169756618594,0.9547875181200887,0.21100175478751826
1658789423052569,-0.15033188372625306,0.9983672846570535,0.21014724956130326
1658789423068557,-0.13653772793163954,1.0034943160143435,0.20611886778057542
1658789423084546,-0.1308003356984817,0.9613794155794615,0.20978103303578255
1658789423100534,-0.14056610971236738,0.9370870527199209,0.21783779659723823
1658789423116522,-0.15423819333180733,0.9608911268787672,0.22333104448004892
1658789423132476,-0.15130846112764162,0.9931181811245899,0.2158846417944611
1658789423148465,-0.14276340886549166,0.9956816968032349,0.20941481651026184
1658789423164453,-0.13690394445716025,0.9746852826733807,0.21356527046616325
1658789423180441,-0.14325169756618594,0.9677271686884872,0.2196688792248418
1658789423196430,-0.14496070801861594,0.9918974593728542,0.20563057907988114
1658789423212418,-0.13690394445716025,1.0047150377660792,0.2024567025253683
1658789423228407,-0.14520485236896308,0.9749294270237279,0.2146639200427254
1658789423244395,-0.1480125123979552,0.9766384374761579,0.2263828488593882
1658789423260383,-0.14618142977035165,0.9844510566872664,0.21747158007171752
1658789423276372,-0.14166475928892952,0.9838406958113985,0.20404364080262472
1658789423292360,-0.14105439841306167,0.9818875410086214,0.1965972381170369
1658789423308348,-0.14959945067521163,0.9850614175631343,0.20477607385366614
1658789423324337,-0.15191882200350948,1.0137483787289234,0.2141756313420311
1658789423340325,-0.1433737697413595,0.9929961089494164,0.21393148699168396
1658789423356313,-0.13910124361028453,0.9597924773022051,0.20465400167849257
1658789423372302,-0.1409323262378881,0.9536888685435265,0.2116121156633861
1658789423388290,-0.1480125123979552,0.97602807660029,0.20929274433508827
1658789423404278,-0.1531395437552452,1.002517738612955,0.2121004043640804
1658789423420267,-0.14959945067521163,0.9892118715190357,0.2083161669336997
1658789423436255,-0.14862287327382306,0.9866483558403907,0.22027924010070965
1658789423452240,-0.14447241931792165,0.9821316853589686,0.22613870450904106
1658789423468228,-0.14520485236896308,0.9687037460898758,0.22125581750209822
1658789423484216,-0.14752422369726093,0.9626001373311972,0.21844815747310609
1658789423500205,-0.14605935759517807,0.9639429312581065,0.21307698176546896
1658789423516193,-0.15191882200350948,0.9856717784390021,0.2205233844510568
1658789423532181,-0.14239719233997095,0.9872587167162585,0.21283283741512182
1658789423548170,-0.14288548104066523,0.9749294270237279,0.20904859998474112
1658789423564158,-0.1480125123979552,0.970046540016785,0.2162508583199818
1658789423580146,-0.14654764629587236,0.9796902418554971,0.2272373540856032
1658789423596135,-0.14081025406271452,0.9718776226443886,0.22687113756008248
1658789423612123,-0.13971160448615239,0.966628519111925,0.2129549095902954
1658789423628111,-0.1421530479896238,0.9618677042801558,0.21551842526894038
1658789423644100,-0.15240711070420376,0.9772487983520257,0.2205233844510568
1658789423660088,-0.14776836804760807,0.9980010681315328,0.22027924010070965
1658789423676077,-0.13678187228198668,0.9740749217975129,0.21271076523994825
1658789423692065,-0.13690394445716025,0.9478294041351951,0.21527428091859324
1658789423708053,-0.14898908979934378,0.9699244678416115,0.2188143739986268
1658789423724042,-0.14874494544899663,0.9982452124818799,0.2280918593118182
1658789423740030,-0.14789044022278164,0.9922636758983749,0.22027924010070965
1658789423756018,-0.1438620584420538,0.9574731059739072,0.21832608529793252
1658789423771972,-0.14666971847104593,0.9530785076676587,0.2225986114290075
1658789423787960,-0.1502098115510795,0.9878690775921264,0.2167391470206761
1658789423803948,-0.15008773937590592,1.0028839551384756,0.21051346608682397
1658789423819936,-0.14947737850003806,0.9879911497673,0.2188143739986268
1658789423835924,-0.1480125123979552,0.9698023956664379,0.21271076523994825
1658789423851912,-0.14947737850003806,0.9790798809796293,0.21905851834897394
1658789423867900,-0.1426413366903181,0.9621118486305029,0.21319905394064254
1658789423883887,-0.14813458457312878,0.9635767147325858,0.2133211261158161
1658789423899875,-0.15387197680628661,0.9889677271686885,0.21356527046616325
1658789423915863,-0.14837872892347592,1.0141145952544441,0.21747158007171752
1658789423931851,-0.14068818188754095,0.9868925001907378,0.21063553826199755
1658789423947839,-0.14239719233997095,0.9447775997558558,0.2108796826123447
1658789423963827,-0.1576562142366673,0.9530785076676587,0.2229648279545282
1658789423979815,-0.15790035858701446,0.9927519645990692,0.23175402456702532
1658789423995803,-0.14666971847104593,0.9999542229343099,0.22223239490348679
1658789424011790,-0.1417868314641031,0.9882352941176471,0.2048981460288397
1658789424027778,-0.14312962539101237,0.9684596017395286,0.20770580605783184
1658789424043766,-0.14923323414969092,0.96577401388571,0.2246738384069582
1658789424059754,-0.15960936903944445,0.9748073548485543,0.22198825055313964
1658789424075742,-0.14825665674830235,0.9754177157244222,0.21454184786755182
1658789424091735,-0.1455710688944838,0.9749294270237279,0.21136797131303897
1658789424107723,-0.14923323414969092,0.9850614175631343,0.21564049744411395
1658789424123711,-0.15130846112764162,0.9818875410086214,0.2225986114290075
1658789424139699,-0.1476462958724345,0.9757839322499429,0.22015716792553608
1658789424155687,-0.14349584191653308,0.96406500343328,0.2016021972991533
1658789424171675,-0.14520485236896308,0.9763942931258107,0.2124666208896011
1658789424187663,-0.14532692454413665,0.9853055619134814,0.2234531166552225
1658789424203651,-0.1464255741206988,0.9724879835202564,0.2171053635461968
1658789424219638,-0.14874494544899663,0.97602807660029,0.2121004043640804
1658789424235626,-0.15045395590142663,0.978591592278935,0.21747158007171752
1658789424251614,-0.15069810025177377,0.9826199740596628,0.22479591058213177
1658789424267602,-0.15045395590142663,0.990554665445945,0.2272373540856032
1658789424283590,-0.14984359502555877,0.9826199740596628,0.21747158007171752
1658789424299578,-0.1455710688944838,0.9611352712291144,0.21771572442206466
1658789424315566,-0.14923323414969092,0.9494163424124515,0.21820401312275894
1658789424331554,-0.15216296635385662,0.9722438391699093,0.21344319829098968
1658789424347541,-0.14789044022278164,0.990554665445945,0.20611886778057542
1658789424363529,-0.1464255741206988,0.9921416037232014,0.20807202258335256
1658789424379517,-0.15167467765316234,0.9784695201037614,0.22418554970626392
1658789424395505,-0.15118638895246805,0.9826199740596628,0.2296787975890746
1658789424411438,-0.14984359502555877,0.9788357366292821,0.22076752880140393
1658789424427425,-0.14618142977035165,0.9746852826733807,0.20990310521095612
1658789424443413,-0.1522850385290302,0.9647974364843215,0.20819409475852613
1658789424459401,-0.1569237811856259,0.9779812314030671,0.21808194094758537
1658789424475389,-0.1476462958724345,0.9860379949645228,0.2095368886854354
1658789424491377,-0.14251926451514452,0.9889677271686885,0.20697337300679042
1658789424507365,-0.1442282749675745,0.9630884260318915,0.20929274433508827
1658789424523353,-0.15838864728770874,0.9778591592278936,0.22101167315175108
1658789424539341,-0.14862287327382306,0.9730983443961243,0.22540627145799963
1658789424555328,-0.1442282749675745,0.9669947356374458,0.22333104448004892
1658789424571316,-0.15216296635385662,0.9596704051270315,0.21991302357518894
1658789424587304,-0.15545891508354304,0.9846952010376135,0.22284275577935464
1658789424603292,-0.15130846112764162,0.9967803463797971,0.2196688792248418
1658789424619280,-0.14666971847104593,0.9860379949645228,0.20990310521095612
1658789424635268,-0.14666971847104593,0.9812771801327536,0.21112382696269183
1658789424651256,-0.1485008010986495,0.9771267261768521,0.22015716792553608
1658789424667244,-0.14923323414969092,0.9676050965133136,0.2276035706111239
1658789424683231,-0.15326161593041876,0.9524681467917908,0.21979095140001537
1658789424699219,-0.15509269855802232,0.9650415808346686,0.21405355916685753
1658789424715207,-0.15484855420767518,0.9912870984969864,0.2171053635461968
1658789424731201,-0.15106431677729448,1.0075226977950713,0.22479591058213177
1658789424747189,-0.14837872892347592,0.9886015106431678,0.2150301365682461
1658789424763177,-0.14435034714274808,0.9735866330968186,0.2146639200427254
1658789424779164,-0.1505760280766002,0.9541771572442208,0.21893644617380037
1658789424795152,-0.15863279163805588,0.9710231174181736,0.22735942626077676
1658789424811140,-0.15362783245593947,0.9861600671396964,0.22186617837796607
1658789424827128,-0.1493553063248645,0.9899443045700771,0.21063553826199755
1658789424843116,-0.14544899671931022,0.9680933852140079,0.21149004348821254
1658789424859104,-0.15277332722972448,0.9846952010376135,0.2179598687724118
1658789424875092,-0.1505760280766002,0.9855497062638285,0.2310215915159839
1658789424891080,-0.15069810025177377,0.9727321278706036,0.22333104448004892
1658789424907067,-0.14740215152208735,0.9646753643091479,0.2158846417944611
1658789424923055,-0.15411612115663376,0.9600366216525522,0.2150301365682461
1658789424939043,-0.15301747158007162,0.9829861905851836,0.2238193331807432
1658789424955031,-0.15082017242694734,0.9849393453879607,0.21857022964827966
1658789424971019,-0.14984359502555877,0.9832303349355307,0.21600671396963467
1658789424987007,-0.14532692454413665,0.9655298695353629,0.2200350957503625
1658789425002995,-0.15497062638284875,0.9770046540016786,0.22076752880140393
1658789425018983,-0.14740215152208735,0.97773708705272,0.2205233844510568
1658789425034970,-0.14483863584344236,0.9590600442511636,0.1995269703212026
1658789425050933,-0.15423819333180733,0.9615014877546351,0.20428778515297186
1658789425066921,-0.16046387426565945,0.9813992523079271,0.22211032272831321
1658789425082909,-0.15973144121461802,0.9821316853589686,0.23382925154497602
1658789425098897,-0.1426413366903181,0.9596704051270315,0.23334096284428174
1658789425114885,-0.14654764629587236,0.9687037460898758,0.23248645761806674
1658789425130873,-0.15631342030975803,0.9944609750514992,0.238101777676051
1658789425146861,-0.1555809872587166,1.0064240482185092,0.2394445716029603
1658789425162849,-0.15240711070420376,0.9960479133287556,0.23334096284428174
1658789425178836,-0.15509269855802232,0.9660181582360572,0.2251621271076525
1658789425194824,-0.15741206988632017,0.9636987869077593,0.22650492103456177
1658789425210812,-0.14959945067521163,0.9690699626153965,0.2225986114290075
1658789425226800,-0.14349584191653308,0.9677271686884872,0.21173418783855968
1658789425242788,-0.14740215152208735,0.97431906614786,0.21222247653925397
1658789425258776,-0.1564354924849316,0.9831082627603571,0.22272068360418107
1658789425274764,-0.16156252384222158,0.9804226749065386,0.23114366369115746
1658789425290752,-0.14825665674830235,0.97261005569543,0.24090943770504314
1658789425306739,-0.1464255741206988,0.9566186007476922,0.2267490653849089
1658789425322727,-0.15411612115663376,0.9831082627603571,0.2175936522468911
1658789425338715,-0.15533684290836947,0.9915312428473335,0.23089951934081032
1658789425354703,-0.1517967498283359,0.9740749217975129,0.23028915846494247
1658789425370697,-0.1493553063248645,0.9616235599298086,0.22601663233386748
1658789425386685,-0.15570305943389018,0.9678492408636608,0.2246738384069582
1658789425402672,-0.15790035858701446,0.987136644541085,0.21991302357518894
1658789425418660,-0.14984359502555877,0.9784695201037614,0.22626077668421463
1658789425434648,-0.14813458457312878,0.9477073319600215,0.23212024109254603
1658789425450636,-0.1569237811856259,0.9489280537117573,0.22687113756008248
1658789425466624,-0.15887693598840302,0.9921416037232014,0.21808194094758537
1658789425482612,-0.15289539940489805,0.9997100785839628,0.22211032272831321
1658789425498600,-0.1471580071717402,0.9790798809796293,0.2280918593118182
1658789425514588,-0.14874494544899663,0.9605249103532465,0.22577248798352034
1658789425530575,-0.15387197680628661,0.9651636530098422,0.22699320973525605
1658789425546563,-0.15497062638284875,0.9699244678416115,0.2246738384069582
1658789425562551,-0.14862287327382306,0.9834744792858778,0.22211032272831321
1658789425578539,-0.14825665674830235,0.9745632104982072,0.2238193331807432
1658789425594527,-0.15460440985732804,0.9740749217975129,0.22369726100556964
1658789425610515,-0.14984359502555877,0.9809109636072328,0.2208896009765775
1658789425626503,-0.1514305333028152,0.9730983443961243,0.2225986114290075
1658789425642490,-0.1526512550545509,0.9792019531548029,0.23150988021667818
1658789425658478,-0.1598535133897916,0.980300602731365,0.23932249942778672
1658789425674466,-0.16375982299534586,0.9886015106431678,0.23993286030365457
1658789425690429,-0.1569237811856259,0.9782253757534143,0.2234531166552225
1658789425706417,-0.1505760280766002,0.9710231174181736,0.21637293049515538
1658789425722405,-0.15167467765316234,0.9706569008926529,0.22015716792553608
1658789425738393,-0.15887693598840302,0.9937285420004578,0.22455176623178463
1658789425754381,-0.1564354924849316,0.9907988097962921,0.21747158007171752
1658789425770369,-0.14862287327382306,0.96406500343328,0.21869230182345323
1658789425786357,-0.1531395437552452,0.9452658884565501,0.22540627145799963
1658789425802344,-0.15875486381322945,0.9711451895933472,0.23456168459601745
1658789425818332,-0.1572899977111466,0.9839627679865721,0.23150988021667818
1658789425834320,-0.15374990463111304,0.9860379949645228,0.22418554970626392
1658789425850308,-0.15082017242694734,0.9715114061188679,0.22357518883039607
1658789425866296,-0.1581445029373616,0.9855497062638285,0.22504005493247892
1658789425882284,-0.15252918287937733,0.9848172732127871,0.22565041580834677
1658789425898272,-0.15594720378423732,0.9632104982070651,0.2243076218814375
1658789425914260,-0.1488670176241702,0.9593041886015108,0.2267490653849089
1658789425930247,-0.14813458457312878,0.9595483329518579,0.2263828488593882
1658789425946235,-0.14947737850003806,0.9722438391699093,0.2225986114290075
1658789425962223,-0.15802243076218803,0.976882581826505,0.21832608529793252
1658789425978211,-0.15741206988632017,0.9873807888914321,0.2258945601586939
1658789425994199,-0.15008773937590592,0.9739528496223393,0.22955672541390104
1658789426010192,-0.14984359502555877,0.9594262607766844,0.2330968184939346
1658789426026180,-0.15399404898146019,0.9561303120469979,0.22357518883039607
1658789426042168,-0.15509269855802232,0.9901884489204242,0.22247653925383393
1658789426058156,-0.14605935759517807,0.9943389028763256,0.21808194094758537
1658789426074144,-0.15118638895246805,0.9644312199588008,0.2124666208896011
1658789426090132,-0.15973144121461802,0.9671168078126193,0.2238193331807432
1658789426106120,-0.16205081254291587,0.9689478904402229,0.23736934462500958
1658789426122108,-0.15387197680628661,0.9693141069657436,0.22504005493247892
1658789426138095,-0.1543602655069809,0.973464560921645,0.2272373540856032
1658789426154083,-0.15619134813458446,0.9851834897383078,0.2310215915159839
1658789426170071,-0.1526512550545509,0.9944609750514992,0.21747158007171752
1658789426186059,-0.14605935759517807,0.9798123140306707,0.2162508583199818
1658789426202047,-0.15777828641184088,0.96748302433814,0.22601663233386748
1658789426218035,-0.1644922560463873,0.9928740367742428,0.22528419928282606
1658789426234023,-0.1552147707331959,0.9915312428473335,0.21734950789654395
1658789426250011,-0.15619134813458446,0.9859159227893493,0.22125581750209822
1658789426265998,-0.16473640039673443,0.97261005569543,0.22980086976424818
1658789426281986,-0.1698634317540244,1.0031280994888228,0.24493781948577098
1658789426297974,-0.16131837949187444,1.0136263065537499,0.23651483939879459
1658789426313962,-0.14312962539101237,1.0043488212405585,0.22076752880140393
1658789426329956,-0.1471580071717402,0.9972686350804914,0.21905851834897394
1658789426345944,-0.15130846112764162,0.9916533150225071,0.22308690012970178
1658789426361931,-0.15619134813458446,1.0037384603646906,0.21783779659723823
1658789426377919,-0.1543602655069809,1.0124055848020141,0.2229648279545282
1658789426393907,-0.14996566720073234,1.0106965743495842,0.23382925154497602
1658789426409895,-0.1450827801937895,1.0005645838101778,0.2461585412375067
1658789426425883,-0.14740215152208735,1.0105745021744106,0.23871213855191886
1658789426441871,-0.13495078965438312,1.0100862134737163,0.23004501411459533
1658789426457859,-0.13031204699778742,0.9920195315480278,0.22821393148699176
1658789426473847,-0.13531700617990383,0.99140917067216,0.2284580758373389
1658789426489834,-0.1380025940337224,1.009597924773022,0.22406347753109035
1658789426505822,-0.12970168612191957,1.0319371328297855,0.2263828488593882
1658789426521810,-0.11419851987487606,1.0022735942626078,0.21722743572137038
1658789426537798,-0.10614175631342038,0.9724879835202564,0.2196688792248418
1658789426553786,-0.12225528343633174,0.9921416037232014,0.23334096284428174
1658789426569774,-0.10418860151064324,1.0048371099412527,0.2385900663767453
1658789426585762,-0.0955214770733197,0.9948271915770199,0.24042114900434886
1658789426601750,-0.09527733272297256,0.9810330357824064,0.24042114900434886
1658789426617737,-0.0879530022125583,0.987136644541085,0.24298466468299385
1658789426633725,-0.08929579613946759,1.0004425116350042,0.23712520027466244
1658789426649688,-0.08233768215457404,1.0127718013275349,0.2511635004196231
1658789426665676,-0.06256198977645555,0.9800564583810178,0.2456702525368124
1658789426681664,-0.05633630884260299,0.970046540016785,0.24542610818646526
1658789426697652,-0.0678110933089191,0.9992217898832685,0.24982070649271382
1658789426713640,-0.06964217593652267,1.0304722667277026,0.2653238727397573
1658789426729628,-0.05413900968947871,1.0187533379110398,0.25812161440451664
1658789426745616,-0.018005645838101714,0.9832303349355307,0.24664682993820097
1658789426761603,-0.019592584115358136,0.9690699626153965,0.24469367513542384
1658789426777591,-0.028503852903028815,1.022659647516594,0.23150988021667818
1658789426793579,-0.010559243152513886,1.0077668421454185,0.22650492103456177
1658789426809567,4.272526131074983E-4,0.9656519417105365,0.22784771496147105
1658789426825555,0.002746623941405346,0.9521019302662701,0.23077744716563675
1658789426841543,-0.007507438773174613,1.0064240482185092,0.25311665522240023
1658789426857531,3.0518043793392735E-4,1.0279087510490577,0.2599526970321202
1658789426873519,0.020447089341573133,1.0071564812695506,0.26691081101701375
1658789426889506,0.040100709544518054,0.9718776226443886,0.25677882047760736
1658789426905494,0.04852368963149445,0.9829861905851836,0.2518959334706645
1658789426921482,0.04364080262455161,0.9990997177080949,0.25848783093003735
1658789426937470,0.05035477225909801,1.0074006256198977,0.2608072022583352
1658789426953458,0.058411535820553695,0.9860379949645228,0.2620279240100709
1658789426969452,0.06024261844815726,0.9887235828183414,0.26556801709010447
1658789426985439,0.06903181506065437,0.9887235828183414,0.2599526970321202
1658789427001427,0.08331425955596217,1.0049591821164263,0.26642252231631947
1658789427017415,0.0794079499504079,1.0105745021744106,0.29877164873731576
1658789427033403,0.10260166323338638,0.9877470054169528,0.30060273136491933
1658789427049391,0.1264057373922336,0.9827420462348364,0.2775310902571144
1658789427065379,0.13763637750820212,0.9890897993438621,0.26068513008316163
1658789427081367,0.1604638742656599,0.9579613946746015,0.22772564278629748
1658789427097355,0.16681162737468558,0.9525902189669644,0.2167391470206761
1658789427113342,0.13910124361028497,1.0122835126268406,0.23358510719462888
1658789427129330,0.15387197680628706,1.0296177615014876,0.2439612420843824
1658789427145318,0.1818265049210348,0.99140917067216,0.240665293354696
1658789427161306,0.19891660944533474,0.9525902189669644,0.25384908827344166
1658789427177294,0.207095445181964,0.9716334782940415,0.2511635004196231
1658789427193282,0.2003814755474176,1.0086213473716334,0.2735027084763866
1658789427209270,0.20721751735713756,1.024979018844892,0.29510948348210864
1658789427225257,0.22626077668421463,0.9936064698252842,0.2938887617303729
1658789427241245,0.241519798580911,0.9737087052719922,0.2993820096131836
1658789427257233,0.2595864805065995,0.96406500343328,0.28839551384756223
1658789427273221,0.27313649195086587,0.9696803234912643,0.2658121614404516
1658789427289184,0.2938887617303729,0.970901045243,0.2494544899671931
1658789427305172,0.3209887846189057,0.8920424200808732,0.2554360265506981
1658789427321159,0.32733653772793136,0.8561532005798425,0.2641031509880216
1658789427337146,0.2948653391317615,0.8732433051041424,0.25140764476997024
1658789427353134,0.30341039139391146,0.915724422064546,0.25677882047760736
1658789427369121,0.3705500877393755,0.8961928740367746,0.25519188220035094
1658789427385109,0.4254825665674833,0.829541466392004,0.2835126268406194
1658789427401096,0.3775082017242699,0.8705577172503238,0.3048752574959943
1658789427417083,0.34039826047150346,0.9483176928358894,0.3233081559472035
1658789427433071,0.4146181429770355,0.9036392767223624,0.3165941863126571
1658789427449058,0.4712596322575724,0.8207522697795069,0.30682841229877145
1658789427465046,0.44623483634699035,0.8272220950637061,0.3230640115968564
1658789427481033,0.4313420309758147,0.8755626764324411,0.32562752727550137
1658789427497020,0.4784618905928131,0.8776379034103918,0.29047074082551294
1658789427513008,0.5398641947051193,0.7938963912413213,0.2876630807965208
1658789427528995,0.5141069657434958,0.7671625848783092,0.30011444266422505
1658789427544983,0.48578622110322733,0.7799801632715342,0.2886396581979094
1658789427560970,0.522285801480125,0.7493400473029679,0.2456702525368124
1658789427576957,0.5442587930113678,0.7020981155107959,0.24896620126649882
1658789427592945,0.5283894102388036,0.7707026779583428,0.29498741130693507
1658789427608947,0.5381551842526893,0.8394293125810632,0.32355230029755067
1658789427624935,0.5980926222629126,0.826123445487144,0.3029221026932172
1658789427640922,0.6414282444495312,0.7278553444724194,0.29413290608072007
1658789427656910,0.6161593041886011,0.6819562066071567,0.3402761882963299
1658789427672897,0.5861295490959026,0.6885481040665296,0.36639963378347407
1658789427688884,0.6238498512245361,0.7650873579003585,0.29425497825589364
1658789427704872,0.6770733196002139,0.7605706874189364,0.2654459449149309
1658789427720859,0.6602273594262611,0.6706034943160146,0.2697184710460059
1658789427736847,0.6316624704356455,0.6443579766536969,0.3108567940794993
1658789427752834,0.6050507362478061,0.6619363698786911,0.3242847333485921
1658789427768821,0.680735484855421,0.6353246356908526,0.26654459449149304
1658789427784809,0.7329823758297094,0.5603723201342792,0.2587319752803845
1658789427800796,0.7064927138170445,0.5326619363698786,0.29925993743801005
1658789427816784,0.6499732967116811,0.6301976043335626,0.35516899366750554
1658789427832771,0.6472877088578626,0.7699702449073014,0.3544365606164641
1658789427848758,0.7459220263981079,0.727122911421378,0.3184252689402607
1658789427864746,0.8194094758525976,0.5467002365148392,0.3230640115968564
1658789427880733,0.7709468223086899,0.4652780956740674,0.3642023346303498
1658789427896721,0.691844052796216,0.5320515754940107,0.36017395284962195
1658789427912708,0.724559395742733,0.6277561608300912,0.2897383077744715
1658789427928680,0.7537346456092164,0.6280003051804384,0.28632028686961153
1658789427944667,0.8107423514152741,0.48957045853360803,0.2842450598916608
1658789427960655,0.8083009079118026,0.46015106431677744,0.28912794689860366
1658789427976642,0.7414053559166858,0.4898146028839552,0.31439688715953285
1658789427992630,0.7704585336079957,0.48444342717631805,0.3067063401235979
1658789428008617,0.8228274967574576,0.4313420309758147,0.3082932784008543
1658789428024604,0.8103761348897534,0.4511177233539332,0.30170138094148147
1658789428040592,0.7903562981612877,0.5241168841077286,0.3187914854657814
1658789428056579,0.8427252613107497,0.5034866865033951,0.31464103150988
1658789428072567,0.869092851148241,0.4140077821011676,0.3107347219043257
1658789428088554,0.8046387426565955,0.41681544213015975,0.36823071641107763
1658789428104541,0.7782711528191042,0.4694285496299688,0.3783627069504849
1658789428120529,0.8434576943617911,0.46466773479819956,0.33539330128938705
1658789428136516,0.9115739681086446,0.38397802700846917,0.29584191653315006
1658789428152504,0.8844739452201118,0.31122301060502,0.3125658045319293
1658789428168491,0.8090333409628441,0.33795681696803204,0.35345998321507555
1658789428184478,0.8163576714732583,0.38739604791332916,0.33832303349355275
1658789428200466,0.8609140154116117,0.4082703898680098,0.29962615396353076
1658789428216453,0.9048599984740981,0.36176089112687837,0.28082703898680084
1658789428232441,0.8723887998779274,0.3469901579308763,0.317204547188525
1658789428248443,0.8582284275577932,0.32660410467688994,0.348210879682612
1658789428264431,0.9066910811017017,0.3045090409704736,0.35016403448538913
1658789428280418,0.9461203936827651,0.2565346761272602,0.30438696879530003
1658789428296405,0.9141374837872895,0.29669642175936506,0.3028000305180436
1658789428312393,0.8484626535439075,0.3762874799725342,0.3323414969100478
1658789428328380,0.8939955748836503,0.3372243839169906,0.32916762035553493
1658789428344368,0.9300068665598538,0.22601663233386748,0.3183031967650871
1658789428360355,0.909742885481041,0.1419089036392771,0.32782482642862565
1658789428376342,0.8826428625925082,0.17816433966582768,0.3313649195086592
1658789428392330,0.9120622568093388,0.25470359349965666,0.30182345311665504
1658789428408317,0.939040207522698,0.28583199816891725,0.27106126497291516
1658789428424305,0.9096208133058674,0.2553139543755245,0.30218966964217575
1658789428440292,0.8660410467689017,0.18414587624933265,0.3540703440909434
1658789428456279,0.8773937590600447,0.1386129549095907,0.3599298084992748
1658789428472267,0.9586938277256429,0.1415426871137564,0.35053025101090984
1658789428488254,0.9684596017395286,0.2108796826123447,0.3301441977569235
1658789428504242,0.9289082169832916,0.2503089951934081,0.3259937438010221
1658789428520229,0.9104753185320824,0.20172426947432687,0.31610589761196284
1658789428536216,0.9201190203707945,0.14264133669031853,0.32611581597619566
1658789428552204,0.9359884031433587,0.10931563286793278,0.33075455863279135
1658789428568176,0.9641870756084536,0.1377584496833757,0.33026626993209707
1658789428584163,0.9402609292744337,0.18805218585488692,0.30780498970016
1658789428600151,0.9204852368963152,0.14386205844205424,0.2977950713359272
1658789428616138,0.9149919890135045,0.08209353780422646,0.3300221255817499
1658789428632125,0.8998550392919817,0.05767910276951227,0.3734798199435412
1658789428648113,0.8990005340657667,0.07806515602349862,0.35016403448538913
1658789428664100,0.9502708476386665,0.06207370107576082,0.30890363927672215
1658789428680088,0.9899443045700771,0.03997863736934448,0.2981612878614479
1658789428696075,0.9719996948195622,0.11883726253147131,0.31183337148088786
1658789428712062,0.9274433508812088,0.17572289616235626,0.30926985580224287
1658789428728050,0.902906843671321,0.12457465476462914,0.3104905775539786
1658789428744037,0.9180437933928438,0.03204394598306237,0.3574883649958034
1658789428760025,0.9300068665598538,0.04107728694590662,0.38495460440985774
1658789428776012,0.9575951781490808,0.06207370107576082,0.36847486076142477
1658789428791999,0.9618677042801558,0.08624399176012787,0.3540703440909434
1658789428807987,0.9459983215075916,0.06488136110475295,0.34882124055847985
1658789428823974,0.953566796368353,0.03985656519417091,0.3545586327916377
1658789428839962,0.9401388570992602,0.06756694895857152,0.36847486076142477
1658789428855949,0.9213397421225302,0.08514534218356573,0.35773250934615053
1658789428871936,0.9436789501792937,0.06366063935301725,0.32062256809338496
1658789428887939,0.9428244449530787,-6.713969634546402E-4,0.31732661936369855
1658789428903926,0.9261005569542995,-0.028870069428549527,0.34503700312809915
1658789428919914,0.914015411612116,-0.012512397955291021,0.34332799267566916
1658789428935901,0.9256122682536052,-0.007751583123521755,0.33917753871976775
1658789428951889,0.940749217975128,0.010559243152513886,0.33588158999008133
1658789428967876,0.9524681467917908,0.014099336232547444,0.3270923933775842
1658789428983863,0.9479514763103687,0.007629510948348184,0.33698023956664347
1658789428999851,0.9468528267338066,-0.014099336232547444,0.3523613336385134
1658789429015838,0.9223163195239188,-0.019470511940184565,0.3661554894331269
1658789429031826,0.9444113832303351,-0.04766918440527945,0.3717708094911112
1658789429047813,0.975173571374075,-0.054627298390172996,0.35053025101090984
1658789429063800,0.9624780651560236,-0.04449530785076661,0.346501869230182
1658789429079788,0.9253681239032581,-0.023376821545738835,0.3443045700770577
1658789429095775,0.8949721522850389,-0.009582665751125319,0.3600518806744484
1658789429111763,0.9240253299763488,-0.04229800869764233,0.3657892729076062
1658789429127750,0.9571068894483865,-0.08368047608148332,0.353337911039902
1658789429143737,0.9451438162813766,-0.07904173342488763,0.35345998321507555
1658789429159725,0.9126726176852067,-0.023620965896085977,0.3594415197985805
1658789429175712,0.9389181353475244,-0.03558403906309593,0.36176089112687837
1658789429191700,0.9615014877546351,-0.0972304875257497,0.36017395284962195
1658789429207672,0.9473411154345008,-0.12176699473563746,0.35419241626611697
1658789429223659,0.9362325474937059,-0.07269398031586194,0.34345006485084273
1658789429239647,0.939040207522698,-0.03179980163271523,0.3478446631570913
1658789429255634,0.9262226291294731,-0.03143358510719452,0.3306324864576178
1658789429271621,0.9503929198138401,-0.06878767071030767,0.3338063630121306
1658789429287609,0.9408712901503016,-0.09198138399328615,0.3683527885862512
1658789429303596,0.9229266803997866,-0.06854352635996053,0.3787289234760056
1658789429319584,0.9147478446631574,-0.017761501487754572,0.37201495384145833
1658789429335571,0.942458228427558,-0.058289463645380124,0.3418631265735863
1658789429351558,0.9596704051270315,-0.10650797283894109,0.34833295185778557
1658789429367546,0.9427023727779051,-0.10235751888303968,0.36432440680552336
1658789429383533,0.9149919890135045,-0.03839169909208806,0.34161898222323916
1658789429399520,0.9146257724879838,-0.015808346684977437,0.33453879606317205
1658789429415508,0.9303730830853745,-0.03924620431830306,0.3342946517128249
1658789429431495,0.9485618371862365,-0.058289463645380124,0.33588158999008133
1658789429447483,0.9464866102082858,-0.051941710536354435,0.3452811474784463
1658789429463470,0.9403830014496073,-0.03216601815823594,0.3707942320897226
1658789429479457,0.9378194857709623,-0.0060425726710917615,0.36737621118486263
1658789429495445,0.9395284962233923,-0.0021362630655374915,0.36896314946211906
1658789429511432,0.9513694972152287,-0.021789883268482413,0.36823071641107763
1658789429527435,0.9479514763103687,-0.03595025558861664,0.37567711909666635
1658789429543422,0.9405050736247809,-0.023376821545738835,0.35590142671854696
1658789429559410,0.9315938048371102,0.0023804074158846333,0.3347829404135192
1658789429575397,0.9149919890135045,0.03826962691691449,0.3224536507209885
1658789429591385,0.9273212787060352,0.027283131151293105,0.34418249790188415
1658789429607372,0.9644312199588008,-0.033875028610665936,0.34039826047150346
1658789429623359,0.951857785915923,-0.026306553749904538,0.33502708476386633
1658789429639347,0.9145037003128103,0.046814679179064456,0.3247730220492864
1658789429655334,0.8957045853360803,0.12542915999084503,0.30060273136491933
1658789429671321,0.9091325246051731,0.1646143282215613,0.3317311360341799
1658789429687309,0.9380636301213094,0.15057602807660064,0.3594415197985805
1658789429703296,0.9641870756084536,0.11859311818112417,0.385442893110552
1658789429719284,0.9370870527199209,0.11773861295490917,0.39118028534370985
1658789429735271,0.9645532921339743,0.053162432288090145,0.38190280003051846
1658789429751258,0.9767605096513314,0.008117799649042468,0.3705500877393755
1658789429767246,0.9396505683985659,0.026184481574730967,0.3554131380178527
1658789429783233,0.9300068665598538,0.08465705348287145,0.33490501258869276
1658789429799221,0.9164568551155874,0.12774853131914288,0.3136644541084914
1658789429815208,0.9295185778591595,0.11224536507209848,0.2969405661097122
1658789429831195,0.9412375066758223,0.09332417792019498,0.3162279697871364
1658789429847198,0.9385519188220037,0.09149309529259142,0.3313649195086592
1658789429863186,0.9430685893034259,0.08551155870908644,0.34088654917219774
1658789429879173,0.9176775768673231,0.10736247806515564,0.3535820553902491
1658789429895160,0.9278095674067295,0.12018005645838059,0.3573662928206298
1658789429911148,0.9561303120469979,0.09149309529259142,0.33319600213626277
1658789429927135,0.9630884260318915,0.06012054627298369,0.3272144655527578
1658789429943122,0.9333028152895402,0.09832913710231139,0.3397878995956356
1658789429959110,0.9102311741817353,0.16571297779812344,0.3468680857557027
1658789429975097,0.9250019073777374,0.17730983443961268,0.3330739299610892
1658789429991085,0.97261005569543,0.11078049897001563,0.31305409323262356
1658789430007072,0.9646753643091479,0.055848020141908705,0.3053635461966886
1658789430023059,0.9158464942397195,0.10357824063477494,0.33490501258869276
1658789430039047,0.8626230258640417,0.21478599221789896,0.3440604257267106
1658789430055034,0.9074235141527431,0.21564049744411395,0.3104905775539786
1658789430071022,0.9595483329518579,0.12176699473563701,0.29840543221179505
1658789430087009,0.9514915693904022,0.07891966124971361,0.3036545357442586
1658789430102996,0.9275654230563823,0.1448386358434428,0.32819104295414636
1658789430118984,0.902906843671321,0.22650492103456177,0.32904554818036136
1658789430134971,0.9250019073777374,0.22198825055313964,0.3174486915388721
1658789430150959,0.9395284962233923,0.17547875181200911,0.3222095063706414
1658789430166931,0.9418478675516901,0.14386205844205424,0.31696040283817783
1658789430182918,0.912306401159686,0.204531929503319,0.3246509498741128
1658789430198906,0.8660410467689017,0.28876173037308295,0.340520332646677
1658789430214893,0.9015640497444117,0.2705729762722209,0.3255054551003278
1658789430230880,0.9582055390249486,0.18365758754863837,0.30731670099946573
1658789430246868,0.9452658884565501,0.13592736705577213,0.30438696879530003
1658789430262855,0.871656366826886,0.2356603341725796,0.3259937438010221
1658789430278843,0.8456549935149154,0.3297779812314028,0.3443045700770577
1658789430294830,0.9038834210727096,0.31024643320363143,0.3117112993057143
1658789430310817,0.9293965056839859,0.22235446707866036,0.29303425650415793
1658789430326805,0.9188982986190588,0.1873197528038455,0.2969405661097122
1658789430342792,0.8411383230334932,0.310368505378805,0.32538338292515423
1658789430358780,0.8008545052262148,0.42279697871366473,0.3714045929655905
1658789430374767,0.8721446555275802,0.3847104600595106,0.36176089112687837
1658789430390754,0.9289082169832916,0.2592202639810788,0.3247730220492864
1658789430406742,0.9064469367513546,0.21173418783855968,0.3096360723277636
1658789430422729,0.8294193942168304,0.33112077515831206,0.3277027542534521
1658789430438717,0.8104982070649269,0.47064927138170454,0.3220874341954678
1658789430454704,0.8358892195010297,0.44293888761730393,0.3259937438010221
1658789430470691,0.8638437476157774,0.33832303349355275,0.2918135347524222
1658789430486694,0.8468757152666511,0.30389868009460574,0.2938887617303729
1658789430502681,0.7730220492866406,0.43317311360341826,0.33624780651560204
1658789430518669,0.7708247501335164,0.5082475013351644,0.35797665369649767
1658789430534656,0.8468757152666511,0.4262149996185247,0.3108567940794993
1658789430550644,0.8556649118791482,0.38031586175326204,0.2924238956282901
1658789430566631,0.7746089875638971,0.47138170443274596,0.348210879682612
1658789430582618,0.7291981383993287,0.5869840543221176,0.4120546272983905
1658789430598606,0.789990081635767,0.5769741359578848,0.3867856870374613
1658789430614593,0.8437018387121382,0.4778515297169452,0.3081712062256807
1658789430630581,0.8006103608758677,0.47821774624246594,0.31061264972915215
1658789430646568,0.6668192568856339,0.6139620050354768,0.396551461051347
1658789430662555,0.6908674753948274,0.6294651712825212,0.36444647898069693
1658789430678543,0.8103761348897534,0.5676966506446934,0.2730144197756923
1658789430694530,0.8273441672388797,0.4879835202563516,0.23492790112153816
1658789430710518,0.6911116197451745,0.5891813534752419,0.2990157930876629
1658789430726505,0.5713588158999006,0.7400625619897765,0.3860532539864199
1658789430742492,0.6267795834287027,0.7785152971694513,0.3831235217822542
1658789430758480,0.7832761120012206,0.6507057297627226,0.33246356908522134
1658789430774467,0.7659418631265735,0.5819790951400012,0.32025635156786425
1658789430790454,0.6472877088578626,0.6349584191653319,0.3380788891432056
1658789430806427,0.6212863355458911,0.7443350881208515,0.33124284733348563
1658789430822414,0.685008010986496,0.7592278934920271,0.29047074082551294
1658789430838401,0.7008773937590602,0.690135042343786,0.2507972838941024
1658789430854389,0.6349584191653319,0.707469291218433,0.27496757457846943
1658789430870376,0.5617151140611885,0.7987792782482641,0.3368581673914699
1658789430886364,0.5861295490959026,0.7852292668039977,0.3410086213473713
1658789430902351,0.6619363698786911,0.6905012588693067,0.3019455252918286
1658789430918338,0.6662088960097661,0.6416723887998783,0.2766765850308994
1658789430934326,0.5654993514915692,0.7676508735790035,0.31110093842984643
1658789430950313,0.5001907377737087,0.8729991607537952,0.34552529182879343
1658789430966301,0.5380331120775157,0.8688487067978938,0.347356374456397
1658789430982288,0.6239719233997096,0.7580071717402914,0.30511940184634145
1658789430998275,0.6297093156328684,0.7101548790722516,0.26739909971770803
1658789431014263,0.5182574196993972,0.7954833295185777,0.2999923704890515
1658789431030250,0.43439383535515397,0.8860608834973682,0.3628595407034405
1658789431046238,0.5026321812771801,0.8482185091935603,0.3317311360341799
1658789431062225,0.6055390249485004,0.7813229571984435,0.26605630579079875
1658789431078212,0.5691615167467763,0.7884031433585106,0.24701304646372169
1658789431094200,0.48578622110322733,0.8578622110322724,0.29669642175936506
1658789431110187,0.47138170443274596,0.869092851148241,0.30926985580224287
1658789431126190,0.5163042648966201,0.8249027237354083,0.2910811017013808
1658789431142177,0.5320515754940107,0.7846189059281299,0.26691081101701375
1658789431158165,0.4805371175707638,0.8157473105973905,0.272526131074998
1658789431174152,0.431830319676509,0.879591058213169,0.30341039139391146
1658789431190139,0.4514839398794539,0.8910658426794846,0.2918135347524222
1658789431206127,0.5082475013351644,0.8395513847562368,0.2704509040970473
1658789431222114,0.503242542153048,0.8325932707713433,0.2548256656748302
1658789431238102,0.427557793545434,0.9019302662699324,0.29217975127794293
1658789431254089,0.35846494239719195,0.9584496833752958,0.35138475623712484
1658789431270076,0.4120546272983905,0.9162127107652402,0.30719462882429216
1658789431286064,0.5181353475242236,0.8449225604638739,0.2528725108720531
1658789431302051,0.4612497138933396,0.8400396734569311,0.2659342336156252
1658789431318039,0.3616388189517048,0.875318532082094,0.29340047302967864
1658789431334026,0.35394827191576983,0.8880140383001454,0.2855878538185701
1658789431350013,0.39911497672999197,0.8836194399938968,0.25421530479896237
1658789431366001,0.4330510414282447,0.8649423971923396,0.23871213855191886
1658789431381988,0.3969176775768677,0.8712901503013653,0.26105134660868234
1658789431397976,0.32831311512931993,0.9435568780041201,0.29376668955519936
1658789431413963,0.35138475623712484,0.9374532692454416,0.2894941634241244
1658789431429950,0.39081406881818914,0.9005874723430232,0.28082703898680084
1658789431445922,0.38861676966506487,0.8672617685206374,0.26849774929427017
1658789431461910,0.3401541161211563,0.9143816281376367,0.2789959563591973
1658789431477897,0.3145189593347064,0.9240253299763488,0.2813153276874951
1658789431493885,0.3356374456397342,0.8955825131609068,0.2554360265506981
1658789431509872,0.3480888075074384,0.9062027924010074,0.26556801709010447
1658789431525859,0.3225757228961621,0.9132829785610745,0.28363469901579297
1658789431541847,0.29083695735103365,0.9412375066758223,0.28033875028610655
1658789431557834,0.3124437323567557,0.930495155260548,0.2537270160982681
1658789431573822,0.33453879606317205,0.9016861219195853,0.2246738384069582
1658789431589809,0.30939192797741644,0.8946059357595182,0.24798962386511025
1658789431605796,0.24457160296025027,0.9408712901503016,0.27985046158541227
1658789431621784,0.2385900663767453,0.9363546196688795,0.28082703898680084
1658789431637771,0.29303425650415793,0.9245136186770431,0.2554360265506981
1658789431653759,0.30218966964217575,0.9068131532768753,0.2448157473105974
1658789431669746,0.23382925154497602,0.9578393224994279,0.2809491111619744
1658789431685733,0.21478599221789896,0.9651636530098422,0.28155947203784226
1658789431701721,0.2553139543755245,0.9533226520180058,0.2418860151064317
1658789431717708,0.27447928587777515,0.9495384145876251,0.22064545662623036
1658789431733696,0.22418554970626392,0.9494163424124515,0.25799954222934307
1658789431749683,0.18756389715419264,0.9583276112001222,0.28155947203784226
1658789431765686,0.21722743572137038,0.9481956206607158,0.242374303807126
1658789431781673,0.24982070649271382,0.9307392996108952,0.2258945601586939
1658789431797660,0.19964904249637616,0.933913176165408,0.23907835507743957
1658789431813648,0.13336385137712714,1.008743419546807,0.25763332570382236
1658789431829635,0.13458457312886285,1.0187533379110398,0.2671549553673609
1658789431845623,0.19940489814602902,0.9804226749065386,0.23150988021667818
1658789431861610,0.22626077668421463,0.9270771343556881,0.21905851834897394
1658789431877597,0.15728999771114704,0.9361104753185323,0.24249637598229956
1658789431893585,0.09100480659189714,0.9843289845120928,0.2503089951934081
1658789431909572,0.10980392156862706,1.0142366674296177,0.21222247653925397
1658789431925560,0.1558251316090642,0.9881132219424735,0.20440985732814543
1658789431941547,0.1372701609826814,0.970901045243,0.2289463645380332
1658789431957534,0.07733272297245719,1.0047150377660792,0.2595864805065995
1658789431973522,0.07379262989242363,1.002517738612955,0.24225223163195242
1658789431989509,0.1167620355535206,1.0093537804226749,0.19647516594186332
1658789432005497,0.13836881055924355,0.9956816968032349,0.1969634546425576
1658789432021484,0.09015030136568214,0.970901045243,0.21832608529793252
1658789432037471,0.06280613412680225,1.0063019760433356,0.21686121919584966
1658789432053459,0.0701304646372165,1.001907377737087,0.2083161669336997
1658789432069446,0.08856336308842572,0.9899443045700771,0.20733958953231113
1658789432085418,0.07843137254901933,0.9556420233463037,0.20184634164950044
1658789432101406,0.021911955443655984,1.0011749446860456,0.22223239490348679
1658789432117393,-0.011169604028381741,1.0402380407415883,0.24591439688715955
1658789432133381,0.031311512932020946,1.0188754100862134,0.22699320973525605
1658789432149368,0.08538948653391287,0.9822537575341421,0.18756389715419264
1658789432165355,0.04876783398184159,0.9834744792858778,0.20209048599984758
1658789432181343,-0.017029068436713146,1.044022278171969,0.22528419928282606
1658789432197330,0.004699778744182481,1.0498817425803004,0.20318913557640972
1658789432213317,0.04193179217212162,1.002761882963302,0.18194857709620837
1658789432229305,0.04046692607003877,0.9551537346456094,0.19354543373769761
1658789432245292,0.016540779736018862,0.9359884031433587,0.1957427328908219
1658789432261280,-0.03033493553063238,0.99140917067216,0.19708552681773117
1658789432277267,-0.04180971999694805,1.0290074006256198,0.21368734264133682
1658789432293254,-0.014099336232547444,1.0072785534447242,0.19586480506599546
1658789432309242,0.015197985809109582,0.9781033035782407,0.21014724956130326
1658789432325229,-0.030090791180285237,0.9756618600747693,0.23175402456702532
1658789432341217,-0.07379262989242408,1.0442664225223162,0.22418554970626392
1658789432357204,-0.06182955672541368,1.097489890897993,0.2305333028152896
1658789432373191,-0.02276646066987098,1.0573281452658883,0.2200350957503625
1658789432389179,0.015442130159456724,0.9939726863508049,0.203677424277104
1658789432405182,-0.03289845120927737,1.013015945677882,0.19378957808804476
1658789432421169,-0.06463721675440626,1.0454871442740519,0.20086976424811187
1658789432437156,-0.047913328755626594,1.0131380178530556,0.17828641184100125
1658789432453144,-0.05767910276951227,1.010452429999237,0.17206073090714913
1658789432469131,-0.07428091859311836,1.034622720683604,0.1952544441901276
1658789432485118,-0.07415884641794479,1.067093919279774,0.21258869306477468
1658789432501106,-0.06158541237506654,1.0979781795986874,0.22858014801251247
1658789432517093,-0.04473945220111375,1.0948043030441745,0.23590447852292673
1658789432533081,-0.040100709544518054,1.0473182269016554,0.22906843671320676
1658789432549068,-0.08270389868009476,1.0813763637750817,0.2536049439230945
1658789432565055,-0.07940794995040834,1.1112840466926066,0.2511635004196231
1658789432581043,-0.04376287479972518,1.0825970855268174,0.23199816891737246
1658789432597030,-0.03717097734035235,1.0486610208285647,0.22125581750209822
1658789432613018,-0.04058899824521234,1.0319371328297855,0.21832608529793252
1658789432629005,-0.04315251392385733,1.0523231860837718,0.22198825055313964
1658789432644992,-0.052063782711528006,1.0503700312809947,0.23212024109254603
1658789432660980,-0.027038986800945963,1.0475623712520026,0.2243076218814375
1658789432676967,0.007263294422827471,1.0296177615014876,0.21820401312275894
1658789432692955,-0.0018921187151903496,1.018997482261387,0.22357518883039607
1658789432708942,-0.00579842832074462,1.026077668421454,0.22992294193942175
1658789432724914,0.00982681010147246,1.0265659571221484,0.2448157473105974
1658789432740902,0.020813305867093845,1.0358434424353398,0.2561684596017395
1658789432756889,0.037781338216220206,1.0157015335317006,0.24957656214236668
1658789432772876,0.05352864881361086,0.9868925001907378,0.25214007782101167
1658789432788864,0.053406576638437286,0.9927519645990692,0.2653238727397573
1658789432804851,0.0659800106813151,0.9964141298542764,0.25128557259479667
1658789432820839,0.08953994048981428,0.9925078202487221,0.2453040360112917
1658789432836826,0.10370031280994851,0.9682154573891815,0.22333104448004892
1658789432852813,0.11236743724727205,0.985427634088655,0.22735942626077676
1658789432868801,0.10064850843060924,1.0100862134737163,0.25421530479896237
1658789432884788,0.12713817044327502,0.9909208819714657,0.25214007782101167
1658789432900776,0.1721828030823227,0.9733424887464714,0.2575112535286488
1658789432916763,0.17279316395819055,0.9513694972152287,0.2609292744335088
1658789432932750,0.16656748302433844,0.9634546425574122,0.2645914396887159
1658789432948738,0.18414587624933265,0.9787136644541086,0.2595864805065995
1658789432964725,0.203677424277104,0.9783474479285879,0.2642252231631952
1658789432980713,0.21075761043717112,0.9588158999008165,0.2818036163881894
1658789432996700,0.22320897230487535,0.9591821164263372,0.28705271992065295
1658789433012687,0.2348058289463646,0.9599145494773786,0.2771648737315937
1658789433028675,0.26434729533836876,0.9532005798428322,0.2612954909590295
1658789433044677,0.2788738841840237,0.9344014648661023,0.2562905317769131
1658789433060665,0.2755779354543373,0.900343327992676,0.2599526970321202
1658789433076652,0.2477454795147631,0.9228046082246131,0.29376668955519936
1658789433092640,0.27313649195086587,0.9370870527199209,0.28253604943923083
1658789433108627,0.33405050736247777,0.9141374837872895,0.26105134660868234
1658789433124614,0.3599298084992748,0.8850843060959797,0.26068513008316163
1658789433140602,0.3411306935225449,0.9235370412756545,0.2830243381399251
1658789433156589,0.33490501258869276,0.9428244449530787,0.2952315556572822
1658789433172577,0.36444647898069693,0.9145037003128103,0.2876630807965208
1658789433188564,0.3884946974898913,0.8841077286945911,0.29034866865033937
1658789433204551,0.3817807278553449,0.8788586251621275,0.32233157854581496
1658789433220539,0.388006408789197,0.8850843060959797,0.31464103150988
1658789433236526,0.43707942320897253,0.8722667277027538,0.28082703898680084
1658789433252514,0.48773937590600447,0.8271000228885326,0.22784771496147105
1658789433268501,0.4635690852216374,0.7923094529640649,0.2570229648279545
1658789433284488,0.42059967956054045,0.8231937132829783,0.27399099717708086
1658789433300476,0.45136186770428033,0.8233157854581519,0.2573891813534752
1658789433316463,0.5106889448386358,0.7744869153887235,0.22882429236285962
1658789433332450,0.5408407721065078,0.7378652628366522,0.243228809033341
1658789433348438,0.4862745098039216,0.7919432364385441,0.30548561837186217
1658789433364410,0.46552224002441456,0.8675059128709846,0.3346608682383456
1658789433380397,0.5398641947051193,0.8253910124361026,0.31293202105745
1658789433396385,0.6182345311665518,0.749584191653315,0.2755779354543373
1658789433412372,0.5838101777676048,0.7349355306324865,0.3150072480354007
1658789433428360,0.5381551842526893,0.7676508735790035,0.32953383688105564
1658789433444347,0.5633020523384449,0.8117189288166626,0.2910811017013808
1658789433460334,0.6233615625238418,0.7743648432135499,0.2638590066376745
1658789433476322,0.643747615777829,0.7040512703135731,0.2623941405355916
1658789433492309,0.618478675516899,0.695262073701076,0.2747234302281223
1658789433508297,0.5888151369497212,0.7230945296406501,0.2947432669565879
1658789433524284,0.6115205615320054,0.7145494773785002,0.2705729762722209
1658789433540271,0.6638895246814682,0.6776836804760817,0.26776531624322875
1658789433556259,0.6731670099946596,0.6397192339971012,0.28876173037308295
1658789433572246,0.6491187914854661,0.6697489890897996,0.29718471046005934
1658789433588234,0.6655985351338982,0.6836652170595867,0.2885175860227358
1658789433604221,0.682444495307851,0.6986800946059359,0.29010452429999223
1658789433620208,0.6580300602731368,0.6873273823147938,0.33795681696803204
1658789433636196,0.6977035172045474,0.6496070801861604,0.32269779507133567
1658789433652183,0.7648432135500114,0.6328831921873812,0.27228198672465087
1658789433668171,0.761547264820325,0.6113984893568318,0.25397116044861523
1658789433684173,0.6891584649423974,0.6210421911955439,0.30060273136491933
1658789433700161,0.6765850308995196,0.6210421911955439,0.3234302281223771
1658789433716148,0.7519035629816129,0.5973601892118712,0.2764324406805523
1658789433732135,0.8172121766994733,0.5543907835507742,0.22662699320973534
1658789433748123,0.7715571831845578,0.5172808422980086,0.27411306935225443
1658789433764110,0.7008773937590602,0.5067826352330815,0.3028000305180436
1658789433780098,0.7161364156557566,0.5634241245136185,0.3082932784008543
1658789433796085,0.7720454718852521,0.5830777447165634,0.27606622415503157
1658789433812072,0.8113527122911419,0.569527733272297,0.27875181200885013
1658789433828060,0.8078126192111084,0.5391317616540778,0.2998702983138779
1658789433844047,0.7809567406729228,0.5326619363698786,0.3368581673914699
1658789433860035,0.7824216067750056,0.5357137407492178,0.3674982833600362
1658789433876022,0.8134279392690926,0.5091020065613794,0.33026626993209707
1658789433892009,0.8394293125810632,0.4755321583886474,0.2894941634241244
1658789433907997,0.8202639810788126,0.5072709239337758,0.28790722514686795
1658789433923984,0.7936522468909741,0.5423056382085907,0.3213550011444264
1658789433939972,0.8257572289616233,0.48102540627145807,0.2991378652628365
1658789433955959,0.869947356374456,0.3776302738994435,0.2565346761272602
1658789433971946,0.8197756923781183,0.3666437781338212,0.28070496681162727
1658789433987934,0.7920653086137177,0.4501411459525446,0.2991378652628365
1658789434003906,0.8041504539559012,0.5425497825589378,0.29010452429999223
1658789434019893,0.8896009765774018,0.46344701304646385,0.2485999847409781
1658789434035881,0.9231708247501338,0.35223926146333984,0.26642252231631947
1658789434051868,0.8517586022735939,0.36432440680552336,0.32074464026855853
1658789434067855,0.7685053788052185,0.495551995117113,0.35724422064545625
1658789434083843,0.784863050278477,0.5595178149080642,0.3452811474784463
1658789434099830,0.916578927290761,0.4387884336614025,0.310368505378805
1658789434115818,0.9566186007476922,0.30255588616769646,0.2847333485923551
1658789434131805,0.900343327992676,0.26398107881284805,0.2894941634241244
1658789434147792,0.8534676127260239,0.351628900587472,0.29291218432898436
1658789434163780,0.8532234683756768,0.43988708323796466,0.281071183337148
1658789434179767,0.8897230487525754,0.39533073929961127,0.27277027542534515
1658789434195755,0.8860608834973682,0.34918745708400056,0.2931563286793315
1658789434211742,0.8660410467689017,0.31989013504234354,0.3339284351873042
1658789434227729,0.871656366826886,0.3032883192187379,0.34296177615014845
1658789434243717,0.9184100099183645,0.2628824292362859,0.31232166018158214
1658789434259704,0.9215838864728774,0.2735027084763866,0.2818036163881894
1658789434275692,0.905470359349966,0.30255588616769646,0.2964522774090179
1658789434291679,0.9059586480506603,0.3217212176699471,0.31219958800640857
1658789434307666,0.9153582055390252,0.29083695735103365,0.31696040283817783
1658789434323669,0.9036392767223624,0.23956664377813386,0.3081712062256807
1658789434339656,0.9044937819485774,0.19964904249637616,0.27826352330815585
1658789434355644,0.9192645151445795,0.23041123064011604,0.28925001907377723
1658789434371631,0.9257343404287788,0.24335088120851456,0.31305409323262356
1658789434387619,0.934767681391623,0.23712520027466244,0.31647211413748355
1658789434403606,0.9171892881666288,0.2091706721599147,0.31598382543678927
1658789434419593,0.9232928969253074,0.18292515449759694,0.2926680399786372
1658789434435581,0.9279316395819031,0.1814602883955141,0.30096894789044004
1658789434451568,0.9506370641641873,0.1704737926298927,0.3107347219043257
1658789434467556,0.9387960631723509,0.1654688334477763,0.31061264972915215
1658789434483543,0.9215838864728774,0.12823682001983716,0.29596398870832363
1658789434499530,0.9241474021515224,0.1680323491264213,0.2746013580529487
1658789434515518,0.9209735255970095,0.24493781948577098,0.2897383077744715
1658789434531505,0.9447775997558558,0.24420538643472955,0.2998702983138779
1658789434547493,0.9550316624704358,0.17999542229343124,0.3224536507209885
1658789434563480,0.9439230945296408,0.07904173342488718,0.33246356908522134
1658789434579467,0.9461203936827651,0.026062409399557396,0.33282978561074206
1658789434595455,0.9298847943846802,0.10870527199206492,0.3196459906919964
1658789434611442,0.9190203707942324,0.21844815747310609,0.3108567940794993
1658789434627430,0.9353780422674909,0.2482337682154574,0.29010452429999223
1658789434643402,0.9892118715190357,0.1255512321660186,0.28583199816891725
1658789434659389,0.9722438391699093,0.029846646829938095,0.29681849393453863
1658789434675377,0.9278095674067295,0.04058899824521234,0.3213550011444264
1658789434691364,0.8968032349126425,0.13714808880750784,0.3203784237430378
1658789434707351,0.9090104524299996,0.16498054474708201,0.31061264972915215
1658789434723339,0.9519798580910965,0.12481879911497629,0.30511940184634145
1658789434739326,0.9687037460898758,0.06878767071030722,0.3075608453498129
1658789434755313,0.9612573434042879,0.03595025558861664,0.32697032120241065
1658789434771301,0.9040054932478832,0.0739147020675972,0.3504081788357363
1658789434787288,0.9185320820935381,0.08880750743877286,0.3653009842069119
1658789434803276,0.9494163424124515,0.11041428244449492,0.3279468986037992
1658789434819263,0.9618677042801558,0.07086289768825793,0.31696040283817783
1658789434835250,0.9597924773022051,0.03851377126726163,0.3217212176699471
1658789434851238,0.9536888685435265,0.01641870756084529,0.34369420920118987
1658789434867225,0.9177996490424967,0.03033493553063238,0.33197528038452706
1658789434883213,0.9151140611886781,0.05902189669642155,0.3250171663996335
1658789434899200,0.9353780422674909,0.062439917601281536,0.3195239185168228
1658789434915187,0.954421301594568,0.014343480582894585,0.33282978561074206
1658789434931175,0.9396505683985659,-0.01617456321049815,0.35394827191576983
1658789434947162,0.9312275883115895,0.010193026626993174,0.38617532616159345
1658789434963165,0.919996948195621,0.06842145418478651,0.38666361486228773
1658789434979152,0.9414816510261694,0.05645838101777656,0.36945143816281334
1658789434995140,0.971755550469215,-0.013244831006332447,0.33990997177080917
1658789435011127,0.9638208590829329,-0.06793316548409267,0.3205004959182114
1658789435027114,0.9158464942397195,-0.041687647821774476,0.3314869916838328
1658789435043102,0.8976577401388575,0.010559243152513886,0.3435721370260163
1658789435059089,0.9201190203707945,0.036194399938963784,0.32660410467688994
1658789435075077,0.9386739909971773,-0.007751583123521755,0.33026626993209707
1658789435091064,0.939040207522698,-0.06060883497367797,0.34747844663157057
1658789435107051,0.9497825589379723,-0.08514534218356618,0.36554512855725907
1658789435123039,0.9367208361944002,-0.02935835812924381,0.3804379339284356
1658789435139026,0.944167238879988,0.021911955443655984,0.3611505302510105
1658789435155014,0.9496604867627987,0.021789883268482413,0.33319600213626277
1658789435171001,0.9459983215075916,-0.021667811093308842,0.3306324864576178
1658789435186988,0.9392843518730452,-0.057068741893644415,0.35297169451438126
1658789435202976,0.9391622796978716,-0.05169756618600729,0.36554512855725907
1658789435218963,0.9394064240482187,-0.04119935912108019,0.3599298084992748
1658789435234951,0.9290302891584652,-0.015320057984283153,0.35175097276264555
1658789435250938,0.9340352483405816,-0.039002059967955915,0.34259555962462773
1658789435266925,0.9414816510261694,-0.05792324711985941,0.348210879682612
1658789435282928,0.9478294041351951,-0.059754329747462975,0.350774395361257
1658789435298915,0.9506370641641873,-0.07904173342488763,0.3330739299610892
1658789435314903,0.9406271457999544,-0.0657358663309684,0.33368429083695705
1658789435330890,0.9243915465018695,-0.04986648355840373,0.33795681696803204
1658789435346878,0.9193865873197531,-0.05609216449225585,0.33868925001907346
1658789435362865,0.9253681239032581,-0.07672236209658978,0.36395819028000265
1658789435378852,0.9550316624704358,-0.11163500419623107,0.3640802624551762
1658789435394840,0.9638208590829329,-0.12103456168459603,0.3607843137254898
1658789435410827,0.9573510337987337,-0.12079041733424889,0.35968566414892766
1658789435426815,0.928786144808118,-0.07574578469520121,0.3793392843518735
1658789435442802,0.9066910811017017,-0.03448538948653379,0.3762874799725342
1658789435458789,0.9247577630273902,-0.06536964980544768,0.3729915312428469
1658789435474777,0.9369649805447473,-0.13641565575646597,0.3779964904249642
1658789435490764,0.9350118257419702,-0.17962920576791008,0.3943541618982227
1658789435506752,0.9086442359044788,-0.14312962539101237,0.4052185854886705
1658789435522739,0.8979018844892046,-0.07257190814068837,0.3977721828030827
1658789435538726,0.9082780193789581,-0.041687647821774476,0.3616388189517048
1658789435554714,0.9400167849240866,-0.060852979324025114,0.3423514152742806
1658789435570701,0.9524681467917908,-0.09759670405127041,0.35138475623712484
1658789435586689,0.919996948195621,-0.07855344472419334,0.36932936598763977
1658789435602661,0.9315938048371102,-0.08148317692835905,0.37689784084840205
1658789435618648,0.9418478675516901,-0.09906157015335326,0.36517891203173836
1658789435634636,0.9323262378881516,-0.08538948653391332,0.3623712520027462
1658789435650623,0.9212176699473567,-0.04876783398184159,0.3562676432440677
1658789435666610,0.9179217212176702,-0.030823224231326662,0.36224917982757265
1658789435682598,0.9239032578011752,-0.012024109254596738,0.35968566414892766
1658789435698585,0.9402609292744337,-0.021911955443655984,0.34711223010604986
1658789435714573,0.9394064240482187,-0.049378194857709445,0.3342946517128249
1658789435730560,0.9257343404287788,-0.03595025558861664,0.3552910658426791
1658789435746547,0.8927748531319146,0.03399710078583951,0.3783627069504849
1658789435762535,0.9179217212176702,0.05609216449225585,0.3679865720607305
1658789435778522,0.9503929198138401,0.006652933546959616,0.3384451056687263
1658789435794510,0.9473411154345008,-0.03155565728236809,0.33698023956664347
1658789435810497,0.909742885481041,0.005188067444876765,0.3549248493171584
1658789435826484,0.8944838635843446,0.08587777523460716,0.37225909819180547
1658789435842472,0.9004654001678496,0.16070801861600703,0.35394827191576983
1658789435858459,0.9439230945296408,0.11993591210803345,0.3397878995956356
1658789435874446,0.9534447241931794,0.049500267032883016,0.31561760891126855
1658789435890434,0.930495155260548,0.0214236667429617,0.3289234760051878
1658789435906421,0.8771496147096975,0.12164492256046344,0.3528496223392077
1658789435922424,0.8488288700694282,0.2296787975890746,0.36224917982757265
1658789435938411,0.9022964827954532,0.23492790112153816,0.30780498970016
1658789435954399,0.9365987640192266,0.15924315251392418,0.28290226596475154
1658789435970386,0.9206073090714888,0.12286564431219915,0.27325856412603944
1658789435986374,0.8919203479056996,0.1654688334477763,0.30768291752498644
1658789436002361,0.8449225604638739,0.2566567483024338,0.36188296330205194
1658789436018348,0.8489509422446018,0.2814373998626687,0.38495460440985774
1658789436034336,0.876173037308309,0.26446936751354233,0.35004196231021556
1658789436050323,0.8552986953536275,0.35089646753643056,0.344792858777752
1658789436066311,0.8205081254291597,0.46466773479819956,0.3709163042648962
1658789436082298,0.8628671702143889,0.4455024032959489,0.3642023346303498
1658789436098285,0.9254901960784316,0.3268482490272371,0.3277027542534521
1658789436114273,0.8990005340657667,0.31219958800640857,0.28754100862134724
1658789436130260,0.8478522926680396,0.43158617532616184,0.3023117418173493
1658789436146247,0.8434576943617911,0.496406500343328,0.32025635156786425
1658789436162235,0.8865491721980625,0.4523384451056689,0.2915693904020751
1658789436178222,0.849439230945296,0.42194247348744973,0.28912794689860366
1658789436194210,0.833813992523079,0.4279240100709547,0.29974822613870433
1658789436210197,0.8595712214847024,0.4708934157320517,0.28070496681162727
1658789436226184,0.8692149233234145,0.47516594186312666,0.2609292744335088
1658789436242157,0.8063477531090255,0.4867627985046159,0.29169146257724865
1658789436258144,0.7543450064850843,0.5440146486610207,0.3230640115968564
1658789436274131,0.7846189059281299,0.5758754863813227,0.33026626993209707
1658789436290119,0.8842298008697647,0.4876173037308309,0.2737468528267337
1658789436306106,0.8491950865949489,0.47858396276798665,0.272526131074998
1658789436322094,0.7405508506904708,0.5929655909056226,0.3284351873044935
1658789436338081,0.7652094300755321,0.6421606775005726,0.31268787670710285
1658789436354068,0.8516365300984203,0.5281452658884564,0.28033875028610655
1658789436370056,0.860547798886091,0.40119020370794267,0.24603646906233312
1658789436386043,0.7898680094605934,0.43366140230411254,0.2642252231631952
1658789436402031,0.6592507820248725,0.6767071030746932,0.34552529182879343
1658789436418018,0.654001678492409,0.7643549248493171,0.38580910963607273
1658789436434005,0.8103761348897534,0.5967498283360033,0.2965743495841915
1658789436449993,0.8734874494544895,0.4253604943923097,0.26019684138246735
1658789436465980,0.8086671244373234,0.45123979552910676,0.26739909971770803
1658789436481968,0.7289539940489815,0.5977264057373919,0.2909590295262072
1658789436497955,0.7072251468680859,0.6900129701686124,0.3019455252918286
1658789436513942,0.7365224689097429,0.6153047989623861,0.27447928587777515
1658789436529930,0.7670405127031357,0.5318074311436636,0.24750133516441597
1658789436545917,0.6898908979934388,0.6297093156328684,0.2993820096131836
1658789436561889,0.6175020981155104,0.7410391393911651,0.36945143816281334
1658789436577877,0.7310292210269322,0.6706034943160146,0.3007248035400929
1658789436593864,0.8239261463340197,0.5238727397573815,0.25519188220035094
1658789436609851,0.7643549248493171,0.5515831235217821,0.2511635004196231
1658789436625839,0.6529030289158468,0.7302967879758908,0.2947432669565879
1658789436641826,0.6265354390783555,0.7868162050812542,0.33282978561074206
1658789436657814,0.7135728999771116,0.6414282444495312,0.28546578164339653
1658789436673801,0.753002212558175,0.5416952773327228,0.2520180056458381
1658789436689788,0.6903791866941331,0.6044403753719383,0.2456702525368124
1658789436705776,0.5810025177386127,0.7820553902494849,0.31854734111543426
1658789436721763,0.5665980010681313,0.838086518654154,0.3361257343404285
1658789436737751,0.6673075455863282,0.7311512932021058,0.2730144197756923
1658789436753738,0.7213855191882201,0.6254367895017934,0.2444495307850767
1658789436769725,0.6695048447394525,0.6337376974135962,0.23675898374914173
1658789436785713,0.5764858472571905,0.7487296864271,0.30341039139391146
1658789436801700,0.5276569771877622,0.8120851453421833,0.3301441977569235
1658789436817688,0.5818570229648277,0.7868162050812542,0.3119554436560614
1658789436833675,0.6637674525062947,0.6765850308995196,0.24884412909132525
1658789436849662,0.6441138323033497,0.6668192568856339,0.21771572442206466
1658789436865650,0.5275349050125886,0.7938963912413213,0.2789959563591973
1658789436881652,0.4330510414282447,0.8766613260090033,0.35175097276264555
1658789436897640,0.5171587701228351,0.8162355992980848,0.2926680399786372
1658789436913627,0.6376440070191505,0.6930647745479517,0.2150301365682461
1658789436929615,0.5904020752269776,0.712596322575723,0.2305333028152896
1658789436945602,0.4502632181277182,0.8815442130159461,0.3048752574959943
1658789436961589,0.43451590753032754,0.9336690318150609,0.33832303349355275
1658789436977577,0.5330281528953993,0.8109864957656212,0.28155947203784226
1658789436993564,0.573800259403372,0.716868848706798,0.2377355611505303
1658789437009552,0.4472114137483789,0.8207522697795069,0.2697184710460059
1658789437025539,0.3729915312428469,0.9064469367513546,0.3002365148393986
1658789437041526,0.4502632181277182,0.8939955748836503,0.2536049439230945
1658789437057514,0.5051956969558251,0.8290531776913097,0.22528419928282606
1658789437073501,0.4112001220721755,0.8689707789730674,0.25897611963073164
1658789437089489,0.38104829480430347,0.929640650034333,0.2571450370031281
1658789437105476,0.42853437094682256,0.9574731059739072,0.2305333028152896
1658789437121463,0.4514839398794539,0.916578927290761,0.22455176623178463
1658789437137451,0.38617532616159345,0.9019302662699324,0.26153963530937663
1658789437153438,0.34174105439841274,0.9325703822384988,0.27228198672465087
1658789437169426,0.3967956054016941,0.9268329900053409,0.23871213855191886
1658789437185413,0.4291447318226904,0.8874036774242775,0.2121004043640804
1658789437201385,0.3506523231860834,0.9286640726329445,0.23712520027466244
1658789437217373,0.2658121614404516,0.9942168307011521,0.271671625848783
1658789437233360,0.30475318532082074,0.9878690775921264,0.24713511863889526
1658789437249347,0.38568703746089916,0.9374532692454416,0.20990310521095612
1658789437265335,0.3549248493171584,0.945876249332418,0.20819409475852613
1658789437281322,0.28290226596475154,0.985427634088655,0.2238193331807432
1658789437297310,0.27496757457846943,0.9710231174181736,0.23248645761806674
1658789437313297,0.30170138094148147,0.914015411612116,0.21564049744411395
1658789437329284,0.2821698329137101,0.9323262378881516,0.2251621271076525
1658789437345272,0.22858014801251247,0.9851834897383078,0.2515297169451438
1658789437361259,0.2566567483024338,0.9568627450980394,0.22980086976424818
1658789437377246,0.30011444266422505,0.9212176699473567,0.20807202258335256
1658789437393234,0.23651483939879459,0.9658960860608836,0.21722743572137038
1658789437409221,0.20941481651026184,1.0180209048599984,0.238956282902266
1658789437425209,0.23163195239185175,1.0098420691233692,0.24750133516441597
1658789437441196,0.27240405889982444,0.9558861676966508,0.19537651636530118
1658789437457183,0.27789730678263513,0.9014419775692382,0.17779812314030696
1658789437473171,0.21344319829098968,0.9430685893034259,0.19134813458457334
1658789437489158,0.15814450293736204,1.0131380178530556,0.21893644617380037
1658789437505146,0.17462424658579412,0.9999542229343099,0.24921034561684596
1658789437521148,0.22284275577935464,0.9274433508812088,0.2258945601586939
1658789437537136,0.24493781948577098,0.9040054932478832,0.17462424658579412
1658789437553123,0.19586480506599546,0.9741969939726864,0.20672922865644328
1658789437569110,0.13336385137712714,1.0202182040131227,0.25384908827344166
1658789437585098,0.133974212252995,1.027786678873884,0.24542610818646526
1658789437601085,0.19928282597085545,0.9563744563973451,0.19464408331425975
1658789437617073,0.21283283741512182,0.9240253299763488,0.18915083543144906
1658789437633060,0.15179674982833635,0.9853055619134814,0.20978103303578255
1658789437649047,0.11493095292591704,1.0484168764782176,0.22784771496147105
1658789437665035,0.1272602426184486,1.0287632562752727,0.23700312809948887
1658789437681022,0.16693369954985915,0.938185702296483,0.19635309376668975
1658789437697010,0.1549706263828492,0.9226825360494395,0.18377965972381194
1658789437712997,0.0928358892195007,0.982009613183795,0.20758373388265827
1658789437728984,0.06561379415579438,1.0489051651789119,0.23077744716563675
1658789437744972,0.09588769359883997,1.026688029297322,0.207095445181964
1658789437760959,0.13836881055924355,0.983718623636225,0.17914091706721624
1658789437776947,0.12872510872053144,0.9944609750514992,0.16852063782711557
1658789437792934,0.09881742580300568,1.0282749675745784,0.18756389715419264
1658789437808921,0.08856336308842572,1.0136263065537499,0.2112458991378654
1658789437824909,0.0726939803158615,0.9904325932707714,0.20794995040817899
1658789437840881,0.08636606393530144,0.9500267032883194,0.17535667963683554
1658789437856868,0.08221560997940003,0.9679713130388343,0.17206073090714913
1658789437872856,0.04571602960250232,0.9970244907301442,0.1981841763942933
1658789437888843,0.041443503471427334,1.0216830701152055,0.22076752880140393
1658789437904831,0.05816739147020655,1.0081330586709392,0.19623102159151617
1658789437920818,0.06402685587853796,0.9647974364843215,0.17206073090714913
1658789437936805,0.02276646066987098,0.9975127794308385,0.1864652475776305
1658789437952793,-0.006897077897306758,1.0441443503471426,0.2095368886854354
1658789437968780,0.024597543297474544,1.0052033264667735,0.21905851834897394
1658789437984768,0.04962233920805659,0.9551537346456094,0.18695353627832478
1658789438000755,0.050476844434271584,0.9832303349355307,0.16815442130159486
1658789438016742,0.012146181429770309,1.0048371099412527,0.18512245365072122
1658789438032730,-0.025818265049210254,1.0323033493553062,0.20148012512397973
1658789438048717,-0.016662851911192433,1.024124513618677,0.2158846417944611
1658789438064705,0.022156099794003126,0.9745632104982072,0.18426794842450622
1658789438080692,0.036194399938963784,0.9658960860608836,0.16913099870298343
1658789438096679,-0.002990768291752488,0.9524681467917908,0.1952544441901276
1658789438112667,-0.0357061112382695,0.9810330357824064,0.1952544441901276
1658789438128654,-0.020447089341573133,1.0246128023193712,0.18292515449759694
1658789438144642,0.012146181429770309,0.9933623254749371,0.16107423514152774
1658789438160644,0.007751583123521755,0.9291523613336388,0.1541161211566342
1658789438176632,-0.04193179217212162,0.9127946898603803,0.16485847257190844
