Timestamp (microseconds),Accel X (g),Accel Y (g),Accel Z (g)
1658789415838440,0.08136110475318503,1.0072785534447242,-0.12310978866254674
1658789415854439,0.08087281605249075,0.9749294270237279,-0.11712825207904176
1658789415870439,0.07916380560006075,0.9801785305561914,-0.11493095292591748
1658789415886439,0.07550164034485363,1.007888914320592,-0.12567330434119173
1658789415902439,0.07513542381933291,0.9958037689784085,-0.1308003356984817
1658789415918439,0.07904173342488718,0.9676050965133136,-0.1283588921950103
1658789415934438,0.07757686732280433,0.9895780880445564,-0.11956969558251318
1658789415950438,0.0739147020675972,1.00337224383917,-0.12713817044327458
1658789415966438,0.07086289768825793,0.9850614175631343,-0.12042420080872818
1658789415982438,0.0726939803158615,0.9859159227893493,-0.12506294346532387
1658789415998438,0.07904173342488718,0.9901884489204242,-0.13031204699778742
1658789416014437,0.07794308384832505,0.9909208819714657,-0.12530708781567101
1658789416030437,0.07574578469520077,0.9954375524528878,-0.12359807736324102
1658789416046437,0.07440299076829149,0.9834744792858778,-0.12176699473563746
1658789416062437,0.07611200122072148,0.9763942931258107,-0.12628366521705958
1658789416078436,0.0785534447241929,0.9773708705271993,-0.12799267566948958
1658789416094436,0.07757686732280433,0.9861600671396964,-0.12884718089570457
1658789416110436,0.07965209430075504,0.9844510566872664,-0.11773861295490962
1658789416126436,0.07440299076829149,0.9840848401617457,-0.11712825207904176
1658789416142436,0.07660028992141577,0.9895780880445564,-0.11786068513008319
1658789416158447,0.07513542381933291,0.9866483558403907,-0.12188906691081103
1658789416174447,0.07757686732280433,0.9867704280155642,-0.12506294346532387
1658789416190446,0.07782101167315147,0.9789578088044557,-0.12262149996185245
1658789416206446,0.07489127946898577,0.9669947356374458,-0.12762645914396886
1658789416222446,0.07318226901655578,0.9801785305561914,-0.12628366521705958
1658789416238446,0.0747692072938122,0.9969024185549706,-0.12689402609292744
1658789416254446,0.08136110475318503,0.9907988097962921,-0.12591744869153887
1658789416270445,0.07586785687037434,0.9678492408636608,-0.12249942778667888
1658789416286445,0.0739147020675972,0.976882581826505,-0.11859311818112461
1658789416302445,0.07171740291447293,1.0049591821164263,-0.12567330434119173
1658789416318445,0.0756237125200272,1.003616388189517,-0.12372014953841459
1658789416334445,0.0776989394979779,0.9848172732127871,-0.12689402609292744
1658789416350444,0.07403677424277078,0.973464560921645,-0.12603952086671244
1658789416366444,0.06878767071030722,0.9844510566872664,-0.127016098268101
1658789416382444,0.07086289768825793,0.9875028610666057,-0.11798275730525676
1658789416398444,0.07074082551308436,0.9846952010376135,-0.1240863660639353
1658789416414444,0.07171740291447293,0.9944609750514992,-0.1249408712901503
1658789416430443,0.07525749599450648,0.9923857480735485,-0.12018005645838103
1658789416446443,0.06817730983443937,0.9953154802777142,-0.12372014953841459
1658789416462443,0.07574578469520077,0.9973907072556649,-0.127016098268101
1658789416478424,0.07428091859311792,0.9843289845120928,-0.1283588921950103
1658789416494423,0.0756237125200272,0.9766384374761579,-0.12274357213702602
1658789416510423,0.06646829938200938,0.9757839322499429,-0.12530708781567101
1658789416526423,0.06695658808270366,0.9748073548485543,-0.1333638513771267
1658789416542423,0.06903181506065437,0.97602807660029,-0.13104448004882885
1658789416558423,0.07403677424277078,0.9922636758983749,-0.1345845731288624
1658789416574422,0.06561379415579438,0.9916533150225071,-0.12945754177157243
1658789416590422,0.06158541237506654,0.9849393453879607,-0.131288624399176
1658789416606422,0.06878767071030722,0.9892118715190357,-0.1283588921950103
1658789416622422,0.08258182650492074,0.987136644541085,-0.11883726253147175
1658789416638422,0.07574578469520077,0.9818875410086214,-0.11932555123216604
1658789416654421,0.08331425955596217,0.9893339436942092,-0.12213321126115817
1658789416670421,0.06683451590753009,0.9901884489204242,-0.12762645914396886
1658789416686421,0.0680552376592658,0.9662623025864043,-0.13385214007782098
1658789416702421,0.07586785687037434,0.9860379949645228,-0.127870603494316
1658789416718421,0.06878767071030722,1.0020294499122606,-0.12323186083772031
1658789416734420,0.0689097428854808,0.9886015106431678,-0.1203021286335546
1658789416750420,0.0709849698634315,0.983718623636225,-0.11761654077973605
1658789416766420,0.07208361943999364,0.9964141298542764,-0.12225528343633174
1658789416782420,0.07049668116273722,1.0119172961013199,-0.12628366521705958
1658789416798401,0.06561379415579438,0.9922636758983749,-0.1325093461509117
1658789416814400,0.0680552376592658,0.9701686121919586,-0.12176699473563746
1658789416830400,0.06451514457923224,0.9881132219424735,-0.11725032425421533
1658789416846400,0.06378271152819082,1.0108186465247577,-0.11859311818112461
1658789416862400,0.05951018539711583,0.9970244907301442,-0.12933546959639886
1658789416878399,0.06927595941100151,0.9671168078126193,-0.12298771648737317
1658789416894399,0.0747692072938122,0.9918974593728542,-0.11212329289692535
1658789416910399,0.06866559853513365,1.0065461203936827,-0.11981383993286032
1658789416926399,0.06939803158617508,1.0004425116350042,-0.12164492256046389
1658789416942399,0.06414892805371153,0.9872587167162585,-0.1249408712901503
1658789416958398,0.06988632028686936,0.9787136644541086,-0.12384222171358816
1658789416974398,0.06524757763027367,0.9843289845120928,-0.11407644769970249
1658789416990398,0.06707866025787723,0.9939726863508049,-0.12042420080872818
1658789417006398,0.06378271152819082,0.9772487983520257,-0.11981383993286032
1658789417022398,0.0651255054551001,0.9796902418554971,-0.12628366521705958
1658789417038397,0.07537956816968006,0.9939726863508049,-0.11383230334935535
1658789417054397,0.07293812466620864,1.0032501716639963,-0.11212329289692535
1658789417070397,0.07135118638895221,0.9990997177080949,-0.11798275730525676
1658789417086397,0.059876401922636546,0.9782253757534143,-0.11078049897001607
1658789417102397,0.06939803158617508,0.97602807660029,-0.1211566338597696
1658789417118408,0.07110704203860507,0.9967803463797971,-0.11139085984588393
1658789417134408,0.061097123674372256,0.9886015106431678,-0.11346608682383463
1658789417150407,0.06353856717784367,0.9704127565423057,-0.11700617990386819
1658789417166407,0.0663462272068358,0.9718776226443886,-0.11981383993286032
1658789417182407,0.07086289768825793,0.9870145723659114,-0.11956969558251318
1658789417198407,0.07293812466620864,0.9925078202487221,-0.11590753032730605
1658789417214407,0.06329442282749653,0.9719996948195622,-0.11761654077973605
1658789417230406,0.06659037155718295,0.9812771801327536,-0.12018005645838103
1658789417246406,0.06915388723582794,0.9995880064087892,-0.12054627298390175
1658789417262406,0.07159533073929936,0.9816433966582743,-0.11566338597695891
1658789417278406,0.06646829938200938,0.9678492408636608,-0.12054627298390175
1658789417294406,0.06829938200961294,0.9776150148775464,-0.12457465476462959
1658789417310405,0.07428091859311792,1.0091096360723277,-0.1283588921950103
1658789417326405,0.07122911421377864,1.0047150377660792,-0.13397421225299455
1658789417342405,0.06646829938200938,0.9719996948195622,-0.127016098268101
1658789417358405,0.06500343327992653,0.9684596017395286,-0.12762645914396886
1658789417374405,0.0718394750896465,0.9953154802777142,-0.12042420080872818
1658789417390404,0.06268406195162868,1.0100862134737163,-0.12762645914396886
1658789417406404,0.0663462272068358,0.9813992523079271,-0.12542915999084459
1658789417422404,0.0604867627985044,0.9597924773022051,-0.12567330434119173
1658789417438385,0.05780117494468584,0.9860379949645228,-0.12469672693980316
1658789417454384,0.062439917601281536,1.0230258640421148,-0.12982375829709314
1658789417470384,0.06536964980544724,1.018142977035172,-0.13983367666132596
1658789417486384,0.06280613412680225,0.9551537346456094,-0.12933546959639886
1658789417502384,0.07074082551308436,0.9444113832303351,-0.11078049897001607
1658789417518384,0.0659800106813151,0.9727321278706036,-0.10577553978789966
1658789417534383,0.062317845426107965,0.9923857480735485,-0.11017013809414822
1658789417550383,0.06610208285648866,0.9944609750514992,-0.12469672693980316
1658789417566383,0.07061875333791079,0.9824979018844893,-0.12164492256046389
1658789417582383,0.06305027847714939,0.9893339436942092,-0.12188906691081103
1658789417598383,0.062195773250934394,1.001907377737087,-0.1228656443121996
1658789417614382,0.06073090714885154,1.0026398107881285,-0.12567330434119173
1658789417630382,0.06317235065232296,0.9917753871976807,-0.11395437552452892
1658789417646382,0.06964217593652222,0.9947051194018464,-0.11309987029831392
1658789417662382,0.0634164950026701,1.0128938735027084,-0.11895933470664533
1658789417678382,0.062439917601281536,1.0037384603646906,-0.12445258258945602
1658789417694381,0.06305027847714939,0.9838406958113985,-0.12982375829709314
1658789417710381,0.06903181506065437,0.9978789959563592,-0.12066834515907532
1658789417726381,0.0651255054551001,1.0072785534447242,-0.11212329289692535
1658789417742381,0.05511558709086728,0.9984893568322271,-0.1165178912031739
1658789417758392,0.052063782711528006,0.9790798809796293,-0.11944762340733961
1658789417774392,0.0663462272068358,0.9790798809796293,-0.11187914854657821
1658789417790392,0.06585793850614152,1.0015411612115663,-0.10724040588998252
1658789417806391,0.05926604104676869,1.0011749446860456,-0.11432059205004963
1658789417822391,0.05389486533913157,0.982009613183795,-0.11505302510109106
1658789417838391,0.06366063935301725,0.9959258411535821,-0.10919356069275965
1658789417854391,0.06622415503166224,1.0026398107881285,-0.1106584267948425
1658789417870391,0.06866559853513365,0.9958037689784085,-0.10785076676585037
1658789417886390,0.06292820630197582,0.9783474479285879,-0.11102464332036321
1658789417902390,0.06073090714885154,0.9729762722209507,-0.11663996337834748
1658789417918390,0.055848020141908705,0.9748073548485543,-0.11932555123216604
1658789417934390,0.06195162890058725,0.9886015106431678,-0.11566338597695891
1658789417950389,0.060975051499198685,0.9944609750514992,-0.1211566338597696
1658789417966389,0.07147325856412579,0.9810330357824064,-0.11517509727626463
1658789417982389,0.07086289768825793,0.9784695201037614,-0.11456473640039677
1658789417998389,0.06329442282749653,1.0009308003356985,-0.11798275730525676
1658789418014389,0.06817730983443937,0.9894560158693828,-0.11944762340733961
1658789418030388,0.0680552376592658,0.9601586938277258,-0.11432059205004963
1658789418046388,0.07220569161516721,0.9903105210955978,-0.11297779812314035
1658789418062388,0.05926604104676869,0.9942168307011521,-0.11786068513008319
1658789418078369,0.062439917601281536,0.9835965514610514,-0.11859311818112461
1658789418094369,0.06878767071030722,0.9799343862058443,-0.1123674372472725
1658789418110368,0.06964217593652222,0.98457312886244,-0.11200122072175178
1658789418126368,0.062195773250934394,0.9972686350804914,-0.11859311818112461
1658789418142368,0.06073090714885154,0.9998321507591363,-0.1249408712901503
1658789418158368,0.06756694895857152,0.9805447470817121,-0.12176699473563746
1658789418174368,0.06927595941100151,0.9816433966582743,-0.11847104600595104
1658789418190367,0.06683451590753009,0.9892118715190357,-0.11810482948043033
1658789418206367,0.06451514457923224,1.0246128023193712,-0.12298771648737317
1658789418222367,0.07135118638895221,1.0088654917219806,-0.12506294346532387
1658789418238367,0.06817730983443937,0.9772487983520257,-0.11883726253147175
1658789418254366,0.07379262989242363,0.9892118715190357,-0.12164492256046389
1658789418270366,0.060975051499198685,0.9977569237811856,-0.12567330434119173
1658789418286366,0.0634164950026701,1.0004425116350042,-0.12213321126115817
1658789418302366,0.06671244373235652,0.9876249332417792,-0.11969176775768675
1658789418318366,0.07049668116273722,0.9812771801327536,-0.1152971694514382
1658789418334365,0.06732280460822437,0.9956816968032349,-0.1106584267948425
1658789418350365,0.06353856717784367,0.9938506141756314,-0.11920347905699247
1658789418366365,0.06414892805371153,0.9822537575341421,-0.12298771648737317
1658789418382365,0.07745479514763076,0.97773708705272,-0.11334401464866106
1658789418398376,0.07550164034485363,1.0009308003356985,-0.11017013809414822
1658789418414376,0.0659800106813151,0.9967803463797971,-0.10968184939345393
1658789418430376,0.0659800106813151,0.9774929427023729,-0.10870527199206537
1658789418446375,0.06768902113374509,0.9682154573891815,-0.11468680857557034
1658789418462375,0.07635614557106862,0.9878690775921264,-0.10626382848859395
1658789418478375,0.07428091859311792,1.0022735942626078,-0.11090257114518964
1658789418494375,0.0718394750896465,0.9817654688334478,-0.1123674372472725
1658789418510375,0.0672007324330508,0.9624780651560236,-0.11139085984588393
1658789418526374,0.0764782177462422,0.978591592278935,-0.11309987029831392
1658789418542374,0.07721065079728362,1.0030060273136492,-0.10846112764171822
1658789418558374,0.07611200122072148,0.9929961089494164,-0.1165178912031739
1658789418574374,0.0756237125200272,0.9702906843671322,-0.11419851987487606
1658789418590374,0.07428091859311792,0.9684596017395286,-0.10736247806515609
1658789418606373,0.07293812466620864,0.9900663767452507,-0.10894941634241251
1658789418622373,0.07159533073929936,0.9772487983520257,-0.1085831998168918
1658789418638373,0.06500343327992653,0.9690699626153965,-0.11700617990386819
1658789418654373,0.07660028992141577,0.9977569237811856,-0.12042420080872818
1658789418670373,0.07452506294346506,1.012161440451667,-0.11297779812314035
1658789418686372,0.07257190814068792,0.9929961089494164,-0.11114671549553679
1658789418702372,0.06756694895857152,0.9569848172732129,-0.11139085984588393
1658789418718353,0.0659800106813151,0.9673609521629665,-0.11297779812314035
1658789418734353,0.07049668116273722,1.0000762951094835,-0.11981383993286032
1658789418750352,0.0764782177462422,1.0105745021744106,-0.12079041733424889
1658789418766352,0.06768902113374509,0.9767605096513314,-0.11798275730525676
1658789418782352,0.0689097428854808,0.9627222095063708,-0.11224536507209892
1658789418798352,0.07000839246204293,1.002517738612955,-0.10907148851758608
1658789418814352,0.07330434119172935,1.0105745021744106,-0.10882734416723894
1658789418830351,0.07000839246204293,0.9867704280155642,-0.11432059205004963
1658789418846351,0.06732280460822437,0.9534447241931794,-0.11981383993286032
1658789418862351,0.06707866025787723,0.9810330357824064,-0.12066834515907532
1658789418878351,0.0634164950026701,1.0196078431372548,-0.11786068513008319
1658789418894351,0.07061875333791079,1.0133821622034027,-0.12188906691081103
1658789418910350,0.07159533073929936,0.9781033035782407,-0.11932555123216604
1658789418926350,0.07635614557106862,0.9685816739147022,-0.10455481803616395
1658789418942350,0.06659037155718295,1.0102082856488899,-0.1098039215686275
1658789418958350,0.06854352635996008,1.0160677500572213,-0.11566338597695891
1658789418974350,0.0709849698634315,1.0012970168612192,-0.12152285038529032
1658789418990349,0.07220569161516721,0.9746852826733807,-0.12347600518806745
1658789419006349,0.07000839246204293,0.9932402532997635,-0.11114671549553679
1658789419022349,0.06207370107576082,1.0015411612115663,-0.11517509727626463
1658789419038360,0.06854352635996008,0.9954375524528878,-0.11871519035629818
1658789419054360,0.06817730983443937,0.9613794155794615,-0.11566338597695891
1658789419070360,0.07525749599450648,0.9798123140306707,-0.11004806591897465
1658789419086360,0.0701304646372165,1.0099641412985427,-0.11090257114518964
1658789419102359,0.06927595941100151,1.0149691004806591,-0.11212329289692535
1658789419118359,0.06988632028686936,0.9735866330968186,-0.10992599374380108
1658789419134359,0.0756237125200272,0.9728542000457772,-0.10284580758373396
1658789419150359,0.06671244373235652,1.0006866559853513,-0.1115129320210575
1658789419166359,0.06659037155718295,0.9953154802777142,-0.11932555123216604
1658789419182358,0.06292820630197582,0.9608911268787672,-0.12018005645838103
1658789419198358,0.06781109330891866,0.9633325703822386,-0.11920347905699247
1658789419214358,0.07354848554207649,0.9936064698252842,-0.11371023117418178
1658789419230358,0.06659037155718295,0.9958037689784085,-0.10797283894102394
1658789419246358,0.07074082551308436,0.9806668192568857,-0.10614175631342038
1658789419262357,0.06903181506065437,0.9807888914320593,-0.10370031280994896
1658789419278357,0.07635614557106862,0.9939726863508049,-0.10260166323338682
1658789419294357,0.06952010376134865,0.9936064698252842,-0.10345616845960182
1658789419310357,0.06524757763027367,0.975173571374075,-0.10663004501411466
1658789419326357,0.06500343327992653,0.9654077973601893,-0.11285572594796678
1658789419342356,0.06646829938200938,0.9834744792858778,-0.1135881589990082
1658789419358337,0.057312886243991557,0.9939726863508049,-0.11676203555352105
1658789419374337,0.06573586633096795,0.9833524071107043,-0.10553139543755252
1658789419390337,0.05743495841916513,0.9633325703822386,-0.11493095292591748
1658789419406336,0.06524757763027367,0.9630884260318915,-0.10370031280994896
1658789419422336,0.05999847409781012,1.0091096360723277,-0.10492103456168467
1658789419438336,0.06536964980544724,1.0197299153124284,-0.11773861295490962
1658789419454336,0.06671244373235652,0.9816433966582743,-0.11261158159761964
1658789419470336,0.06671244373235652,0.9688258182650493,-0.10955977721828036
1658789419486335,0.0651255054551001,1.0094758525978484,-0.10577553978789966
1658789419502335,0.05914396887159512,1.0149691004806591,-0.1161516746776532
1658789419518335,0.06073090714885154,0.9983672846570535,-0.11993591210803389
1658789419534335,0.06646829938200938,0.9812771801327536,-0.12274357213702602
1658789419550335,0.06854352635996008,0.9932402532997635,-0.1135881589990082
1658789419566334,0.05682459754329727,1.0148470283054856,-0.11554131380178534
1658789419582334,0.054627298390172996,1.0100862134737163,-0.11859311818112461
1658789419598334,0.059876401922636546,0.9931181811245899,-0.11639581902800034
1658789419614334,0.06976424811169579,1.00337224383917,-0.10870527199206537
1658789419630334,0.06207370107576082,1.0094758525978484,-0.11102464332036321
1658789419646333,0.059632257572289404,1.0106965743495842,-0.1161516746776532
1658789419662333,0.053772793163958,0.98628213931487,-0.12188906691081103
1658789419678344,0.06121919584954583,0.9722438391699093,-0.1098039215686275
1658789419694344,0.06536964980544724,1.004470893415732,-0.10418860151064324
1658789419710344,0.062439917601281536,1.0146028839551384,-0.10785076676585037
1658789419726344,0.06292820630197582,0.9866483558403907,-0.10504310673685824
1658789419742344,0.06573586633096795,0.9746852826733807,-0.0972304875257497
1658789419758343,0.06353856717784367,0.9925078202487221,-0.09564354924849328
1658789419774343,0.06378271152819082,0.9993438620584421,-0.11248950942244607
1658789419790343,0.056946669718470844,0.9676050965133136,-0.11761654077973605
1658789419806343,0.05560387579156156,0.9495384145876251,-0.10882734416723894
1658789419822342,0.0672007324330508,0.9926298924238957,-0.10724040588998252
1658789419838342,0.06671244373235652,0.9980010681315328,-0.10113679713130397
1658789419854342,0.06756694895857152,0.97431906614786,-0.0993057145037004
1658789419870342,0.06732280460822437,0.9591821164263372,-0.10077058060578326
1658789419886342,0.07464713511863863,0.9842069123369193,-0.1030899519340811
1658789419902341,0.06378271152819082,0.9995880064087892,-0.10467689021133753
1658789419918341,0.06695658808270366,0.9993438620584421,-0.10675211718928823
1658789419934341,0.06463721675440581,0.9931181811245899,-0.10882734416723894
1658789419950341,0.06695658808270366,0.9665064469367515,-0.09857328145265898
1658789419966341,0.07379262989242363,0.9748073548485543,-0.09710841535057613
1658789419982340,0.06170748455024011,0.9980010681315328,-0.10174715800717182
1658789419998352,0.06073090714885154,0.9834744792858778,-0.10797283894102394
1658789420014351,0.057068741893644415,0.9595483329518579,-0.10846112764171822
1658789420030351,0.062439917601281536,0.9895780880445564,-0.10724040588998252
1658789420046351,0.05743495841916513,1.0032501716639963,-0.10663004501411466
1658789420062351,0.06012054627298369,0.973464560921645,-0.10626382848859395
1658789420078351,0.06182955672541368,0.9710231174181736,-0.10540932326237895
1658789420094350,0.06024261844815726,0.9983672846570535,-0.11029221026932179
1658789420110350,0.06561379415579438,1.0211947814145113,-0.10431067368581681
1658789420126350,0.05645838101777656,1.0132600900282291,-0.10357824063477539
1658789420142350,0.05951018539711583,0.9839627679865721,-0.1068741893644618
1658789420158350,0.060975051499198685,0.9822537575341421,-0.10382238498512253
1658789420174349,0.059632257572289404,0.9931181811245899,-0.11590753032730605
1658789420190349,0.05658045319295013,1.0048371099412527,-0.11334401464866106
1658789420206349,0.0567025253681237,1.0231479362172884,-0.11798275730525676
1658789420222349,0.062195773250934394,0.9982452124818799,-0.11505302510109106
1658789420238349,0.06744487678339794,0.97602807660029,-0.10882734416723894
1658789420254348,0.06659037155718295,0.9912870984969864,-0.1030899519340811
1658789420270348,0.05560387579156156,0.9859159227893493,-0.11017013809414822
1658789420286348,0.05413900968947871,0.9923857480735485,-0.11395437552452892
1658789420302348,0.05499351491569371,0.9882352941176471,-0.11346608682383463
1658789420318328,0.06793316548409223,0.9915312428473335,-0.11212329289692535
1658789420334328,0.0659800106813151,1.0066681925688563,-0.10125886930647754
1658789420350328,0.06353856717784367,0.9915312428473335,-0.10492103456168467
1658789420366328,0.06121919584954583,0.968337529564355,-0.10003814755474183
1658789420382328,0.0642710002288851,0.9929961089494164,-0.10272373540856039
1658789420398327,0.06756694895857152,1.0004425116350042,-0.10821698329137108
1658789420414327,0.059876401922636546,0.9831082627603571,-0.10418860151064324
1658789420430327,0.06146334019989297,0.9770046540016786,-0.11175707637140464
1658789420446327,0.06305027847714939,0.9856717784390021,-0.1068741893644618
1658789420462327,0.06256198977645511,0.98628213931487,-0.10321202410925467
1658789420478326,0.06305027847714939,0.9882352941176471,-0.11139085984588393
1658789420494326,0.06488136110475295,0.9831082627603571,-0.1047989623865111
1658789420510326,0.06781109330891866,0.9850614175631343,-0.10748455024032966
1658789420526326,0.06549172198062081,0.9992217898832685,-0.10174715800717182
1658789420542326,0.05889982452124798,0.9967803463797971,-0.1106584267948425
1658789420558325,0.06317235065232296,0.9886015106431678,-0.11187914854657821
1658789420574325,0.06524757763027367,0.9800564583810178,-0.10260166323338682
1658789420590325,0.0651255054551001,0.9947051194018464,-0.10150301365682468
1658789420606325,0.059754329747462975,1.0000762951094835,-0.10907148851758608
1658789420622325,0.06732280460822437,0.9911650263218128,-0.10833905546654465
1658789420638336,0.06463721675440581,0.9850614175631343,-0.10577553978789966
1658789420654336,0.08111696040283789,1.0150911726558327,-0.09210345616845972
1658789420670335,0.06036469062333083,1.023514152742809,-0.09405661097123685
1658789420686335,0.057190814068817986,0.9870145723659114,-0.09600976577401399
1658789420702335,0.058289463645380124,0.9906767376211185,-0.10113679713130397
1658789420718335,0.05511558709086728,1.0126497291523613,-0.10919356069275965
1658789420734335,0.06305027847714939,1.0034943160143435,-0.09942778667887398
1658789420750334,0.054627298390172996,0.9805447470817121,-0.09869535362783255
1658789420766334,0.05426108186465228,0.9745632104982072,-0.0955214770733197
1658789420782334,0.05938811322194226,0.9865262836652171,-0.10125886930647754
1658789420798334,0.06536964980544724,0.9980010681315328,-0.10003814755474183
1658789420814334,0.0764782177462422,1.0031280994888228,-0.09100480659189758
1658789420830333,0.06170748455024011,0.97602807660029,-0.09381246662088971
1658789420846333,0.060852979324025114,0.9733424887464714,-0.09088273441672401
1658789420862333,0.05548180361638799,0.9883573662928207,-0.09918364232852683
1658789420878333,0.06317235065232296,0.9856717784390021,-0.09613183794918756
1658789420894333,0.06793316548409223,0.9685816739147022,-0.08929579613946759
1658789420910332,0.05169756618600729,0.9733424887464714,-0.092591744869154
1658789420926332,0.06829938200961294,0.9981231403067063,-0.09405661097123685
1658789420942332,0.06561379415579438,0.988845654993515,-0.10162508583199825
1658789420958313,0.06952010376134865,0.9890897993438621,-0.10211337453269254
1658789420974312,0.07232776379034078,0.9882352941176471,-0.1085831998168918
1658789420990312,0.06952010376134865,0.9975127794308385,-0.10846112764171822
1658789421006312,0.0651255054551001,1.0045929655909056,-0.11395437552452892
1658789421022312,0.06744487678339794,0.9850614175631343,-0.10968184939345393
1658789421038312,0.06549172198062081,0.9591821164263372,-0.10968184939345393
1658789421054311,0.07147325856412579,0.9937285420004578,-0.10663004501411466
1658789421070311,0.07244983596551435,1.0142366674296177,-0.10553139543755252
1658789421086311,0.06976424811169579,0.9971465629053178,-0.10040436408026254
1658789421102311,0.07135118638895221,0.975173571374075,-0.09332417792019543
1658789421118311,0.06024261844815726,0.9687037460898758,-0.09320210574502186
1658789421134310,0.05511558709086728,0.9992217898832685,-0.10797283894102394
1658789421150310,0.05816739147020655,1.002517738612955,-0.11090257114518964
1658789421166310,0.06964217593652222,0.9806668192568857,-0.10028229190508897
1658789421182310,0.06842145418478651,0.9748073548485543,-0.08746471351186402
1658789421198310,0.06390478370336439,0.9886015106431678,-0.08856336308842616
1658789421214309,0.050720988784618726,0.9971465629053178,-0.09967193102922112
1658789421230309,0.05999847409781012,0.9948271915770199,-0.09820706492713827
1658789421246309,0.07537956816968006,1.0200961318379491,-0.0993057145037004
1658789421262309,0.06988632028686936,1.0048371099412527,-0.09124895094224472
1658789421278320,0.05877775234607441,0.9839627679865721,-0.0896620126649883
1658789421294320,0.05389486533913157,0.97944609750515,-0.09759670405127041
1658789421310320,0.05865568017090084,0.9895780880445564,-0.10235751888303968
1658789421326319,0.06573586633096795,1.0177767605096513,-0.10296787975890753
1658789421342319,0.06683451590753009,1.0066681925688563,-0.09832913710231184
1658789421358319,0.06024261844815726,0.9624780651560236,-0.09283588921950114
1658789421374319,0.0701304646372165,0.973464560921645,-0.08575570305943403
1658789421390318,0.062439917601281536,1.0139925230792706,-0.08429083695735118
1658789421406318,0.06170748455024011,1.0135042343785763,-0.0875867856870376
1658789421422318,0.05951018539711583,0.9892118715190357,-0.08477912565804546
1658789421438318,0.06659037155718295,0.9690699626153965,-0.07904173342488763
1658789421454318,0.06903181506065437,1.0142366674296177,-0.08551155870908689
1658789421470317,0.05743495841916513,0.9999542229343099,-0.09002822919050901
1658789421486317,0.050598916609445155,0.9679713130388343,-0.09649805447470827
1658789421502317,0.053406576638437286,0.9644312199588008,-0.09161516746776543
1658789421518317,0.05914396887159512,0.9983672846570535,-0.08819714656290545
1658789421534317,0.05999847409781012,1.0005645838101778,-0.09246967269398043
1658789421550316,0.05743495841916513,0.9948271915770199,-0.09002822919050901
1658789421566316,0.06292820630197582,0.973464560921645,-0.09149309529259186
1658789421582316,0.07623407339589505,0.9846952010376135,-0.08636606393530188
1658789421598297,0.06268406195162868,0.9898222323949035,-0.09674219882505541
1658789421614297,0.06451514457923224,1.0052033264667735,-0.09515526054779899
1658789421630296,0.06060883497367797,0.9932402532997635,-0.10235751888303968
1658789421646296,0.06829938200961294,0.9744411383230336,-0.08331425955596261
1658789421662296,0.06695658808270366,0.9824979018844893,-0.08355840390630975
1658789421678296,0.050720988784618726,0.9961699855039292,-0.08636606393530188
1658789421694296,0.0575570305943387,0.9964141298542764,-0.09503318837262542
1658789421710295,0.061097123674372256,1.0031280994888228,-0.10003814755474183
1658789421726295,0.07367055771725006,1.004470893415732,-0.09027237354085615
1658789421742295,0.06952010376134865,1.00337224383917,-0.08319218738078904
1658789421758295,0.059754329747462975,1.0074006256198977,-0.0879530022125583
1658789421774294,0.04962233920805659,0.9790798809796293,-0.0993057145037004
1658789421790294,0.056946669718470844,0.9994659342336156,-0.10711833371480894
1658789421806294,0.0701304646372165,1.0285191119249255,-0.10907148851758608
1658789421822294,0.0613412680247194,0.9926298924238957,-0.09649805447470827
1658789421838294,0.053040360112916574,0.9619897764553293,-0.09222552834363329
1658789421854293,0.055848020141908705,0.9738307774471657,-0.09381246662088971
1658789421870293,0.059754329747462975,1.0176546883344777,-0.0955214770733197
1658789421886293,0.07574578469520077,1.0513466086823833,-0.10150301365682468
1658789421902293,0.07049668116273722,1.0128938735027084,-0.09515526054779899
1658789421918304,0.06610208285648866,0.9623559929808501,-0.0879530022125583
1658789421934304,0.06549172198062081,0.9739528496223393,-0.08221560997940047
1658789421950304,0.07232776379034078,1.029251544975967,-0.08258182650492119
1658789421966303,0.06256198977645511,1.0122835126268406,-0.08697642481116974
1658789421982303,0.06012054627298369,0.9583276112001222,-0.09625391012436113
1658789421998303,0.0672007324330508,0.9973907072556649,-0.09845120927748541
1658789422014303,0.0680552376592658,1.0006866559853513,-0.09234760051880686
1658789422030303,0.07061875333791079,0.9716334782940415,-0.08514534218356618
1658789422046302,0.05780117494468584,0.9738307774471657,-0.08856336308842616
1658789422062302,0.0680552376592658,0.9870145723659114,-0.08807507438773188
1658789422078302,0.06524757763027367,0.9879911497673,-0.08844129091325259
1658789422094302,0.07843137254901933,0.9976348516060121,-0.07037460898756409
1658789422110302,0.06927595941100151,0.9947051194018464,-0.08429083695735118
1658789422126301,0.06903181506065437,0.9826199740596628,-0.0858777752346076
1658789422142301,0.0689097428854808,0.9669947356374458,-0.08612191958495474
1658789422158301,0.07660028992141577,0.9810330357824064,-0.08038452735179691
1658789422174301,0.07232776379034078,0.98970016021973,-0.07794308384832549
1658789422190301,0.06707866025787723,0.9793240253299764,-0.08099488822766476
1658789422206300,0.06610208285648866,0.946730754558633,-0.0896620126649883
1658789422222300,0.07208361943999364,0.9822537575341421,-0.08917372396429402
1658789422238281,0.07306019684138221,1.0170443274586098,-0.08636606393530188
1658789422254281,0.07257190814068792,0.9981231403067063,-0.07586785687037478
1658789422270280,0.0680552376592658,0.9546654459449151,-0.07769893949797835
1658789422286280,0.07159533073929936,0.9597924773022051,-0.07550164034485407
1658789422302280,0.0756237125200272,1.0186312657358663,-0.08563363088426046
1658789422318280,0.06756694895857152,1.0185091935606927,-0.092591744869154
1658789422334280,0.06659037155718295,0.9629663538567179,-0.08636606393530188
1658789422350279,0.06683451590753009,0.9618677042801558,-0.08514534218356618
1658789422366279,0.0689097428854808,1.0128938735027084,-0.0829480430304419
1658789422382279,0.07171740291447293,1.0282749675745784,-0.08111696040283833
1658789422398279,0.06524757763027367,0.980300602731365,-0.08599984740978117
1658789422414279,0.06390478370336439,0.9774929427023729,-0.08453498130769832
1658789422430278,0.06378271152819082,1.0077668421454185,-0.09320210574502186
1658789422446278,0.0739147020675972,1.0391393911650262,-0.092591744869154
1658789422462278,0.0718394750896465,1.0098420691233692,-0.09515526054779899
1658789422478278,0.06842145418478651,0.9739528496223393,-0.092591744869154
1658789422494278,0.058289463645380124,0.9883573662928207,-0.08978408484016187
1658789422510277,0.06353856717784367,1.0157015335317006,-0.09320210574502186
1658789422526277,0.06170748455024011,1.0144808117799649,-0.09027237354085615
1658789422542277,0.05938811322194226,1.0168001831082627,-0.09198138399328615
1658789422558288,0.06121919584954583,1.001052872510872,-0.09112687876707115
1658789422574288,0.07965209430075504,0.985427634088655,-0.0774547951476312
1658789422590288,0.06817730983443937,0.985427634088655,-0.08429083695735118
1658789422606288,0.06781109330891866,0.9875028610666057,-0.09161516746776543
1658789422622287,0.06573586633096795,0.9939726863508049,-0.1001602197299154
1658789422638287,0.07489127946898577,1.0100862134737163,-0.09271381704432757
1658789422654287,0.07110704203860507,0.9959258411535821,-0.08062867170214405
1658789422670287,0.059632257572289404,0.9650415808346686,-0.07977416647592905
1658789422686287,0.05951018539711583,0.9755397878995957,-0.07867551689936692
1658789422702286,0.0726939803158615,1.0141145952544441,-0.08612191958495474
1658789422718286,0.07916380560006075,1.0263218127718012,-0.08844129091325259
1658789422734286,0.07330434119172935,1.0028839551384756,-0.09063859006637687
1658789422750286,0.06939803158617508,0.9713893339436943,-0.08722056916151688
1658789422766286,0.0680552376592658,0.9801785305561914,-0.07879758907454049
1658789422782285,0.07342641336690292,1.0049591821164263,-0.08538948653391332
1658789422798285,0.0739147020675972,0.9787136644541086,-0.08319218738078904
1658789422814285,0.06915388723582794,0.9706569008926529,-0.08453498130769832
1658789422830285,0.07159533073929936,0.9995880064087892,-0.08184939345387976
1658789422846284,0.07171740291447293,1.0213168535896848,-0.08307011520561547
1658789422862284,0.07586785687037434,0.9889677271686885,-0.0800183108262762
1658789422878296,0.0776989394979779,0.9572289616235601,-0.07037460898756409
1658789422894295,0.07733272297245719,0.983718623636225,-0.06854352635996053
1658789422910295,0.06378271152819082,1.0034943160143435,-0.07794308384832549
1658789422926295,0.07220569161516721,0.9943389028763256,-0.08282597085526833
1658789422942295,0.06353856717784367,0.9635767147325858,-0.08270389868009476
1658789422958294,0.0739147020675972,0.9911650263218128,-0.07794308384832549
1658789422974294,0.07037460898756365,1.0083772030212863,-0.07794308384832549
1658789422990294,0.07171740291447293,0.97944609750515,-0.07196154726482051
1658789423006294,0.07306019684138221,0.9583276112001222,-0.06854352635996053
1658789423022294,0.0718394750896465,0.9778591592278936,-0.07061875333791123
1658789423038293,0.06817730983443937,1.0058136873426413,-0.07965209430075548
1658789423054293,0.07037460898756365,0.9923857480735485,-0.08343633173113618
1658789423070293,0.07232776379034078,0.9601586938277258,-0.08233768215457404
1658789423086293,0.07757686732280433,0.9705348287174793,-0.06890974288548124
1658789423102293,0.06463721675440581,1.001052872510872,-0.06646829938200982
1658789423118292,0.062195773250934394,0.9916533150225071,-0.07281605249103551
1658789423134292,0.0634164950026701,0.9886015106431678,-0.08624399176012831
1658789423150292,0.07415884641794435,0.98970016021973,-0.0875867856870376
1658789423166292,0.08404669260700359,0.9961699855039292,-0.07464713511863907
1658789423182292,0.06952010376134865,1.0004425116350042,-0.0829480430304419
1658789423198272,0.06817730983443937,0.9921416037232014,-0.08941786831464116
1658789423214272,0.0726939803158615,0.9901884489204242,-0.08917372396429402
1658789423230272,0.08160524910353217,1.023270008392462,-0.08392462043183047
1658789423246272,0.07403677424277078,1.0137483787289234,-0.08392462043183047
1658789423262272,0.06781109330891866,0.990554665445945,-0.08404669260700404
1658789423278271,0.06561379415579438,0.9901884489204242,-0.094300755321584
1658789423294271,0.07403677424277078,1.0058136873426413,-0.092591744869154
1658789423310271,0.06915388723582794,1.0316929884794384,-0.09332417792019543
1658789423326271,0.07147325856412579,1.0132600900282291,-0.09161516746776543
1658789423342270,0.0689097428854808,0.9739528496223393,-0.08429083695735118
1658789423358270,0.07110704203860507,0.9723659113450829,-0.0736705577172505
1658789423374270,0.0718394750896465,1.004470893415732,-0.07586785687037478
1658789423390270,0.06207370107576082,1.013015945677882,-0.08343633173113618
1658789423406270,0.059876401922636546,0.9860379949645228,-0.0888075074387733
1658789423422269,0.07428091859311792,1.0067902647440299,-0.08429083695735118
1658789423438269,0.07623407339589505,1.0110627908751049,-0.07818722819867263
1658789423454269,0.07257190814068792,0.9800564583810178,-0.06598001068131554
1658789423470269,0.05951018539711583,0.9781033035782407,-0.07342641336690336
1658789423486269,0.06536964980544724,0.9741969939726864,-0.07525749599450693
1658789423502268,0.06695658808270366,0.9992217898832685,-0.08355840390630975
1658789423518280,0.07244983596551435,1.0041046768902113,-0.08087281605249119
1658789423534279,0.06903181506065437,0.980300602731365,-0.0762340733958955
1658789423550279,0.07232776379034078,0.9857938506141757,-0.06964217593652267
1658789423566279,0.0701304646372165,0.9980010681315328,-0.06475928892957983
1658789423582279,0.07489127946898577,0.9895780880445564,-0.06732280460822482
1658789423598279,0.06903181506065437,0.9776150148775464,-0.07440299076829193
1658789423614278,0.06988632028686936,0.9790798809796293,-0.07464713511863907
1658789423630278,0.07342641336690292,1.0045929655909056,-0.06927595941100195
1658789423646278,0.06207370107576082,0.9956816968032349,-0.06903181506065481
1658789423662278,0.0680552376592658,0.9851834897383078,-0.07635614557106907
1658789423678278,0.07318226901655578,0.9773708705271993,-0.0733043411917298
1658789423694277,0.07232776379034078,0.9835965514610514,-0.06549172198062125
1658789423710277,0.06939803158617508,1.0120393682764934,-0.07415884641794479
1658789423726277,0.06695658808270366,1.007034409094377,-0.07013046463721695
1658789423742277,0.06463721675440581,0.9677271686884872,-0.0715953307392998
1658789423758277,0.07415884641794435,0.9816433966582743,-0.060852979324025114
1658789423774276,0.0680552376592658,1.0094758525978484,-0.07696650644693692
1658789423790276,0.06488136110475295,0.9992217898832685,-0.07940794995040834
1658789423806276,0.06585793850614152,0.9884794384679942,-0.07867551689936692
1658789423822276,0.06927595941100151,1.0022735942626078,-0.07891966124971406
1658789423838256,0.07232776379034078,1.0072785534447242,-0.07501335164415979
1658789423854256,0.06353856717784367,0.9776150148775464,-0.07013046463721695
1658789423870256,0.062317845426107965,0.9719996948195622,-0.0745250629434655
1658789423886256,0.0663462272068358,1.0005645838101778,-0.0800183108262762
1658789423902256,0.07403677424277078,1.0332799267566948,-0.08184939345387976
1658789423918255,0.07049668116273722,1.0058136873426413,-0.08563363088426046
1658789423934255,0.06439307240405867,0.9547875181200887,-0.07855344472419334
1658789423950255,0.06073090714885154,0.9763942931258107,-0.07183947508964694
1658789423966255,0.0642710002288851,1.0313267719539176,-0.07037460898756409
1658789423982255,0.07025253681239008,1.0059357595178149,-0.0733043411917298
1658789423998254,0.06695658808270366,0.9875028610666057,-0.07672236209658978
1658789424014254,0.06732280460822437,0.9832303349355307,-0.08709849698634331
1658789424030254,0.07574578469520077,0.9936064698252842,-0.07769893949797835
1658789424046254,0.055848020141908705,0.9972686350804914,-0.07574578469520121
1658789424062254,0.06378271152819082,0.9818875410086214,-0.0695201037613491
1658789424078253,0.06402685587853796,0.9846952010376135,-0.07574578469520121
1658789424094253,0.0709849698634315,1.0099641412985427,-0.07818722819867263
1658789424110253,0.06842145418478651,1.0026398107881285,-0.07708857862211049
1658789424126253,0.06402685587853796,0.9962920576791028,-0.0791638056000612
1658789424142253,0.06390478370336439,0.9829861905851836,-0.07550164034485407
1658789424158264,0.06500343327992653,0.9882352941176471,-0.07806515602349906
1658789424174264,0.07244983596551435,1.0020294499122606,-0.07293812466620908
1658789424190263,0.0718394750896465,0.9904325932707714,-0.06988632028686981
1658789424206263,0.06256198977645511,0.9835965514610514,-0.07586785687037478
1658789424222263,0.05816739147020655,0.988845654993515,-0.07196154726482051
1658789424238263,0.07196154726482007,0.9992217898832685,-0.07855344472419334
1658789424254263,0.07037460898756365,1.0128938735027084,-0.07598992904554835
1658789424270262,0.07025253681239008,0.9945830472266728,-0.07013046463721695
1658789424286262,0.0634164950026701,0.98115510795758,-0.07269398031586194
1658789424302262,0.06146334019989297,0.9774929427023729,-0.06341649500267055
1658789424318262,0.062195773250934394,0.9809109636072328,-0.07037460898756409
1658789424334262,0.06463721675440581,1.0015411612115663,-0.0858777752346076
1658789424350261,0.0651255054551001,1.004226749065385,-0.08770885786221116
1658789424366261,0.07232776379034078,0.9936064698252842,-0.0736705577172505
1658789424382261,0.0642710002288851,1.0060578316929885,-0.06683451590753053
1658789424398261,0.07293812466620864,0.9966582742046235,-0.06390478370336483
1658789424414260,0.062195773250934394,0.9856717784390021,-0.07904173342488763
1658789424430260,0.06353856717784367,0.988845654993515,-0.07867551689936692
1658789424446260,0.06012054627298369,1.0021515220874342,-0.08416876478217761
1658789424462260,0.06781109330891866,0.9989776455329213,-0.08221560997940047
1658789424478241,0.06988632028686936,0.9937285420004578,-0.0812390325780119
1658789424494240,0.07049668116273722,0.9806668192568857,-0.07843137254901977
1658789424510240,0.06146334019989297,0.9931181811245899,-0.07098496986343195
1658789424526240,0.06195162890058725,0.9857938506141757,-0.07098496986343195
1658789424542240,0.06549172198062081,0.976882581826505,-0.07037460898756409
1658789424558240,0.06683451590753009,0.9966582742046235,-0.06842145418478696
1658789424574239,0.06353856717784367,0.9993438620584421,-0.07415884641794479
1658789424590239,0.06524757763027367,0.9989776455329213,-0.07440299076829193
1658789424606239,0.06964217593652222,0.9939726863508049,-0.08392462043183047
1658789424622239,0.0747692072938122,0.9986114290074006,-0.07843137254901977
1658789424638239,0.07110704203860507,1.004226749065385,-0.07574578469520121
1658789424654238,0.06781109330891866,0.98115510795758,-0.06817730983443981
1658789424670238,0.062195773250934394,0.9755397878995957,-0.07147325856412623
1658789424686238,0.06353856717784367,0.9873807888914321,-0.07684443427176335
1658789424702238,0.06353856717784367,1.0052033264667735,-0.07708857862211049
1658789424718238,0.07110704203860507,1.0158236057068741,-0.0800183108262762
1658789424734237,0.0701304646372165,1.0000762951094835,-0.07379262989242408
1658789424750237,0.06378271152819082,0.9817654688334478,-0.07574578469520121
1658789424766237,0.06952010376134865,0.9904325932707714,-0.06903181506065481
1658789424782237,0.06268406195162868,0.9981231403067063,-0.06964217593652267
1658789424798248,0.06683451590753009,1.00166323338674,-0.07464713511863907
1658789424814248,0.06500343327992653,0.9932402532997635,-0.08160524910353262
1658789424830248,0.06695658808270366,0.985427634088655,-0.08038452735179691
1658789424846247,0.07025253681239008,1.0088654917219806,-0.07220569161516766
1658789424862247,0.06561379415579438,1.0037384603646906,-0.0762340733958955
1658789424878247,0.0689097428854808,0.9855497062638285,-0.06549172198062125
1658789424894247,0.06268406195162868,0.9798123140306707,-0.07550164034485407
1658789424910246,0.06561379415579438,0.9929961089494164,-0.07000839246204338
1658789424926246,0.0651255054551001,1.0020294499122606,-0.07867551689936692
1658789424942246,0.0663462272068358,1.0000762951094835,-0.0791638056000612
1658789424958246,0.06475928892957938,0.9850614175631343,-0.08331425955596261
1658789424974246,0.07379262989242363,0.9912870984969864,-0.07391470206759765
1658789424990245,0.06390478370336439,1.0015411612115663,-0.0715953307392998
1658789425006245,0.06268406195162868,0.9909208819714657,-0.06915388723582838
1658789425022245,0.06207370107576082,0.975173571374075,-0.07904173342488763
1658789425038245,0.05951018539711583,0.9656519417105365,-0.0829480430304419
1658789425054245,0.062195773250934394,1.0004425116350042,-0.08343633173113618
1658789425070244,0.0663462272068358,0.9984893568322271,-0.06756694895857196
1658789425086244,0.0680552376592658,0.9699244678416115,-0.06170748455024011
1658789425102244,0.08258182650492074,0.9986114290074006,-0.051819638361180864
1658789425118255,0.07306019684138221,1.011306935225452,-0.062439917601281536
1658789425134255,0.07830930037384576,1.0208285648889905,-0.06890974288548124
1658789425150255,0.07110704203860507,1.004470893415732,-0.0762340733958955
1658789425166255,0.06927595941100151,0.9901884489204242,-0.06988632028686981
1658789425182254,0.06170748455024011,0.9993438620584421,-0.07232776379034123
1658789425198254,0.0680552376592658,0.9895780880445564,-0.0753795681696805
1658789425214254,0.0709849698634315,0.9798123140306707,-0.07708857862211049
1658789425230254,0.07074082551308436,0.9864042114900435,-0.08319218738078904
1658789425246254,0.06756694895857152,1.0105745021744106,-0.08087281605249119
1658789425262253,0.05816739147020655,1.0094758525978484,-0.08014038300144977
1658789425278253,0.07318226901655578,0.9937285420004578,-0.0733043411917298
1658789425294253,0.07660028992141577,0.9881132219424735,-0.0678110933089191
1658789425310253,0.06768902113374509,0.9892118715190357,-0.06598001068131554
1658789425326253,0.06683451590753009,1.006179903868162,-0.07598992904554835
1658789425342252,0.06878767071030722,0.9949492637521935,-0.07647821774624264
1658789425358252,0.07061875333791079,0.9749294270237279,-0.07647821774624264
1658789425374252,0.07037460898756365,0.9890897993438621,-0.06793316548409267
1658789425390252,0.06402685587853796,1.0026398107881285,-0.07232776379034123
1658789425406252,0.06585793850614152,0.9883573662928207,-0.06878767071030767
1658789425422251,0.06829938200961294,0.9668726634622722,-0.06646829938200982
1658789425438232,0.07086289768825793,0.9732204165712979,-0.06256198977645555
1658789425454232,0.06500343327992653,0.9997100785839628,-0.0774547951476312
1658789425470232,0.06829938200961294,1.0148470283054856,-0.08075074387731762
1658789425486231,0.07061875333791079,0.9851834897383078,-0.07769893949797835
1658789425502231,0.07611200122072148,0.9790798809796293,-0.07293812466620908
1658789425518231,0.06756694895857152,0.9892118715190357,-0.06903181506065481
1658789425534231,0.062195773250934394,0.9960479133287556,-0.07013046463721695
1658789425550231,0.06829938200961294,0.9848172732127871,-0.07586785687037478
1658789425566230,0.07586785687037434,1.002761882963302,-0.07598992904554835
1658789425582230,0.07330434119172935,1.0028839551384756,-0.07684443427176335
1658789425598230,0.06439307240405867,0.9904325932707714,-0.07428091859311836
1658789425614230,0.06353856717784367,0.9977569237811856,-0.0753795681696805
1658789425630230,0.06817730983443937,0.9973907072556649,-0.07794308384832549
1658789425646229,0.07672236209658934,1.0086213473716334,-0.06915388723582838
1658789425662229,0.05999847409781012,1.0108186465247577,-0.07318226901655622
1658789425678229,0.059632257572289404,1.0014190890363928,-0.07122911421377909
1658789425694229,0.06060883497367797,0.9856717784390021,-0.0745250629434655
1658789425710229,0.07244983596551435,0.9972686350804914,-0.07525749599450693
1658789425726228,0.06976424811169579,1.013870450904097,-0.07660028992141621
1658789425742228,0.06317235065232296,0.9995880064087892,-0.08062867170214405
1658789425758239,0.06158541237506654,0.9763942931258107,-0.07562371252002764
1658789425774239,0.06817730983443937,0.9812771801327536,-0.0733043411917298
1658789425790239,0.06683451590753009,0.9983672846570535,-0.06585793850614197
1658789425806239,0.06268406195162868,1.0065461203936827,-0.06878767071030767
1658789425822239,0.06036469062333083,0.9939726863508049,-0.0715953307392998
1658789425838238,0.07122911421377864,0.9853055619134814,-0.07354848554207694
1658789425854238,0.0689097428854808,1.0086213473716334,-0.07208361943999408
1658789425870238,0.06573586633096795,0.9954375524528878,-0.07342641336690336
1658789425886238,0.06207370107576082,0.9746852826733807,-0.06756694895857196
1658789425902238,0.06536964980544724,0.9824979018844893,-0.06512550545510054
1658789425918237,0.07122911421377864,0.9907988097962921,-0.07428091859311836
1658789425934237,0.06683451590753009,0.9779812314030671,-0.0800183108262762
1658789425950237,0.06329442282749653,0.9846952010376135,-0.07562371252002764
1658789425966237,0.06414892805371153,1.013870450904097,-0.08245975432974761
1658789425982236,0.07537956816968006,1.0009308003356985,-0.06427100022888554
1658789425998236,0.0642710002288851,0.96748302433814,-0.06414892805371197
1658789426014236,0.06793316548409223,0.9823758297093157,-0.0648813611047534
1658789426030236,0.0663462272068358,0.9955596246280614,-0.0820935378042269
1658789426046236,0.07501335164415934,1.0030060273136492,-0.07794308384832549
1658789426062235,0.06842145418478651,0.9829861905851836,-0.07891966124971406
1658789426078216,0.06121919584954583,0.9870145723659114,-0.07257190814068837
1658789426094216,0.06305027847714939,0.9927519645990692,-0.07574578469520121
1658789426110216,0.0634164950026701,0.9920195315480278,-0.07598992904554835
1658789426126216,0.07061875333791079,0.988845654993515,-0.07440299076829193
1658789426142215,0.07232776379034078,1.0054474708171206,-0.07110704203860552
1658789426158215,0.0651255054551001,1.0157015335317006,-0.07843137254901977
1658789426174215,0.06610208285648866,0.9921416037232014,-0.08661020828564903
1658789426190215,0.0718394750896465,0.9940947585259785,-0.07318226901655622
1658789426206215,0.06366063935301725,1.0290074006256198,-0.07769893949797835
1658789426222214,0.06390478370336439,1.0208285648889905,-0.0820935378042269
1658789426238214,0.06475928892957938,0.9990997177080949,-0.07525749599450693
1658789426254214,0.0701304646372165,1.0102082856488899,-0.07061875333791123
1658789426270214,0.07440299076829149,1.0519569695582511,-0.07403677424277122
1658789426286213,0.0701304646372165,1.0586709391927975,-0.07061875333791123
1658789426302213,0.07367055771725006,1.0149691004806591,-0.07611200122072193
1658789426318213,0.08001831082627575,1.024979018844892,-0.07464713511863907
1658789426334213,0.08209353780422646,1.0373083085374226,-0.08038452735179691
1658789426350213,0.07501335164415934,1.0418249790188447,-0.0820935378042269
1658789426366212,0.06976424811169579,1.0349889372091248,-0.08307011520561547
1658789426382212,0.08575570305943359,1.0355992980849926,-0.0762340733958955
1658789426398224,0.0986953536278321,1.0637979705500875,-0.06903181506065481
1658789426414223,0.09124895094224428,1.0718547341115432,-0.07183947508964694
1658789426430223,0.09442282749675712,1.0340123598077362,-0.07440299076829193
1658789426446223,0.09039444571602928,1.0160677500572213,-0.07635614557106907
1658789426462223,0.09759670405126997,1.0410925459678033,-0.06988632028686981
1658789426478222,0.10223544670786566,1.0578164339665825,-0.07403677424277122
1658789426494222,0.10455481803616351,1.0493934538796061,-0.0762340733958955
1658789426510222,0.10553139543755208,1.0060578316929885,-0.08050659952697048
1658789426526222,0.12262149996185201,1.0023956664377813,-0.07342641336690336
1658789426542222,0.12335393301289344,1.0445105668726633,-0.06939803158617552
1658789426558221,0.13165484092469715,1.028397039749752,-0.05889982452124798
1658789426574221,0.12909132524605216,1.0059357595178149,-0.059876401922636546
1658789426590221,0.1372701609826814,0.99140917067216,-0.06549172198062125
1658789426606221,0.15216296635385707,1.0094758525978484,-0.057312886243991557
1658789426622221,0.14679179064621994,1.029251544975967,-0.062317845426107965
1658789426638220,0.1575341420614942,1.0088654917219806,-0.048035400930800165
1658789426654220,0.1616845960173956,0.96748302433814,-0.04058899824521234
1658789426670220,0.1780422674906541,0.9757839322499429,-0.044007019150072324
1658789426686220,0.18036163881895195,1.020706492713817,-0.04754711223010588
1658789426702220,0.1797512779430841,1.0492713817044326,-0.05230792706187515
1658789426718200,0.1826810101472498,1.0058136873426413,-0.04974441138323016
1658789426734200,0.20416571297779829,0.9583276112001222,-0.04107728694590662
1658789426750200,0.2179598687724118,1.0210727092393377,-0.03668268863965807
1658789426766200,0.2091706721599147,1.0338902876325626,-0.05255207141222229
1658789426782199,0.2091706721599147,0.9831082627603571,-0.05682459754329727
1658789426798199,0.2129549095902954,0.938185702296483,-0.046692607003890885
1658789426814199,0.23334096284428174,0.9710231174181736,-0.03399710078583951
1658789426830199,0.23956664377813386,1.0507362478065154,-0.039002059967955915
1658789426846199,0.24603646906233312,1.0279087510490577,-0.027038986800945963
1658789426862198,0.24982070649271382,0.9669947356374458,-0.023010605020218122
1658789426878198,0.2645914396887159,0.9589379720759901,-0.015320057984283153
1658789426894198,0.2855878538185701,1.010452429999237,-0.015930418860151008
1658789426910198,0.27997253376058584,1.0106965743495842,-0.016662851911192433
1658789426926198,0.2800946059357594,0.9525902189669644,-0.009948882276646032
1658789426942197,0.27948424505989156,0.9361104753185323,-0.009094377050431035
1658789426958197,0.2993820096131836,0.9894560158693828,-0.0037232013427939137
1658789426974197,0.31122301060502,1.0098420691233692,-0.002868696116578917
1658789426990197,0.31024643320363143,0.976882581826505,0.007019150072480329
1658789427006197,0.3081712062256807,0.9680933852140079,0.012878614480811734
1658789427022196,0.3351491569390399,0.987136644541085,0.01239032578011745
1658789427038208,0.35223926146333984,1.0233920805676355,0.0036011291676203427
1658789427054207,0.3554131380178527,0.9748073548485543,0.005676356145571049
1658789427070207,0.34345006485084273,0.911451895933471,0.0023804074158846333
1658789427086207,0.3645685511558705,0.9447775997558558,0.0015259021896696368
1658789427102207,0.3709163042648962,1.024368657969024,-0.008117799649042468
1658789427118207,0.38397802700846917,1.0204623483634698,0.005432211795223907
1658789427134206,0.386297398336767,0.9396505683985659,0.016540779736018862
1658789427150206,0.40009155413138053,0.9221942473487452,0.03204394598306237
1658789427166206,0.4253604943923097,0.9712672617685207,0.03302052338445094
1658789427182206,0.43439383535515397,1.0030060273136492,0.040344853894865196
1658789427198206,0.44879835202563534,0.9868925001907378,0.062317845426107965
1658789427214205,0.4540474555580989,0.9409933623254751,0.05523765926604085
1658789427230205,0.46308079652094314,0.9271992065308616,0.06414892805371153
1658789427246205,0.47992675669489593,0.937331197070268,0.06756694895857152
1658789427262205,0.4935988403143359,0.919996948195621,0.06866559853513365
1658789427278205,0.4816357671473259,0.8739757381551838,0.0689097428854808
1658789427294204,0.48493171587701234,0.8223392080567633,0.05035477225909801
1658789427310204,0.5036087586785687,0.8056153200579841,0.07818722819867219
1658789427326204,0.48993667505912875,0.8546883344777596,0.08307011520561502
1658789427342204,0.5078812848096437,0.8566414892805367,0.07684443427176291
1658789427358215,0.5241168841077286,0.7543450064850843,0.06573586633096795
1658789427374215,0.5766079194323641,0.7174792095826659,0.11981383993285988
1658789427390215,0.5842984664682991,0.8568856336308839,0.14508278019378995
1658789427406214,0.5867399099717705,0.883863584344244,0.12372014953841415
1658789427422214,0.6018768596932933,0.7414053559166858,0.13336385137712714
1658789427438214,0.6240939955748832,0.7176012817578394,0.1520408941786835
1658789427454214,0.6221408407721061,0.7630121309224078,0.15179674982833635
1658789427470214,0.6343480582894641,0.7904783703364613,0.14203097581445068
1658789427486213,0.642038605325399,0.6663309681849396,0.12481879911497629
1658789427502213,0.6643778133821625,0.6349584191653319,0.1579003585870149
1658789427518213,0.6693827725642789,0.7276112001220723,0.15887693598840347
1658789427534213,0.6491187914854661,0.6963607232776381,0.14703593499656709
1658789427550212,0.6389868009460598,0.5827115281910427,0.14422827496757495
1658789427566212,0.6513160906385904,0.576363775082017,0.16974135957885128
1658789427582212,0.6990463111314567,0.7150377660791944,0.1780422674906541
1658789427598212,0.7324940871290151,0.7523918516823072,0.17108415350576056
1658789427614212,0.7396963454642558,0.650583657587549,0.17291523613336413
1658789427630211,0.7340810254062715,0.5266803997863736,0.21136797131303897
1658789427646211,0.7554436560616464,0.6071259632257568,0.23468375677119102
1658789427662211,0.7526359960326543,0.6725566491187918,0.2258945601586939
1658789427678192,0.7700923170824749,0.6154268711375597,0.19940489814602902
1658789427694192,0.7721675440604256,0.5087357900358587,0.20025940337224402
1658789427710191,0.74189364461738,0.4850537880521859,0.1948882276646069
1658789427726191,0.7553215838864729,0.5620813305867092,0.23163195239185175
1658789427742191,0.7396963454642558,0.5972381170366976,0.21454184786755182
1658789427758191,0.7608148317692836,0.45343709468223103,0.2121004043640804
1658789427774191,0.7728999771114671,0.35431448844129054,0.23920042725261315
1658789427790190,0.7829098954756999,0.4325627527275504,0.2714274814984359
1658789427806190,0.7949950408178834,0.5935759517814905,0.2814373998626687
1658789427822190,0.8177004654001676,0.6315403982604719,0.240665293354696
1658789427838190,0.8465094987411304,0.4320744640268561,0.25055313954375524
1658789427854189,0.8540779736018917,0.3384451056687263,0.2877851529716944
1658789427870189,0.8450446326390475,0.4473334859235525,0.31976806286716997
1658789427886189,0.7954833295185777,0.45209430075532175,0.30096894789044004
1658789427902189,0.8092774853131912,0.4060730907148855,0.27997253376058584
1658789427918189,0.8332036316472111,0.37640955214770777,0.2573891813534752
1658789427934188,0.8510261692225525,0.349065384908827,0.2623941405355916
1658789427950188,0.8551766231784539,0.39459830624856984,0.2822919050888837
1658789427966188,0.8125734340428776,0.37116044861524333,0.28461127641718154
1658789427982188,0.8302738994430454,0.29034866865033937,0.3045090409704736
1658789427998199,0.8484626535439075,0.2764324406805523,0.3201342793926907
1658789428014199,0.8668955519951167,0.3795834287022206,0.31219958800640857
1658789428030199,0.8772716868848711,0.3729915312428469,0.3041428244449529
1658789428046198,0.8780041199359125,0.2637369344625009,0.306950484473945
1658789428062198,0.8786144808117804,0.22284275577935464,0.3377126726176849
1658789428078198,0.8640878919661246,0.2855878538185701,0.3578545815213241
1658789428094198,0.8701915007248031,0.36066224155031623,0.3380788891432056
1658789428110198,0.8963149462119482,0.2747234302281223,0.3247730220492864
1658789428126197,0.9090104524299996,0.168398565651942,0.32819104295414636
1658789428142197,0.8883802548256661,0.18451209277485336,0.3511406118867777
1658789428158197,0.8516365300984203,0.2499427786678874,0.33575951781490776
1658789428174197,0.8686045624475467,0.24676890211337454,0.3234302281223771
1658789428190197,0.8916762035553525,0.19916075379568188,0.31219958800640857
1658789428206196,0.9136491950865953,0.16766613260090057,0.34332799267566916
1658789428222196,0.9068131532768753,0.21783779659723823,0.3457694361791406
1658789428238196,0.9031509880216682,0.2016021972991533,0.3406424048218506
1658789428254196,0.9179217212176702,0.11981383993285988,0.34454871442740487
1658789428270196,0.9196307316701002,0.07489127946898577,0.34332799267566916
1658789428286195,0.9329365987640195,0.21026932173647683,0.34076447699702417
1658789428302195,0.9132829785610745,0.23004501411459533,0.32733653772793136
1658789428318176,0.915724422064546,0.13739223315785498,0.35223926146333984
1658789428334176,0.902052338445106,0.041565575646600905,0.35797665369649767
1658789428350175,0.8848401617456325,0.0499885557335773,0.3729915312428469
1658789428366175,0.8964370183871218,0.12408636606393486,0.35260547798886055
1658789428382175,0.9113298237582974,0.08587777523460716,0.3297779812314028
1658789428398175,0.9269550621805145,0.07464713511863863,0.3241626611734185
1658789428414175,0.9096208133058674,0.051941710536354435,0.35980773632410123
1658789428430174,0.8856946669718475,0.0806286717021436,0.39032578011749486
1658789428446174,0.8789806973373011,0.04461738002594018,0.3830014496070806
1658789428462174,0.9268329900053409,0.023743038071259548,0.3816586556801713
1658789428478174,0.941603723201343,0.01886015106431671,0.37494468604562403
1658789428494174,0.9312275883115895,0.024963759822995257,0.3591973754482334
1658789428510173,0.9173113603418024,0.022034027618829555,0.3808041504539563
1658789428526173,0.9141374837872895,0.033752956435492365,0.39716182192721483
1658789428542173,0.9075455863279167,-0.023132677195391693,0.3950865949492641
1658789428558173,0.9344014648661023,-0.01617456321049815,0.38446631570916345
1658789428574173,0.9246356908522166,-0.011291676203555312,0.3683527885862512
1658789428590172,0.9115739681086446,-0.03070115205615309,0.38031586175326204
1658789428606172,0.8944838635843446,-0.03204394598306237,0.3960631723506527
1658789428622172,0.875318532082094,-0.004943923094529623,0.4015564202334634
1658789428638183,0.8653086137178603,-0.03045700770580595,0.38739604791332916
1658789428654183,0.8999771114671553,-0.0993057145037004,0.38617532616159345
1658789428670183,0.9374532692454416,-0.07672236209658978,0.4079041733424891
1658789428686183,0.9409933623254751,-0.007629510948348184,0.38654154268711416
1658789428702182,0.9085221637293053,-0.03204394598306237,0.38580910963607273
1658789428718182,0.8820325017166404,-0.05767910276951227,0.40631723506523265
1658789428734182,0.8909437705043111,-0.0567025253681237,0.43158617532616184
1658789428750182,0.9018081940947589,-0.042786297398336615,0.43622491798275753
1658789428766182,0.914015411612116,-0.0829480430304419,0.4396429388876175
1658789428782181,0.9247577630273902,-0.08136110475318548,0.424994277866789
1658789428798181,0.9214618142977038,-0.07586785687037478,0.42279697871366473
1658789428814181,0.9240253299763488,-0.06451514457923269,0.4409857328145268
1658789428830181,0.9064469367513546,-0.054505226214999425,0.4459906919966432
1658789428846181,0.8894789044022282,-0.08783093003738474,0.4203555352101933
1658789428862180,0.8950942244602125,-0.10528725108720538,0.4043640802624555
1658789428878180,0.8938735027084768,-0.11395437552452892,0.41596093690394476
1658789428894180,0.8900892652780961,-0.09234760051880686,0.4242618448157476
1658789428910180,0.8657969024185546,-0.13556115053025097,0.42682536049439257
1658789428926180,0.8714122224765388,-0.15204089417868305,0.42523842221713615
1658789428942179,0.8896009765774018,-0.11895933470664533,0.4144960708018619
1658789428958160,0.9092545967803467,-0.12018005645838103,0.4175478751812012
1658789428974160,0.9086442359044788,-0.12555123216601816,0.42951094834821113
1658789428990160,0.8950942244602125,-0.164003967345693,0.44415960936903964
1658789429006159,0.8856946669718475,-0.15960936903944445,0.4603952086671246
1658789429022159,0.895216296635386,-0.1531395437552452,0.4539253833829253
1658789429038159,0.9016861219195853,-0.19562066071564832,0.44037537193865894
1658789429054159,0.8970473792629896,-0.19842832074464045,0.4406195162890061
1658789429070159,0.8743419546807045,-0.1787747005416951,0.43488212405584825
1658789429086158,0.8709239337758445,-0.15045395590142663,0.4464789806973375
1658789429102158,0.8788586251621275,-0.18097199969481936,0.4464789806973375
1658789429118158,0.8791027695124747,-0.23334096284428174,0.44745555809872606
1658789429134158,0.8798352025635161,-0.21271076523994825,0.4511177233539332
1658789429150158,0.8784924086366068,-0.1846341649500265,0.4282902265964754
1658789429166157,0.8905775539787903,-0.21576256961928753,0.4346379797055011
1658789429182157,0.8946059357595182,-0.2153963530937668,0.4509956511787596
1658789429198157,0.8861829556725418,-0.20526436255436042,0.45050736247806533
1658789429214157,0.877027542534524,-0.23443961242084388,0.4497749294270239
1658789429230157,0.8760509651331354,-0.22101167315175108,0.44196231021591537
1658789429246156,0.8784924086366068,-0.1957427328908219,0.4212100404364083
1658789429262156,0.8944838635843446,-0.20209048599984758,0.4330510414282447
1658789429278167,0.8834973678187232,-0.19378957808804476,0.44623483634699035
1658789429294167,0.8720225833524067,-0.20758373388265827,0.45465781643396674
1658789429310167,0.8709239337758445,-0.19720759899290474,0.45209430075532175
1658789429326167,0.880445563439384,-0.21026932173647683,0.4375677119096668
1658789429342167,0.8900892652780961,-0.21075761043717112,0.44330510414282465
1658789429358166,0.8806897077897311,-0.203677424277104,0.4384222171358818
1658789429374166,0.8660410467689017,-0.1961089494163426,0.4401312275883118
1658789429390166,0.8659189745937281,-0.20025940337224402,0.4347600518806747
1658789429406166,0.8786144808117804,-0.19122606240939977,0.42816815442130185
1658789429422165,0.8869153887235832,-0.19806210421911974,0.4289005874723433
1658789429438165,0.8937514305333032,-0.18268101014724936,0.4425726710917832
1658789429454165,0.8982681010147253,-0.17010757610437155,0.4536812390325782
1658789429470165,0.8915541313801789,-0.1636377508201723,0.44403753719386607
1658789429486165,0.8972915236133368,-0.16546883344777585,0.4380560006103611
1658789429502164,0.9052262149996189,-0.15399404898146019,0.4356145571068897
1658789429518164,0.908033875028611,-0.12542915999084459,0.4404974441138325
1658789429534164,0.8897230487525754,-0.15790035858701446,0.4330510414282447
1658789429550164,0.8784924086366068,-0.15277332722972448,0.41937895780880474
1658789429566164,0.8731212329289688,-0.09283588921950114,0.3998474097810334
1658789429582163,0.8880140383001454,-0.08258182650492119,0.385442893110552
1658789429598175,0.9058365758754867,-0.12335393301289388,0.4057068741893648
1658789429614174,0.9069352254520489,-0.1266498817425803,0.41681544213015975
1658789429630174,0.8839856565194175,-0.06964217593652267,0.4137636377508205
1658789429646174,0.8894789044022282,-0.05230792706187515,0.40839246204318336
1658789429662174,0.9047379262989246,-0.03460746166170736,0.4136415655756469
1658789429678174,0.9323262378881516,-0.022278171969176697,0.41388570992599405
1658789429694173,0.9444113832303351,-0.03155565728236809,0.43024338139925256
1658789429710173,0.9301289387350273,-0.05816739147020655,0.424139772640574
1658789429726173,0.9301289387350273,-0.10040436408026254,0.42389562829022687
1658789429742173,0.9340352483405816,-0.07843137254901977,0.4317082475013354
1658789429758173,0.9130388342107274,-0.06463721675440626,0.4144960708018619
1658789429774172,0.9031509880216682,-0.06439307240405912,0.39337758449683413
1658789429790172,0.8927748531319146,-0.06121919584954583,0.3787289234760056
1658789429806172,0.8998550392919817,-0.04498359655146089,0.3805600061036092
1658789429822172,0.9187762264438852,-0.03851377126726163,0.393133440146487
1658789429838172,0.9102311741817353,-0.05413900968947871,0.3980163271534298
1658789429854171,0.9064469367513546,-0.07037460898756409,0.4091248950942248
1658789429870171,0.9057145037003131,-0.0462043183031966,0.4090028229190512
1658789429886171,0.9125505455100331,-0.036316472114137355,0.3892271305409327
1658789429902171,0.9311055161364159,-0.054505226214999425,0.39533073929961127
1658789429918151,0.9239032578011752,-0.06854352635996053,0.40253299763485195
1658789429934151,0.9176775768673231,-0.02923628595407024,0.4041199359121084
1658789429950151,0.9136491950865953,0.01373311970702673,0.3859311818112463
1658789429966151,0.9197528038452738,-0.013244831006332447,0.37640955214770777
1658789429982151,0.9387960631723509,-0.061097123674372256,0.3787289234760056
1658789429998150,0.9124284733348595,-0.08307011520561547,0.37653162432288134
1658789430014150,0.902052338445106,0.015686274509803866,0.38068207827878275
1658789430030150,0.8816662851911197,0.03924620431830306,0.352483405813687
1658789430046150,0.902052338445106,-0.018005645838101714,0.3510185397116041
1658789430062150,0.9290302891584652,-0.020569161516746703,0.3602960250247955
1658789430078149,0.9204852368963152,-0.016784924086366004,0.3666437781338212
1658789430094149,0.9201190203707945,0.03338673990997165,0.3729915312428469
1658789430110149,0.9113298237582974,0.037781338216220206,0.36054016937514266
1658789430126149,0.9235370412756545,0.022278171969176697,0.36395819028000265
1658789430142149,0.9329365987640195,0.03314259555962451,0.35675593194476196
1658789430158148,0.9158464942397195,0.011291676203555312,0.3640802624551762
1658789430174148,0.9143816281376367,0.08746471351186358,0.3674982833600362
1658789430190148,0.8947280079346918,0.10577553978789922,0.35468070496681126
1658789430206148,0.9093766689555203,0.057312886243991557,0.35809872587167124
1658789430222148,0.9219501029983981,0.014465552758068156,0.35297169451438126
1658789430238159,0.9108415350576031,0.05889982452124798,0.35931944762340695
1658789430254159,0.9000991836423289,0.13580529488059856,0.36066224155031623
1658789430270158,0.8874036774242775,0.13641565575646641,0.3511406118867777
1658789430286158,0.9048599984740981,0.08087281605249075,0.3432059205004956
1658789430302158,0.9059586480506603,0.05804531929503298,0.3339284351873042
1658789430318158,0.8957045853360803,0.09539940489814569,0.35175097276264555
1658789430334158,0.883009079118029,0.20892652780956755,0.3497978179598684
1658789430350157,0.8739757381551838,0.19977111467154973,0.33746852826733775
1658789430366157,0.897779812314031,0.13922331578545855,0.3297779812314028
1658789430382157,0.9010757610437174,0.11493095292591704,0.3272144655527578
1658789430398157,0.8982681010147253,0.1696192874036777,0.34845502403295914
1658789430414157,0.8834973678187232,0.23273060196841389,0.33795681696803204
1658789430430156,0.8688487067978938,0.2583657587548638,0.31134508278019357
1658789430446156,0.8760509651331354,0.20563057907988114,0.3070725566491186
1658789430462156,0.8650644693675131,0.1797512779430841,0.3053635461966886
1658789430478156,0.8611581597619589,0.2427405203326467,0.306950484473945
1658789430494156,0.8549324788281067,0.31134508278019357,0.3067063401235979
1658789430510155,0.857129777981231,0.27789730678263513,0.29584191653315006
1658789430526155,0.8590829327840082,0.21515220874341967,0.2755779354543373
1658789430542155,0.8654306858930338,0.28168154421301583,0.28253604943923083
1658789430558166,0.8659189745937281,0.3817807278553449,0.30939192797741644
1658789430574166,0.8745860990310517,0.40802624551766264,0.3108567940794993
1658789430590166,0.8783703364614333,0.34418249790188415,0.28668650339513224
1658789430606166,0.867383840695811,0.28925001907377723,0.2789959563591973
1658789430622165,0.875318532082094,0.43537041275654254,0.2894941634241244
1658789430638165,0.8213626306553747,0.5043411917296101,0.25897611963073164
1658789430654165,0.8332036316472111,0.42182040131227616,0.24664682993820097
1658789430670165,0.8390630960555425,0.32489509422445995,0.22198825055313964
1658789430686164,0.8272220950637061,0.3406424048218506,0.2280918593118182
1658789430702164,0.8048828870069427,0.5501182574196992,0.23114366369115746
1658789430718164,0.7986572060730905,0.659983215075914,0.21344319829098968
1658789430734164,0.8318608377203018,0.569527733272297,0.20819409475852613
1658789430750164,0.8594491493095289,0.4694285496299688,0.23822384985122458
1658789430766163,0.8368657969024182,0.5300984206912336,0.24408331425955598
1658789430782163,0.8020752269779505,0.6045624475471119,0.2171053635461968
1658789430798163,0.8040283817807277,0.6034637979705497,0.18377965972381194
1658789430814163,0.8012207217517355,0.5611047531853206,0.15472648203250206
1658789430830163,0.7836423285267413,0.5611047531853206,0.16571297779812344
1658789430846162,0.7765621423666742,0.6373998626688033,0.18072785534447267
1658789430862162,0.7505607690547036,0.709178301670863,0.17535667963683554
1658789430878173,0.7600823987182421,0.6341039139391169,0.1785305561913484
1658789430894173,0.7746089875638971,0.5369344625009536,0.1852445258258948
1658789430910173,0.7698481727321278,0.5759975585564963,0.18927290760662263
1658789430926173,0.7337148088807508,0.7270008392462044,0.17560082398718269
1658789430942173,0.7229724574654766,0.7801022354467078,0.15741206988632062
1658789430958172,0.7481193255512322,0.6905012588693067,0.15948729686427132
1658789430974172,0.7541008621347371,0.5821011673151748,0.16107423514152774
1658789430990172,0.7304188601510644,0.6190890363927668,0.16278324559395774
1658789431006172,0.6980697337300681,0.7743648432135499,0.15167467765316278
1658789431022172,0.6809796292057682,0.7875486381322956,0.15228503852903064
1658789431038171,0.7060044251163502,0.6666971847104604,0.1432516975661864
1658789431054171,0.7210193026626994,0.6449683375295647,0.1293354695963993
1658789431070171,0.7118638895246816,0.7200427252613109,0.12372014953841415
1658789431086171,0.6934309910734724,0.7915770199130234,0.12469672693980272
1658789431102171,0.674753948271916,0.759838254367895,0.11285572594796633
1658789431118170,0.6778057526512553,0.6934309910734724,0.11956969558251274
1658789431134170,0.6774395361257346,0.6886701762417031,0.11480888075074347
1658789431150170,0.6620584420538647,0.778027008468757,0.10382238498512208
1658789431166170,0.6576638437476161,0.8114747844663155,0.10479896238651065
1658789431182170,0.6690165560387582,0.75898374914168,0.10089265278095638
1658789431198150,0.6729228656443125,0.7215075913633937,0.0974746318760964
1658789431214150,0.6585183489738311,0.724559395742733,0.10028229190508853
1658789431230150,0.6355687800411998,0.8268558785381854,0.1071183337148085
1658789431246150,0.6383764400701919,0.8834973678187232,0.09063859006637642
1658789431262149,0.6527809567406733,0.7561760891126879,0.07867551689936647
1658789431278149,0.6546120393682768,0.7056382085908295,0.09271381704432713
1658789431294149,0.6211642633707175,0.7931639581902798,0.09625391012436069
1658789431310149,0.591989013504234,0.8096437018387119,0.08184939345387932
1658789431326149,0.5944304570077055,0.8135500114442662,0.07611200122072148
1658789431342148,0.6027313649195083,0.7619134813458457,0.06060883497367797
1658789431358148,0.6092011902037076,0.7468986037994965,0.08050659952697004
1658789431374148,0.5960173952849619,0.8179446097505148,0.08136110475318503
1658789431390148,0.5740444037537191,0.840650034332799,0.0680552376592658
1658789431406148,0.5860074769207291,0.8222171358815897,0.06842145418478651
1658789431422147,0.5966277561608297,0.785717555504692,0.0680552376592658
1658789431438147,0.5853971160448612,0.7935301747158006,0.07684443427176291
1658789431454147,0.5606164644846263,0.8314946211947811,0.059876401922636546
1658789431470147,0.5432822156099792,0.8257572289616233,0.04742504005493231
1658789431486147,0.5504844739452199,0.8162355992980848,0.04754711223010588
1658789431502146,0.5619592584115356,0.8081788357366291,0.05804531929503298
1658789431518158,0.5432822156099792,0.8441901274128325,0.0659800106813151
1658789431534157,0.5310749980926222,0.8310063324940868,0.0499885557335773
1658789431550157,0.527412832837415,0.8063477531090255,0.03143358510719452
1658789431566157,0.5263141832608529,0.793408102540627,0.016662851911192433
1658789431582157,0.5210650797283893,0.8560311284046689,0.03143358510719452
1658789431598157,0.49872587167162585,0.9010757610437174,0.030090791180285237
1658789431614156,0.4943312733653773,0.8527351796749825,0.03668268863965807
1658789431630156,0.5111772335393301,0.7687495231555657,0.03533989471274879
1658789431646156,0.4968947890440223,0.8391851682307161,0.03533989471274879
1658789431662156,0.47772945754177165,0.9202410925459681,0.019470511940184565
1658789431678156,0.4883497367818723,0.9101091020065617,0.01629663538567172
1658789431694155,0.4758983749141681,0.8340581368734261,0.00323491264209963
1658789431710155,0.4708934157320517,0.8240482185091933,0.008850232700083893
1658789431726155,0.455146105134661,0.9198748760204474,0.0021362630655374915
1658789431742155,0.45709925993743816,0.9334248874647137,0.007995727473868897
1658789431758154,0.4451361867704282,0.8433356221866175,-0.0021362630655374915
1658789431774154,0.44379339284351893,0.8410162508583197,-0.001159685664148924
1658789431790154,0.41681544213015975,0.8970473792629896,-6.103608758678547E-5
1658789431806154,0.40595101853971194,0.9920195315480278,-0.01373311970702673
1658789431822154,0.4162050812542919,0.9745632104982072,-0.017761501487754572
1658789431838165,0.4296330205233847,0.8457770656900889,-0.015808346684977437
1658789431854165,0.40924696726939835,0.8479743648432132,-0.011535820553902454
1658789431870164,0.3872739757381556,0.9668726634622722,-0.01886015106431671
1658789431886164,0.3705500877393755,0.9922636758983749,-0.03460746166170736
1658789431902164,0.3599298084992748,0.9127946898603803,-0.04840161745632088
1658789431918164,0.37531090257114563,0.8837415121690704,-0.03668268863965807
1658789431934164,0.3734798199435412,0.9669947356374458,-0.027527275501640247
1658789431950163,0.3443045700770577,1.0205844205386434,-0.03595025558861664
1658789431966163,0.34589150835431415,0.9729762722209507,-0.04730296787975874
1658789431982163,0.3410086213473713,0.8861829556725418,-0.07257190814068837
1658789431998163,0.3566338597695884,0.9387960631723509,-0.059754329747462975
1658789432014163,0.3389333943694206,1.0031280994888228,-0.06646829938200982
1658789432030162,0.3263599603265428,0.9853055619134814,-0.05267414358739586
1658789432046162,0.32269779507133567,0.9391622796978716,-0.057068741893644415
1658789432062162,0.3208667124437321,0.8991226062409403,-0.059632257572289404
1658789432078162,0.30353246356908503,0.9473411154345008,-0.058533607995727266
1658789432094162,0.2809491111619744,1.042313267719539,-0.05999847409781012
1658789432110161,0.2830243381399251,1.0415808346684976,-0.06195162890058725
1658789432126161,0.2998702983138779,0.908888380254826,-0.05951018539711583
1658789432142161,0.30084687571526647,0.9086442359044788,-0.06500343327992697
1658789432158142,0.2831464103150987,1.0319371328297855,-0.06659037155718339
1658789432174142,0.272526131074998,1.0370641641870755,-0.06915388723582838
1658789432190141,0.269108110170138,0.9917753871976807,-0.08917372396429402
1658789432206141,0.2713054093232623,0.9248798352025638,-0.08490119783321903
1658789432222141,0.26446936751354233,0.9363546196688795,-0.08075074387731762
1658789432238141,0.2590981918059052,0.9921416037232014,-0.0762340733958955
1658789432254140,0.238101777676051,1.0119172961013199,-0.07220569161516766
1658789432270140,0.22735942626077676,0.9969024185549706,-0.07440299076829193
1658789432286140,0.23663691157396816,0.9306172274357216,-0.08307011520561547
1658789432302140,0.25555809872587165,0.9464866102082858,-0.06024261844815726
1658789432318140,0.23920042725261315,1.028397039749752,-0.06170748455024011
1658789432334139,0.21905851834897394,1.0799114976729989,-0.0753795681696805
1658789432350139,0.23041123064011604,1.0196078431372548,-0.08050659952697048
1658789432366139,0.24713511863889526,0.9789578088044557,-0.08477912565804546
1658789432382139,0.2687418936446173,1.0460975051499197,-0.08282597085526833
1658789432398139,0.2296787975890746,1.0614785992217897,-0.08563363088426046
1658789432414138,0.2112458991378654,1.0334019989318683,-0.09210345616845972
1658789432430138,0.19293507286182976,1.0330357824063476,-0.11175707637140464
1658789432446138,0.2066071564812697,1.0404821850919355,-0.10504310673685824
1658789432462138,0.22711528191042962,1.0894331273365374,-0.08929579613946759
1658789432478149,0.2394445716029603,1.1431448844129095,-0.08245975432974761
1658789432494149,0.24213015945677885,1.116289005874723,-0.08258182650492119
1658789432510149,0.24957656214236668,1.0529335469596397,-0.07428091859311836
1658789432526148,0.25140764476997024,1.108354314488441,-0.06512550545510054
1658789432542148,0.25140764476997024,1.1735408560311287,-0.06024261844815726
1658789432558148,0.24762340733958954,1.1435111009384302,-0.06707866025787768
1658789432574148,0.24457160296025027,1.0755168993667503,-0.06292820630197626
1658789432590148,0.24542610818646526,1.0700236514839396,-0.06878767071030767
1658789432606147,0.25018692301823453,1.0944380865186538,-0.0686655985351341
1658789432622147,0.24078736552986957,1.1114061188677802,-0.0631723506523234
1658789432638147,0.23956664377813386,1.0718547341115432,-0.04827954528114731
1658789432654147,0.25006485084306096,1.0336461432822155,-0.059632257572289404
1658789432670147,0.273380636301213,1.050003814755474,-0.05169756618600729
1658789432686146,0.2717936980239566,1.0375524528877698,-0.04498359655146089
1658789432702146,0.2781414511329823,1.041458762493324,-0.03692683299000521
1658789432718146,0.28119325551232155,1.035477225909819,-0.03741512169069949
1658789432734146,0.30048065918974576,1.0003204394598306,-0.03143358510719452
1658789432750146,0.3096360723277636,0.9980010681315328,-0.029480430304417382
1658789432766145,0.3195239185168228,0.9965362020294499,-0.013122758831158876
1658789432782145,0.32489509422445995,1.0012970168612192,-0.0040894178683146265
1658789432798126,0.3196459906919964,0.9551537346456094,-0.013244831006332447
1658789432814126,0.33832303349355275,0.9334248874647137,-0.015686274509803866
1658789432830125,0.33868925001907346,0.9295185778591595,-0.02252231631952384
1658789432846125,0.36176089112687837,0.9805447470817121,-0.005188067444876765
1658789432862125,0.36603341725795335,0.9844510566872664,-0.0021362630655374915
1658789432878125,0.3809262226291299,0.8845960173952854,0.010315098802166744
1658789432894125,0.39496452277409055,0.8875257495994511,0.022034027618829555
1658789432910124,0.41254291599908477,0.9522240024414437,0.01886015106431671
1658789432926124,0.4271915770199133,0.9755397878995957,0.035095750362401645
1658789432942124,0.422430762188144,0.9197528038452738,0.03314259555962451
1658789432958124,0.43158617532616184,0.8898451209277489,0.04437323567559304
1658789432974124,0.45844205386434744,0.8886243991760132,0.05145342183566015
1658789432990123,0.48480964370183877,0.936476691844053,0.053162432288090145
1658789433006123,0.4771190966659038,0.906324864576181,0.047913328755626594
1658789433022123,0.48017090104524307,0.8498054474708168,0.050598916609445155
1658789433038123,0.4749217975127795,0.8125734340428776,0.051941710536354435
1658789433054123,0.48529793240253305,0.8839856565194175,0.07000839246204293
1658789433070122,0.5034866865033951,0.9035172045471889,0.07440299076829149
1658789433086122,0.5139848935683222,0.8415045395590139,0.07440299076829149
1658789433102122,0.5305867093919279,0.7688715953307392,0.07537956816968006
1658789433118133,0.5539024948500799,0.8119630731670098,0.08953994048981428
1658789433134133,0.5733119707026777,0.8777599755855654,0.089906157015335
1658789433150133,0.5673304341191727,0.8557869840543217,0.09295796139467427
1658789433166133,0.5724574654764627,0.7569085221637293,0.10455481803616351
1658789433182132,0.5874723430228119,0.759838254367895,0.1155413138017849
1658789433198132,0.603952086671244,0.8471198596169982,0.12567330434119217
1658789433214132,0.608224612802319,0.8152590218966962,0.1117570763714042
1658789433230132,0.6144502937361711,0.6962386511024645,0.10223544670786566
1658789433246132,0.6105439841306168,0.661692225528344,0.10748455024032921
1658789433262131,0.6201876859693289,0.7437247272449836,0.10907148851758564
1658789433278131,0.6157930876630804,0.7741206988632028,0.10553139543755208
1658789433294131,0.6237277790493625,0.6754863813229575,0.11029221026932134
1658789433310131,0.6283665217059591,0.5596398870832378,0.10858319981689135
1658789433326130,0.672190432593271,0.6375219348439769,0.14715800717174066
1658789433342130,0.6820782787823303,0.8111085679407948,0.14337376974135996
1658789433358130,0.6919661249713895,0.7499504081788357,0.1465476462958728
1658789433374130,0.7165026321812773,0.5897917143511098,0.16144045166704846
1658789433390130,0.7393301289387351,0.5735561150530248,0.18377965972381194
1658789433406129,0.7342030975814451,0.673044937819486,0.18133821622034052
1658789433422129,0.7323720149538415,0.7071030746929123,0.17572289616235626
1658789433438110,0.7394522011139086,0.6160372320134275,0.16131837949187489
1658789433454110,0.7456778820477608,0.5381551842526893,0.16522468909742916
1658789433470110,0.7539787899595636,0.5578088044556342,0.17108415350576056
1658789433486109,0.7476310368505379,0.6096894789044018,0.1768215457389184
1658789433502109,0.7429922941939422,0.5930876630807962,0.1856107423514155
1658789433518109,0.7543450064850843,0.5268024719615472,0.17621118486305054
1658789433534109,0.7726558327611199,0.4984817273212787,0.19293507286182976
1658789433550109,0.7888914320592049,0.5464560921644921,0.207095445181964
1658789433566108,0.7866941329060806,0.5337605859464407,0.20856031128404684
1658789433582108,0.7913328755626763,0.5065384908827344,0.20099183642328544
1658789433598108,0.8081788357366291,0.5392538338292514,0.2066071564812697
1658789433614108,0.830395971618219,0.5725795376516363,0.2205233844510568
1658789433630108,0.8394293125810632,0.47724116884107737,0.23285267414358746
1658789433646107,0.8354009308003354,0.3964293888761734,0.22186617837796607
1658789433662107,0.8183108262760355,0.4132753490501262,0.21319905394064254
1658789433678107,0.8142824444953076,0.4951857785915923,0.20904859998474112
1658789433694107,0.8438239108873118,0.530830853742275,0.21393148699168396
1658789433710106,0.8523689631494618,0.3838559548332956,0.22369726100556964
1658789433726106,0.8430914778362704,0.3142748149843593,0.24701304646372169
1658789433742106,0.8108644235904476,0.36310368505378765,0.2356603341725796
1658789433758117,0.8213626306553747,0.4334172579537654,0.22577248798352034
1658789433774117,0.8498054474708168,0.4623483634699017,0.24090943770504314
1658789433790117,0.8604257267109174,0.36481269550621764,0.25397116044861523
1658789433806117,0.8805676356145575,0.30463111314564717,0.2752117189288166
1658789433822116,0.8755626764324411,0.36932936598763977,0.26446936751354233
1658789433838116,0.8928969253070882,0.41889066910811046,0.27826352330815585
1658789433854116,0.8919203479056996,0.3997253376058598,0.3015793087663079
1658789433870116,0.8832532234683761,0.317204547188525,0.29205767910276936
1658789433886116,0.8859388113221947,0.29462119478141435,0.29120317387655437
1658789433902115,0.8892347600518811,0.38617532616159345,0.2738689250019073
1658789433918115,0.8908216983291375,0.3834897383077749,0.2653238727397573
1658789433934115,0.8822766460669875,0.27313649195086587,0.27362478065156015
1658789433950115,0.863111314564736,0.21661707484550252,0.2936446173800258
1658789433966115,0.8522468909742882,0.28912794689860366,0.2981612878614479
1658789433982114,0.8827649347676818,0.4069275959411005,0.27411306935225443
1658789433998114,0.8975356679636839,0.3308766308079649,0.2654459449149309
1658789434014114,0.9163347829404138,0.20477607385366614,0.28290226596475154
1658789434030114,0.9159685664148931,0.21600671396963467,0.3195239185168228
1658789434046114,0.8871595330739304,0.34039826047150346,0.3246509498741128
1658789434062113,0.8739757381551838,0.4170595864805069,0.30646219577325073
1658789434078125,0.9073014419775696,0.2797283894102387,0.30182345311665504
1658789434094124,0.9469748989089801,0.20502021820401328,0.3187914854657814
1658789434110124,0.9376974135957887,0.205386434729534,0.3255054551003278
1658789434126124,0.897779812314031,0.2024567025253683,0.3263599603265428
1658789434142124,0.8942397192339975,0.22613870450904106,0.3037766079194322
1658789434158124,0.9085221637293053,0.20477607385366614,0.27862973983367656
1658789434174123,0.9245136186770431,0.22662699320973534,0.3031662470435643
1658789434190123,0.9207293812466624,0.23797970550087744,0.3213550011444264
1658789434206123,0.8961928740367746,0.17877470054169553,0.3419851987487599
1658789434222123,0.8932631418326089,0.09881742580300568,0.34174105439841274
1658789434238123,0.9147478446631574,0.11651789120317346,0.32660410467688994
1658789434254122,0.9307392996108952,0.16913099870298343,0.3136644541084914
1658789434270122,0.9340352483405816,0.15948729686427132,0.3267261768520635
1658789434286122,0.9259784847791259,0.10467689021133708,0.33295185778591563
1658789434302122,0.9193865873197531,0.06781109330891866,0.34723430228122343
1658789434318122,0.899488822766461,0.09100480659189714,0.32941176470588207
1658789434334121,0.9185320820935381,0.09137102311741785,0.3325856412603949
1658789434350121,0.9289082169832916,0.09320210574502141,0.33990997177080917
1658789434366121,0.932204165712978,0.04583810177767589,0.3384451056687263
1658789434382121,0.9281757839322502,0.051819638361180864,0.343083848325322
1658789434398101,0.9185320820935381,0.06414892805371153,0.3308766308079649
1658789434414101,0.9292744335088123,0.08465705348287145,0.34332799267566916
1658789434430101,0.9285420004577709,0.03411917296101308,0.3545586327916377
1658789434446101,0.9315938048371102,-0.00323491264209963,0.3527275501640341
1658789434462101,0.9069352254520489,-0.019714656290531707,0.3495536736095213
1658789434478100,0.9004654001678496,0.0014038300144960658,0.3418631265735863
1658789434494100,0.9171892881666288,0.06073090714885154,0.3323414969100478
1658789434510100,0.9444113832303351,0.0659800106813151,0.34247348744945416
1658789434526100,0.9507591363393608,0.032410162508583085,0.3690852216372926
1658789434542100,0.9391622796978716,-0.008728160524910322,0.37982757305256776
1658789434558099,0.9124284733348595,-0.06268406195162912,0.38410009918364274
1658789434574099,0.9153582055390252,-0.024353398947127403,0.388006408789197
1658789434590099,0.9158464942397195,0.04827954528114731,0.35687800411993553
1658789434606099,0.9325703822384988,0.06964217593652222,0.3556572823681998
1658789434622099,0.9446555275806823,0.0022583352407110624,0.3566338597695884
1658789434638098,0.9496604867627987,-0.04986648355840373,0.3817807278553449
1658789434654098,0.9149919890135045,-0.038879987792782345,0.3800717174029149
1658789434670098,0.8893568322270546,-0.032410162508583085,0.37567711909666635
1658789434686098,0.883009079118029,-0.008606088349736751,0.36310368505378765
1658789434702098,0.9132829785610745,0.007385366598001042,0.37531090257114563
1658789434718109,0.9344014648661023,0.0037232013427939137,0.3843442435339899
1658789434734109,0.9237811856260016,-0.07550164034485407,0.40082398718242196
1658789434750108,0.9051041428244453,-0.07611200122072193,0.4216983291371026
1658789434766108,0.8847180895704589,-0.053162432288090145,0.40851453421835693
1658789434782108,0.9069352254520489,-0.019714656290531707,0.4052185854886705
1658789434798108,0.9259784847791259,-0.019348439765010994,0.40009155413138053
1658789434814108,0.9290302891584652,-0.05548180361638799,0.4270695048447397
1658789434830107,0.9065690089265281,-0.13861295490959025,0.4447699702449075
1658789434846107,0.8866712443732361,-0.11663996337834748,0.42645914396887186
1658789434862107,0.877882047760739,-0.07879758907454049,0.41058976119630763
1658789434878107,0.8946059357595182,-0.056946669718470844,0.4079041733424891
1658789434894106,0.9024185549706267,-0.09454489967193114,0.4245059891660947
1658789434910106,0.898634317540246,-0.12457465476462959,0.4497749294270239
1658789434926106,0.8911879148546582,-0.12628366521705958,0.4581979095140003
1658789434942106,0.8990005340657667,-0.08490119783321903,0.4535591668574046
1658789434958106,0.9032730601968417,-0.04974441138323016,0.4401312275883118
1658789434974105,0.9130388342107274,-0.10284580758373396,0.4426947432669568
1658789434990105,0.9030289158464946,-0.15912108033875016,0.4402532997634854
1658789435006105,0.8788586251621275,-0.17462424658579367,0.44293888761730393
1658789435022105,0.8629892423895624,-0.12359807736324102,0.43781185626001395
1658789435038086,0.8704356450751503,-0.09991607537956826,0.4246280613412683
1658789435054085,0.8755626764324411,-0.11725032425421533,0.42694743266956614
1658789435070085,0.8849622339208061,-0.13580529488059812,0.43402761882963325
1658789435086085,0.8853284504463268,-0.16803234912642084,0.4531929503318839
1658789435102085,0.8919203479056996,-0.13055619134813456,0.4719920653086138
1658789435118085,0.8878919661249718,-0.14654764629587236,0.4644235904478524
1658789435134084,0.8946059357595182,-0.14520485236896308,0.4442816815442132
1658789435150084,0.902906843671321,-0.13946746013580524,0.4350041962310218
1658789435166084,0.897779812314031,-0.131288624399176,0.4422064545662625
1658789435182084,0.8920424200808732,-0.12689402609292744,0.4573434042877853
1658789435198084,0.8841077286945911,-0.16083009079118016,0.4485542076752882
1658789435214083,0.8798352025635161,-0.16095216296635373,0.44293888761730393
1658789435230083,0.8800793469138632,-0.1380025940337224,0.42572671091783043
1658789435246083,0.8900892652780961,-0.12298771648737317,0.4501411459525446
1658789435262083,0.8903334096284432,-0.1409323262378881,0.4528267338063632
1658789435278082,0.8848401617456325,-0.201113908598459,0.4547798886091403
1658789435294082,0.8773937590600447,-0.19256885633630905,0.4455024032959489
1658789435310082,0.872510872053101,-0.16852063782711513,0.4263370717936983
1658789435326082,0.8677500572213317,-0.16583504997329657,0.4430609597924775
1658789435342082,0.871656366826886,-0.17315938048371082,0.4690623331044481
1658789435358093,0.8709239337758445,-0.21832608529793252,0.4874952315556573
1658789435374093,0.8802014190890368,-0.2599526970321202,0.49823758297093157
1658789435390092,0.8811779964904254,-0.25311665522240023,0.48859388113221947
1658789435406092,0.8820325017166404,-0.2208896009765775,0.49152361333638517
1658789435422092,0.8655527580682074,-0.1765774013885708,0.4979934386205844
1658789435438092,0.8593270771343553,-0.20379949645227757,0.4901808194094759
1658789435454092,0.8493171587701225,-0.24347295338368813,0.49457541771572444
1658789435470091,0.8566414892805367,-0.26349279011215376,0.5111772335393301
1658789435486091,0.8454108491645682,-0.24164187075608456,0.51972228580148
1658789435502091,0.8371099412527654,-0.22149996185244536,0.5084916456855115
1658789435518091,0.8396734569314104,-0.207095445181964,0.4900587472343023
1658789435534091,0.8587167162584874,-0.20343327992675686,0.47650873579003594
1658789435550090,0.8736095216296631,-0.22027924010070965,0.4774853131914245
1658789435566090,0.8698252841992824,-0.19427786678873904,0.4850537880521859
1658789435582090,0.8625009536888681,-0.19452201113908618,0.48065918974593735
1658789435598090,0.8659189745937281,-0.22406347753109035,0.48566414892805376
1658789435614090,0.8701915007248031,-0.19549858854047475,0.4729686427100024
1658789435630089,0.8675059128709846,-0.19256885633630905,0.47016098268101025
1658789435646089,0.8628671702143889,-0.16375982299534586,0.4711375600823988
1658789435662089,0.8621347371633474,-0.1476462958724345,0.4650339513237203
1658789435678070,0.8714122224765388,-0.16534676127260228,0.46088349736781886
1658789435694069,0.8689707789730674,-0.1885404745555812,0.4509956511787596
1658789435710069,0.8675059128709846,-0.1741359578850994,0.44867627985046177
1658789435726069,0.8678721293965053,-0.09942778667887398,0.4599069199664303
1658789435742069,0.8653086137178603,-0.0896620126649883,0.4612497138933396
1658789435758069,0.8764171816586561,-0.13202105745021742,0.45502403295948746
1658789435774068,0.8782482642862597,-0.15448233768215447,0.44074158846417966
1658789435790068,0.8719005111772331,-0.11725032425421533,0.43830014496070824
1658789435806068,0.8644541084916453,-0.07122911421377909,0.43280689707789755
1658789435822068,0.8712901503013653,-0.03216601815823594,0.4279240100709547
1658789435838068,0.8833752956435497,-0.04315251392385733,0.41852445258258975
1658789435854067,0.8913099870298318,-0.07513542381933336,0.4186465247577633
1658789435870067,0.8845960173952854,-0.07135118638895266,0.4127870603494319
1658789435886067,0.8740978103303574,-0.039124132143129486,0.42572671091783043
1658789435902067,0.860547798886091,0.04522774090180803,0.40167849240863696
1658789435918067,0.8540779736018917,0.02655069810025168,0.3821469443808656
1658789435934066,0.8786144808117804,0.028747997253375956,0.3640802624551762
1658789435950066,0.8938735027084768,0.05352864881361086,0.36859693293659834
1658789435966066,0.8700694285496295,0.04779125658045302,0.3762874799725342
1658789435982066,0.8577401388570989,0.08465705348287145,0.3778744182497906
1658789435998077,0.8469977874418246,0.09161516746776499,0.36017395284962195
1658789436014077,0.8644541084916453,0.13373006790264785,0.35138475623712484
1658789436030077,0.8900892652780961,0.23273060196841389,0.3667658503089948
1658789436046076,0.896925307087816,0.3020675974670022,0.3607843137254898
1658789436062076,0.8947280079346918,0.25506981002517737,0.3392996108949413
1658789436078076,0.9002212558175025,0.18536659800106836,0.31305409323262356
1658789436094076,0.9245136186770431,0.25775539787899593,0.31122301060502
1658789436110076,0.9225604638742659,0.31476310368505356,0.3041428244449529
1658789436126075,0.9076676585030903,0.3468680857557027,0.28168154421301583
1658789436142075,0.9099870298313881,0.2840009155413137,0.2638590066376745
1658789436158075,0.9136491950865953,0.3262378881513692,0.2556801709010452
1658789436174075,0.9021744106202796,0.39288929579613985,0.25018692301823453
1658789436190075,0.9035172045471889,0.37323567559319404,0.25299458304722666
1658789436206074,0.9025406271458003,0.3158617532616157,0.2494544899671931
1658789436222074,0.8867933165484096,0.3306324864576178,0.24457160296025027
1658789436238074,0.8805676356145575,0.44660105287251106,0.24725719081406883
1658789436254074,0.8697032120241088,0.4988479438467994,0.239810788128481
1658789436270074,0.8860608834973682,0.3528496223392077,0.24127565423056385
1658789436286073,0.9021744106202796,0.3032883192187379,0.2728923476005187
1658789436302073,0.8925307087815675,0.46845197222858026,0.2511635004196231
1658789436318084,0.8675059128709846,0.5286335545891507,0.21771572442206466
1658789436334084,0.8827649347676818,0.40009155413138053,0.22333104448004892
1658789436350084,0.8865491721980625,0.31183337148088786,0.23150988021667818
1658789436366084,0.8677500572213317,0.31488517586022713,0.24286259250782027
1658789436382084,0.8399176012817575,0.47809567406729236,0.25177386129549095
1658789436398083,0.8145265888456548,0.5773403524834055,0.24420538643472955
1658789436414083,0.8318608377203018,0.45001907377737105,0.2208896009765775
1658789436430083,0.8833752956435497,0.35175097276264555,0.22626077668421463
1658789436446083,0.8914320592050053,0.395696955825132,0.23663691157396816
1658789436462082,0.8560311284046689,0.43353933012893897,0.2351720454718853
1658789436478082,0.830395971618219,0.4800488288700695,0.21808194094758537
1658789436494082,0.8258793011367969,0.47443350881208524,0.21283283741512182
1658789436510082,0.8253910124361026,0.4263370717936983,0.20135805294880615
1658789436526082,0.8231937132829783,0.4778515297169452,0.22528419928282606
1658789436542081,0.8004882887006941,0.5830777447165634,0.22162203402761893
1658789436558081,0.7973144121461813,0.5221637293049515,0.20086976424811187
1658789436574081,0.8489509422446018,0.4099794003204398,0.20148012512397973
1658789436590081,0.857129777981231,0.4461127641718168,0.20086976424811187
1658789436606081,0.827832455939574,0.5458457312886242,0.19806210421911974
1658789436622080,0.7956054016937513,0.6225070572976268,0.17462424658579412
1658789436638061,0.8043945983062484,0.5380331120775157,0.17279316395819055
1658789436654061,0.8194094758525976,0.4728465705348288,0.17657740138857125
1658789436670061,0.8115968566414891,0.4889600976577402,0.19513237201495404
1658789436686061,0.7733882658121614,0.5778286411840998,0.19415579461356547
1658789436702060,0.7536125734340429,0.6516823071641111,0.16351567864499916
1658789436718060,0.7567864499885557,0.602243076218814,0.13006790264744073
1658789436734060,0.7881589990081634,0.5258258945601586,0.14557106889448423
1658789436750060,0.7895017929350727,0.5258258945601586,0.16864271000228914
1658789436766060,0.7522697795071336,0.5951628900587469,0.16827649347676843
1658789436782059,0.7270008392462044,0.6504615854123754,0.16729991607537986
1658789436798059,0.7285877775234608,0.6619363698786911,0.14874494544899708
1658789436814059,0.7445792324711986,0.5902800030518041,0.1377584496833757
1658789436830059,0.7580071717402914,0.5624475471122299,0.1515526054779892
1658789436846058,0.714305333028153,0.6228732738231475,0.15606927595941134
1658789436862058,0.6830548561837189,0.7488517586022736,0.1499656672007328
1658789436878058,0.6583962767986575,0.6791485465781646,0.11126878767070991
1658789436894058,0.6863508049134053,0.5292439154650186,0.1012588693064771
1658789436910058,0.716014343480583,0.5967498283360033,0.11639581902799989
1658789436926057,0.7002670328831924,0.7451895933470665,0.12384222171358772
1658789436942057,0.6637674525062947,0.8026855878538184,0.11163500419623062
1658789436958068,0.6624246585793854,0.7042954146639202,0.09808499275196425
1658789436974068,0.6793926909285117,0.5978484779125655,0.11322194247348705
1658789436990068,0.6644998855573361,0.7204089417868316,0.11309987029831348
1658789437006068,0.6267795834287027,0.8407721065079725,0.09234760051880642
1658789437022068,0.6111543450064847,0.8046387426565955,0.0604867627985044
1658789437038067,0.6287327382314798,0.6520485236896318,0.062439917601281536
1658789437054067,0.6284885938811327,0.7686274509803921,0.06683451590753009
1658789437070067,0.6084687571526661,0.8662851911192488,0.051819638361180864
1658789437086067,0.6166475928892954,0.8493171587701225,0.047913328755626594
1658789437102067,0.6045624475471119,0.7580071717402914,0.023620965896085977
1658789437118066,0.6001678492408633,0.792553597314412,0.027283131151293105
1658789437134066,0.5950408178835733,0.9250019073777374,0.026916914625772392
1658789437150066,0.603097581445029,0.9197528038452738,0.01886015106431671
1658789437166066,0.5904020752269776,0.8112306401159683,0.01861600671396957
1658789437182066,0.5622034027618827,0.75727473868925,0.03729304951552592
1658789437198065,0.5227740901808193,0.9181658655680174,0.012878614480811734
1658789437214065,0.537666895551995,1.004470893415732,-0.011902037079423167
1658789437230065,0.5548790722514685,0.8877698939497982,0.003112840466926059
1658789437246065,0.5519493400473028,0.8058594644083312,0.018127718013275285
1658789437262065,0.4968947890440223,0.861402304112306,0.010315098802166744
1658789437278045,0.4896925307087816,0.9474631876096744,-0.025818265049210254
1658789437294045,0.4910353246356909,0.9203631647211417,-0.02130159456778813
1658789437310045,0.498115510795758,0.8621347371633474,0.009460593575951748
1658789437326045,0.46186007476920743,0.9204852368963152,0.011169604028381741
1658789437342044,0.45465781643396674,0.9154802777141988,-0.010559243152513886
1658789437358044,0.4673533226520181,0.8510261692225525,-0.016784924086366004
1658789437374044,0.4686961165789274,0.9215838864728774,-0.014343480582894585
1658789437390044,0.4463569085221639,0.9391622796978716,-0.005554283970397478
1658789437406044,0.44831006332494105,0.9590600442511636,0.0060425726710917615
1658789437422043,0.4455024032959489,0.9090104524299996,-0.03533989471274879
1658789437438043,0.4321965362020297,0.8102540627145798,-0.03704890516517878
1658789437454043,0.4435492484931718,0.8814221408407725,-0.03179980163271523
1658789437470043,0.40473029678797623,0.9713893339436943,-0.03155565728236809
1658789437486043,0.3959411001754791,0.9485618371862365,-0.02154573891813527
1658789437502042,0.4081483176928362,0.865674830243381,-0.012024109254596738
1658789437518042,0.42011139085984617,0.8668955519951167,-0.03143358510719452
1658789437534042,0.42279697871366473,0.9066910811017017,-0.025085831998168828
1658789437550042,0.396551461051347,0.9632104982070651,-0.017273212787060288
1658789437566042,0.3771419851987492,0.971755550469215,-0.019592584115358136
1658789437582041,0.3640802624551762,0.8833752956435497,-0.03961242084382377
1658789437598053,0.3793392843518735,0.8451667048142211,-0.03558403906309593
1658789437614052,0.4002136263065541,0.9336690318150609,-0.0365606164644845
1658789437630052,0.36603341725795335,1.001907377737087,-0.042786297398336615
1658789437646052,0.3548027771419848,0.9829861905851836,-0.0357061112382695
1658789437662052,0.3511406118867777,0.897779812314031,-0.04486152437628732
1658789437678052,0.35602349889372054,0.9079118028534374,-0.05133134966048658
1658789437694051,0.34552529182879343,0.9630884260318915,-0.06158541237506654
1658789437710051,0.31647211413748355,1.012161440451667,-0.06341649500267055
1658789437726051,0.3117112993057143,0.9816433966582743,-0.08331425955596261
1658789437742051,0.3196459906919964,0.9126726176852067,-0.08490119783321903
1658789437758051,0.34259555962462773,0.9431906614785994,-0.08172732127870619
1658789437774050,0.3401541161211563,1.0069123369192035,-0.08819714656290545
1658789437790050,0.3200122072175171,0.9894560158693828,-0.08392462043183047
1658789437806050,0.3040207522697793,0.9585717555504694,-0.0829480430304419
1658789437822050,0.2948653391317615,0.9103532463569088,-0.07696650644693692
1658789437838050,0.29840543221179505,0.9574731059739072,-0.08160524910353262
1658789437854049,0.2940108339055465,0.9931181811245899,-0.07891966124971406
1658789437870049,0.279362172884718,0.96919203479057,-0.06903181506065481
1658789437886049,0.271671625848783,0.9403830014496073,-0.07562371252002764
1658789437902049,0.2649576562142366,0.9193865873197531,-0.09967193102922112
1658789437918060,0.26520180056458376,0.9497825589379723,-0.08221560997940047
1658789437934060,0.25214007782101167,1.0222934309910734,-0.08538948653391332
1658789437950060,0.2477454795147631,1.0012970168612192,-0.08075074387731762
1658789437966059,0.2533607995727474,0.9264667734798202,-0.07379262989242408
1658789437982059,0.2587319752803845,0.9009536888685439,-0.09027237354085615
1658789437998059,0.2537270160982681,0.9857938506141757,-0.10638590066376752
1658789438014059,0.23883421072709243,1.0238803692683298,-0.093446250095369
1658789438030058,0.22955672541390104,1.0088654917219806,-0.08575570305943403
1658789438046058,0.23114366369115746,0.9582055390249486,-0.08087281605249119
1658789438062058,0.22980086976424818,0.9225604638742659,-0.09649805447470827
1658789438078058,0.23553826199740602,0.9545433737697415,-0.0963759822995347
1658789438094058,0.21271076523994825,0.98115510795758,-0.09588769359884042
1658789438110057,0.21075761043717112,0.9895780880445564,-0.09600976577401399
1658789438126057,0.2003814755474176,0.9284199282825973,-0.11090257114518964
1658789438142057,0.2057526512550547,0.8899671931029225,-0.1085831998168918
1658789438158057,0.1823147936217291,0.9002212558175025,-0.1030899519340811
1658789438174057,0.170107576104372,0.9999542229343099,-0.09246967269398043
1658789438190056,0.16437018387121416,1.0154573891813534,-0.09002822919050901
1658789438206056,0.18426794842450622,0.9368429083695737,-0.08526741435873975
1658789438222056,0.20782787823300541,0.9593041886015108,-0.08844129091325259
1658789438238037,0.19720759899290474,0.9867704280155642,-0.09185931181811258
1658789438254037,0.18329137102311766,1.0099641412985427,-0.09954985885404755
1658789438270036,0.16107423514152774,1.0093537804226749,-0.10724040588998252
1658789438286036,0.14923323414969136,0.9400167849240866,-0.11920347905699247
1658789438302036,0.13836881055924355,0.9195086594949267,-0.13897917143511096
1658789438318036,0.13678187228198713,0.9881132219424735,-0.13275349050125884
1658789438334035,0.13470664530403642,1.0492713817044326,-0.13775844968337525
1658789438350035,0.12652780956740717,1.0117952239261463,-0.14312962539101237
1658789438366035,0.12970168612192,0.9355001144426645,-0.14789044022278164
1658789438382035,0.1343404287785157,0.9915312428473335,-0.14056610971236738
1658789438398035,0.14813458457312922,1.0803997863736932,-0.14081025406271452
1658789438414034,0.12945754177157287,1.0777141985198746,-0.14752422369726093
1658789438430034,0.12103456168459559,1.0119172961013199,-0.13788052185854882
1658789438446034,0.12652780956740717,1.0011749446860456,-0.13702601663233382
1658789438462034,0.12909132524605216,1.0930952925917445,-0.13897917143511096
1658789438478034,0.11444266422522276,1.121416037232013,-0.15216296635385662
1658789438494033,0.10235751888303923,1.0495155260547797,-0.16217288471808944
1658789438510033,0.10321202410925423,1.030960555428397,-0.15167467765316234
1658789438526033,0.10955977721827992,1.1167772945754173,-0.14605935759517807
1658789438542033,0.11822690165560346,1.1585259784847795,-0.13934538796063167
1658789438558044,0.12335393301289344,1.1775692378118565,-0.1308003356984817
1658789438574044,0.12066834515907487,1.1252002746623946,-0.1299458304722667
1658789438590044,0.11529716945143775,1.0520790417334247,-0.13519493400473026
1658789438606043,0.1146868085755699,1.1324025329976353,-0.13849088273441668
1658789438622043,0.11578545815213204,1.1759822995346,-0.14569314106965736
1658789438638043,0.11529716945143775,1.1164110780498966,-0.15362783245593947
1658789438654043,0.11529716945143775,1.027542534523537,-0.1543602655069809
1658789438670043,0.10260166323338638,1.0492713817044326,-0.15399404898146019
1658789438686042,0.1184710460059506,1.0891889829861903,-0.14190890363927666
1658789438702042,0.12872510872053144,1.1160448615243759,-0.12042420080872818
1658789438718042,0.14593728542000495,1.0813763637750817,-0.10235751888303968
1658789438734042,0.16913099870298343,1.040360112916762,-0.10064850843060968
1658789438750042,0.18402380407415908,1.0648966201266497,-0.10626382848859395
1658789438766041,0.19183642328526762,1.0867475394827188,-0.09674219882505541
1658789438782041,0.18487830930037408,1.0905317769130995,-0.0858777752346076
1658789438798041,0.1788967727168691,1.0274204623483634,-0.08709849698634331
1658789438814041,0.18890669108110192,0.9796902418554971,-0.10077058060578326
1658789438830041,0.18487830930037408,1.0158236057068741,-0.1060196841382468
1658789438846040,0.1957427328908219,1.0246128023193712,-0.10907148851758608
1658789438862040,0.20099183642328544,1.010452429999237,-0.09698634317540256
1658789438878021,0.21051346608682397,0.9839627679865721,-0.08917372396429402
1658789438894021,0.23382925154497602,0.982009613183795,-0.0850232700083926
1658789438910020,0.243228809033341,1.0230258640421148,-0.07696650644693692
1658789438926020,0.26898603799496446,1.0142366674296177,-0.05267414358739586
1658789438942020,0.27692072938124657,0.988845654993515,-0.05767910276951227
1658789438958020,0.2821698329137101,0.9380636301213094,-0.056946669718470844
1658789438974020,0.3040207522697793,0.970046540016785,-0.05609216449225585
1658789438990019,0.3028000305180436,1.0110627908751049,-0.059632257572289404
1658789439006019,0.31683833066300426,0.978591592278935,-0.04229800869764233
1658789439022019,0.32611581597619566,0.9243915465018695,-0.03265430685893023
1658789439038019,0.3382009613183792,0.9000991836423289,-0.026184481574730967
1658789439054019,0.35211718928816627,0.951857785915923,-0.026916914625772392
1658789439070018,0.3632257572289612,0.9438010223544673,-0.010803387502861028
1658789439086018,0.3624933241779198,0.933058670939193,-0.015930418860151008
1658789439102018,0.3666437781338212,0.8703135728999767,-0.025085831998168828
1658789439118018,0.3938658731975284,0.8723887998779274,1.831082627603564E-4
1658789439134018,0.428412298771649,0.9318379491874573,0.009582665751125319
1658789439150017,0.41510643167772976,0.9302510109102009,0.015930418860151008
1658789439166017,0.41266498817425834,0.8876478217746246,0.010559243152513886
1658789439182017,0.43109788662546755,0.8075684748607612,0.022034027618829555
1658789439198028,0.4574654764629589,0.9073014419775696,0.028503852903028815
1658789439214028,0.4603952086671246,0.9098649576562146,0.026916914625772392
1658789439230028,0.46771953917753883,0.8130617227435719,0.04827954528114731
1658789439246028,0.4973830777447166,0.8145265888456548,0.045471885252155175
1658789439262027,0.4973830777447166,0.8805676356145575,0.03704890516517878
1658789439278027,0.5044632639047837,0.9098649576562146,0.04974441138323016
1658789439294027,0.5081254291599908,0.8280766002899211,0.05267414358739586
1658789439310027,0.5176470588235293,0.7511711299305714,0.057312886243991557
1658789439326027,0.5502403295948728,0.8006103608758677,0.06524757763027367
1658789439342026,0.5366903181506064,0.8441901274128325,0.05487144274052014
1658789439358026,0.5399862668802928,0.816723887998779,0.04742504005493231
1658789439374026,0.5731898985275041,0.797680628671702,0.07122911421377864
1658789439390026,0.5972381170366976,0.7982909895475698,0.1004043640802621
1658789439406026,0.600534065766384,0.8142824444953076,0.10907148851758564
1658789439422025,0.5878385595483326,0.8080567635614555,0.09906157015335282
1658789439438025,0.598825055313954,0.7508049134050507,0.08014038300144932
1658789439454025,0.6256809338521405,0.7534905012588693,0.09332417792019498
1658789439470025,0.649729152361334,0.796826123445487,0.11285572594796633
1658789439486024,0.6316624704356455,0.7567864499885557,0.12506294346532432
1658789439502024,0.6280003051804384,0.6934309910734724,0.12787060349431645
1658789439518005,0.6381322957198448,0.6706034943160146,0.11371023117418133
1658789439534005,0.6619363698786911,0.7465323872739758,0.12957961394674644
1658789439550005,0.6478980697337304,0.7696040283817807,0.12066834515907487
1658789439566004,0.6612039368276497,0.6663309681849396,0.14386205844205424
1658789439582004,0.6825665674830246,0.6237277790493625,0.1482566567483028
1658789439598004,0.7093003738460366,0.6770733196002139,0.15631342030975848
1658789439614004,0.7121080338750287,0.7014877546349281,0.15265125505455135
1658789439630004,0.7150377660791944,0.6863508049134053,0.15130846112764207
1658789439646003,0.7147936217288473,0.6217746242465854,0.16705577172503272
1658789439662003,0.7307850766765851,0.6527809567406733,0.18414587624933265
1658789439678003,0.7433585107194629,0.641184100099184,0.1835355153734648
1658789439694003,0.7376211184863051,0.5674525062943463,0.165835049973297
1658789439710003,0.7348134584573129,0.5446250095368885,0.17022964827954556
1658789439726002,0.7466544594491493,0.654856183718624,0.16351567864499916
1658789439742002,0.732249942778668,0.6526588845654997,0.15069810025177421
1658789439758002,0.7714351110093842,0.5548790722514685,0.18023956664377838
1658789439774002,0.7669184405279621,0.5095902952620737,0.1923247119859619
1658789439790001,0.759838254367895,0.5375448233768214,0.19354543373769761
1658789439806001,0.7687495231555657,0.5888151369497212,0.17669947356374482
1658789439822001,0.7650873579003585,0.6168917372396425,0.17315938048371127
1658789439838012,0.7930418860151063,0.5311970702677957,0.18658731975280407
1658789439854012,0.8059815365835048,0.4308537422751204,0.20001525902189687
1658789439870012,0.8166018158236055,0.46979476615548954,0.1981841763942933
1658789439886012,0.8233157854581519,0.5582970931563285,0.19208056763561476
1658789439902011,0.8129396505683983,0.5279011215381093,0.1856107423514155
1658789439918011,0.823559929808499,0.4221866178377969,0.19256885633630905
1658789439934011,0.8350347142748147,0.43952086671244395,0.22186617837796607
1658789439950011,0.8241702906843669,0.5178912031738765,0.24432745860990313
1658789439966011,0.8148928053711755,0.5443808651865414,0.2343175402456703
1658789439982010,0.8507820248722053,0.5014114595254444,0.21564049744411395
1658789439998010,0.8594491493095289,0.36054016937514266,0.20416571297779829
1658789440014010,0.8620126649881739,0.347356374456397,0.22504005493247892
1658789440030010,0.8521248187991146,0.4497749294270239,0.23260852979324032
1658789440046010,0.824414435034714,0.4740672922865645,0.21893644617380037
1658789440062009,0.8362554360265504,0.39826047150377697,0.22906843671320676
1658789440078009,0.8533455405508503,0.34589150835431415,0.24847791256580454
1658789440094009,0.8662851911192488,0.41596093690394476,0.26520180056458376
1658789440110009,0.8621347371633474,0.43524834058136896,0.27020675974670016
1658789440126009,0.8606698710612646,0.3721370260166319,0.26654459449149304
1658789440142008,0.8850843060959797,0.33881132219424703,0.2548256656748302
1658789440158020,0.8892347600518811,0.3392996108949413,0.2532387273975738
1658789440174019,0.9070572976272224,0.3884946974898913,0.27582207980468443
1658789440190019,0.9069352254520489,0.43146410315098827,0.27277027542534515
1658789440206019,0.8887464713511868,0.3549248493171584,0.269962615396353
1658789440222019,0.8836194399938968,0.2620279240100709,0.27106126497291516
1658789440238019,0.8815442130159461,0.32611581597619566,0.28912794689860366
1658789440254018,0.8662851911192488,0.3817807278553449,0.26935225452048517
1658789440270018,0.8888685435263604,0.3162279697871364,0.26178377965972377
1658789440286018,0.9108415350576031,0.20648508430609613,0.2565346761272602
1658789440302018,0.9015640497444117,0.22796978713664462,0.26898603799496446
1658789440318018,0.8917982757305261,0.34918745708400056,0.27228198672465087
1658789440334017,0.8891126878767075,0.3816586556801713,0.2783855954833294
1658789440350017,0.9184100099183645,0.3372243839169906,0.2800946059357594
1658789440366017,0.9213397421225302,0.20099183642328544,0.2960860608834972
1658789440382017,0.9016861219195853,0.167544060425727,0.31317616540779714
1658789440398017,0.8899671931029225,0.24310673685816742,0.3037766079194322
1658789440414016,0.9240253299763488,0.36810864423590406,0.27032883192187374
1658789440430016,0.9269550621805145,0.3344167238879985,0.2730144197756923
1658789440446016,0.9301289387350273,0.1809719996948198,0.2955977721828029
1658789440462016,0.9146257724879838,0.13287556267643286,0.3220874341954678
1658789440477996,0.8958266575112539,0.2318760967421989,0.3237964446478978
1658789440493996,0.8988784618905932,0.25506981002517737,0.3100022888532843
1658789440509996,0.9276874952315559,0.20416571297779829,0.28839551384756223
1658789440525996,0.9331807431143666,0.17169451438162842,0.29669642175936506
1658789440541996,0.911451895933471,0.15301747158007206,0.3041428244449529
1658789440557995,0.8915541313801789,0.1494773785000385,0.3247730220492864
1658789440573995,0.893507286182956,0.18548867017624193,0.3355153734645606
1658789440589995,0.9192645151445795,0.22125581750209822,0.3205004959182114
1658789440605995,0.9427023727779051,0.1591210803387506,0.31903562981612854
1658789440621995,0.9564965285725187,0.0949111161974514,0.3239185168230714
1658789440637994,0.9412375066758223,0.0776989394979779,0.3518730449378191
1658789440653994,0.893507286182956,0.1041886015106428,0.3554131380178527
1658789440669994,0.8775158312352183,0.12396429388876129,0.3612726024261841
1658789440685994,0.8900892652780961,0.14007782101167354,0.34296177615014845
1658789440701994,0.9353780422674909,0.10992599374380063,0.3544365606164641
1658789440717993,0.938185702296483,0.05352864881361086,0.3721370260166319
1658789440733993,0.9253681239032581,0.0499885557335773,0.3690852216372926
1658789440749993,0.9066910811017017,0.06573586633096795,0.37824063477531134
1658789440765993,0.9136491950865953,0.10003814755474139,0.3776302738994435
1658789440781993,0.9363546196688795,0.07342641336690292,0.36945143816281334
1658789440798004,0.9394064240482187,0.03668268863965807,0.3860532539864199
1658789440814004,0.9303730830853745,0.03045700770580595,0.3714045929655905
1658789440830003,0.913160906385901,0.04351873044937804,0.36176089112687837
1658789440846003,0.9135271229114217,0.0739147020675972,0.36432440680552336
1658789440862003,0.928786144808118,0.08172732127870574,0.3607843137254898
1658789440878003,0.9368429083695737,0.012512397955291021,0.36102845807583694
1658789440894003,0.9375753414206152,-0.023376821545738835,0.35590142671854696
1658789440910002,0.9187762264438852,-0.03546196688792236,0.3628595407034405
1658789440926002,0.9085221637293053,0.07513542381933291,0.3590753032730598
1658789440942002,0.9151140611886781,0.08758678568703715,0.34674601358052914
1658789440958002,0.9236591134508281,0.014465552758068156,0.34796673533226485
1658789440974002,0.9422140840772109,-0.027527275501640247,0.3721370260166319
1658789440990001,0.9317158770122838,-0.03155565728236809,0.37738612954909634
1658789441006001,0.9104753185320824,-0.0061646448462653325,0.3742122529945826
1658789441022001,0.9291523613336388,0.03472953383688093,0.3649347676813912
1658789441038001,0.938185702296483,0.014709697108415298,0.3692072938124662
1658789441054000,0.934767681391623,-0.020569161516746703,0.3716487373159376
