Timestamp (microseconds),Gyro X (°/s),Gyro Y (°/s),Gyro Z (°/s)
1658789415838440,-0.6408789196611906,-0.09155413138023505,-1.4343480582895154
1658789415854439,-1.1291676203554744,-0.15259021896690683,-1.9226367589837992
1658789415870439,1.983672846570471,0.2746623941404778,-1.983672846570471
1658789415886439,2.7771419851987957,1.0070954451819034,-1.8005645838102282
1658789415902439,-0.5188067444876197,0.8850232700083325,-1.8616006713969
1658789415918439,-0.3967345693140487,0.3967345693140487,-1.8005645838102282
1658789415934438,2.5940337224383256,0.5188067444876197,-1.2512397955290453
1658789415950438,2.655069810025225,0.7019150072480898,-1.1902037079423735
1658789415966438,-0.03051804379333589,0.2746623941404778,-1.2512397955290453
1658789415982438,0.15259021896690683,0.213626306553806,-1.4953841458761872
1658789415998438,1.8616006713969,0.45777065690094787,-1.1291676203554744
1658789416014437,2.04470893415737,0.5188067444876197,-0.8239871824216607
1658789416030437,1.2512397955290453,0.7019150072480898,-0.5188067444876197
1658789416046437,0.2746623941404778,0.6408789196611906,-0.7629510948347615
1658789416062437,-0.45777065690094787,0.2746623941404778,-1.1902037079423735
1658789416078436,0.2746623941404778,0.03051804379333589,-1.0681315327688026
1658789416094436,0.213626306553806,0.03051804379333589,-0.5188067444876197
1658789416110436,1.1291676203554744,-0.09155413138023505,-0.5188067444876197
1658789416126436,1.8005645838102282,0.33569848172737693,-0.9460593575952316
1658789416142436,1.4953841458761872,0.33569848172737693,-1.4343480582895154
1658789416158447,0.15259021896690683,0.09155413138023505,-1.8616006713969
1658789416174447,-0.8850232700083325,-0.09155413138023505,-2.105745021744042
1658789416190446,-0.3967345693140487,0.33569848172737693,-2.04470893415737
1658789416206446,0.5798428320745188,0.8239871824216607,-1.9226367589837992
1658789416222446,2.288853284504512,0.5798428320745188,-1.6174563210497581
1658789416238446,1.2512397955290453,0.15259021896690683,-1.6784924086366573
1658789416254446,-0.8850232700083325,-0.09155413138023505,-2.105745021744042
1658789416270445,-0.3967345693140487,-0.03051804379333589,-2.105745021744042
1658789416286445,2.166781109330941,0.33569848172737693,-1.739528496223329
1658789416302445,3.3875028610666504,0.7019150072480898,-1.2512397955290453
1658789416318445,2.04470893415737,0.2746623941404778,-1.8005645838102282
1658789416334445,-0.3967345693140487,0.03051804379333589,-2.04470893415737
1658789416350444,0.09155413138023505,-0.33569848172737693,-2.105745021744042
1658789416366444,1.8616006713969,-0.213626306553806,-1.1902037079423735
1658789416382444,1.9226367589837992,0.09155413138023505,-0.7629510948347615
1658789416398444,0.9460593575952316,0.3967345693140487,-0.9460593575952316
1658789416414444,0.5798428320745188,0.03051804379333589,-1.4343480582895154
1658789416430443,0.3967345693140487,-0.213626306553806,-1.6174563210497581
1658789416446443,0.6408789196611906,0.03051804379333589,-1.1291676203554744
1658789416462443,0.8850232700083325,0.2746623941404778,-1.6784924086366573
1658789416478424,0.3967345693140487,0.45777065690094787,-2.410925459678083
1658789416494423,0.09155413138023505,0.09155413138023505,-2.655069810025225
1658789416510423,-0.45777065690094787,-0.09155413138023505,-2.166781109330941
1658789416526423,-0.03051804379333589,-0.09155413138023505,-1.5564202334630863
1658789416542423,1.6784924086366573,0.33569848172737693,-1.0070954451819034
1658789416558423,2.227817196917613,0.33569848172737693,-0.5798428320745188
1658789416574422,-0.8239871824216607,-0.09155413138023505,-1.0681315327688026
1658789416590422,-2.7161058976118966,-0.15259021896690683,-1.6784924086366573
1658789416606422,-1.5564202334630863,-0.03051804379333589,-1.8616006713969
1658789416622422,1.983672846570471,0.5188067444876197,-2.04470893415737
1658789416638422,2.8992141603723667,1.2512397955290453,-2.105745021744042
1658789416654421,2.410925459678083,1.2512397955290453,-2.7161058976118966
1658789416670421,1.8616006713969,1.3122758831159445,-3.0212863355459376
1658789416686421,1.6174563210497581,0.8239871824216607,-2.5940337224383256
1658789416702421,3.5095750362402214,0.7019150072480898,-1.8005645838102282
1658789416718421,1.6174563210497581,0.5798428320745188,-1.8005645838102282
1658789416734420,-2.166781109330941,0.2746623941404778,-2.227817196917613
1658789416750420,-1.6174563210497581,0.33569848172737693,-2.227817196917613
1658789416766420,0.8239871824216607,0.5798428320745188,-2.105745021744042
1658789416782420,0.5798428320745188,0.7019150072480898,-1.8616006713969
1658789416798401,-1.4343480582895154,0.6408789196611906,-1.6174563210497581
1658789416814400,-0.2746623941404778,0.7019150072480898,-1.4343480582895154
1658789416830400,2.3498893720911838,1.0681315327688026,-0.7629510948347615
1658789416846400,0.8239871824216607,1.1902037079423735,-0.7019150072480898
1658789416862400,-3.814755474174035,0.8239871824216607,-0.8850232700083325
1658789416878399,-3.7537193865873633,0.213626306553806,-1.0070954451819034
1658789416894399,1.4953841458761872,0.7629510948347615,-0.5188067444876197
1658789416910399,1.6784924086366573,1.6174563210497581,-0.45777065690094787
1658789416926399,-0.5188067444876197,1.2512397955290453,-1.2512397955290453
1658789416942399,-0.5798428320745188,0.7629510948347615,-1.8005645838102282
1658789416958398,1.8005645838102282,0.5188067444876197,-1.6174563210497581
1658789416974398,3.570611123826893,1.1291676203554744,-1.2512397955290453
1658789416990398,1.5564202334630863,1.3122758831159445,-1.1902037079423735
1658789417006398,-0.33569848172737693,0.7019150072480898,-1.3122758831159445
1658789417022398,-0.5188067444876197,0.45777065690094787,-0.33569848172737693
1658789417038397,0.09155413138023505,-0.09155413138023505,0.15259021896690683
1658789417054397,-1.8616006713969,0.15259021896690683,-0.15259021896690683
1658789417070397,-3.7537193865873633,0.03051804379333589,-0.33569848172737693
1658789417086397,-3.3264667734797513,-0.45777065690094787,-0.45777065690094787
1658789417102397,0.15259021896690683,-0.7629510948347615,-0.213626306553806
1658789417118408,2.105745021744042,-0.7629510948347615,-0.3967345693140487
1658789417134408,0.7019150072480898,-0.15259021896690683,-0.5798428320745188
1658789417150407,-0.7019150072480898,-0.09155413138023505,-1.0070954451819034
1658789417166407,1.739528496223329,-0.15259021896690683,-1.0070954451819034
1658789417182407,3.2654306858930795,-0.2746623941404778,-0.7629510948347615
1658789417198407,2.04470893415737,-0.5188067444876197,-0.7629510948347615
1658789417214407,1.3122758831159445,-0.6408789196611906,-1.6174563210497581
1658789417230406,1.4953841458761872,-0.7629510948347615,-1.5564202334630863
1658789417246406,1.2512397955290453,-0.7629510948347615,-1.4343480582895154
1658789417262406,-1.4953841458761872,-0.8850232700083325,-2.166781109330941
1658789417278406,-1.0070954451819034,-0.45777065690094787,-2.288853284504512
1658789417294406,1.739528496223329,-0.6408789196611906,-1.8616006713969
1658789417310405,2.4719615472647547,-0.7019150072480898,-1.4953841458761872
1658789417326405,-0.6408789196611906,-0.7019150072480898,-2.288853284504512
1658789417342405,-1.6174563210497581,-0.5188067444876197,-2.532997634851654
1658789417358405,1.4343480582895154,-0.213626306553806,-2.04470893415737
1658789417374405,4.852368963149502,0.213626306553806,-1.2512397955290453
1658789417390404,2.04470893415737,0.6408789196611906,-1.0681315327688026
1658789417406404,-2.04470893415737,-0.09155413138023505,-2.04470893415737
1658789417422404,-0.8850232700083325,0.03051804379333589,-2.3498893720911838
1658789417438385,3.0823224231326094,0.7019150072480898,-1.6174563210497581
1658789417454384,2.8381780727854675,1.4343480582895154,-1.0681315327688026
1658789417470384,-2.288853284504512,1.3733119707026162,-1.6784924086366573
1658789417486384,-5.76791027695117,0.5798428320745188,-2.655069810025225
1658789417502384,-2.4719615472647547,0.7629510948347615,-2.532997634851654
1658789417518384,0.8850232700083325,1.3122758831159445,-2.166781109330941
1658789417534383,0.5798428320745188,1.4343480582895154,-1.983672846570471
1658789417550383,-0.8239871824216607,0.8239871824216607,-2.410925459678083
1658789417566383,-0.213626306553806,0.3967345693140487,-2.8381780727854675
1658789417582383,1.3733119707026162,1.0681315327688026,-2.4719615472647547
1658789417598383,1.5564202334630863,1.8005645838102282,-2.105745021744042
1658789417614382,1.4343480582895154,1.3733119707026162,-2.3498893720911838
1658789417630382,0.5188067444876197,0.6408789196611906,-2.288853284504512
1658789417646382,1.1291676203554744,0.8239871824216607,-2.227817196917613
1658789417662382,1.5564202334630863,1.8005645838102282,-1.739528496223329
1658789417678382,-0.5188067444876197,1.8616006713969,-1.6174563210497581
1658789417694381,0.213626306553806,1.5564202334630863,-1.3122758831159445
1658789417710381,1.983672846570471,1.0070954451819034,-0.2746623941404778
1658789417726381,0.7629510948347615,0.9460593575952316,0.213626306553806
1658789417742381,-2.166781109330941,0.9460593575952316,-0.213626306553806
1658789417758392,-2.105745021744042,0.5798428320745188,0.15259021896690683
1658789417774392,1.4953841458761872,0.33569848172737693,0.8850232700083325
1658789417790392,3.3264667734797513,0.8850232700083325,1.2512397955290453
1658789417806391,1.1902037079423735,1.0681315327688026,0.8850232700083325
1658789417822391,-0.45777065690094787,0.3967345693140487,0.45777065690094787
1658789417838391,1.6174563210497581,-0.15259021896690683,0.5188067444876197
1658789417854391,1.983672846570471,0.2746623941404778,0.33569848172737693
1658789417870391,1.0681315327688026,0.7629510948347615,0.15259021896690683
1658789417886390,-0.7019150072480898,0.5188067444876197,-0.8850232700083325
1658789417902390,-0.213626306553806,0.09155413138023505,-1.3122758831159445
1658789417918390,0.15259021896690683,-0.03051804379333589,-0.2746623941404778
1658789417934390,1.0681315327688026,0.09155413138023505,0.2746623941404778
1658789417950389,0.7629510948347615,0.213626306553806,-0.213626306553806
1658789417966389,-1.6784924086366573,-0.2746623941404778,-0.45777065690094787
1658789417982389,-0.8850232700083325,-0.5188067444876197,-0.7629510948347615
1658789417998389,-0.5188067444876197,-0.3967345693140487,-0.6408789196611906
1658789418014389,-1.0070954451819034,-0.5798428320745188,-1.0070954451819034
1658789418030388,0.3967345693140487,-0.5798428320745188,-1.5564202334630863
1658789418046388,3.3264667734797513,0.15259021896690683,-1.0681315327688026
1658789418062388,2.3498893720911838,0.15259021896690683,-0.8850232700083325
1658789418078369,0.7019150072480898,-0.09155413138023505,-1.3733119707026162
1658789418094369,0.5798428320745188,-0.03051804379333589,-1.6174563210497581
1658789418110368,0.9460593575952316,0.09155413138023505,-1.739528496223329
1658789418126368,-0.2746623941404778,0.33569848172737693,-1.739528496223329
1658789418142368,-2.532997634851654,0.2746623941404778,-1.4953841458761872
1658789418158368,-3.0212863355459376,0.09155413138023505,-1.2512397955290453
1658789418174368,0.15259021896690683,0.33569848172737693,-1.1902037079423735
1658789418190367,2.410925459678083,0.5798428320745188,-0.6408789196611906
1658789418206367,2.3498893720911838,1.1291676203554744,-0.03051804379333589
1658789418222367,0.33569848172737693,0.9460593575952316,-0.45777065690094787
1658789418238367,0.09155413138023505,0.7629510948347615,-0.7019150072480898
1658789418254366,2.288853284504512,1.0681315327688026,-0.15259021896690683
1658789418270366,1.9226367589837992,1.1291676203554744,0.6408789196611906
1658789418286366,0.7019150072480898,0.7629510948347615,0.9460593575952316
1658789418302366,-0.2746623941404778,0.5798428320745188,0.7019150072480898
1658789418318366,-0.09155413138023505,0.45777065690094787,0.8239871824216607
1658789418334365,0.03051804379333589,0.7019150072480898,0.9460593575952316
1658789418350365,-0.45777065690094787,0.7629510948347615,1.0681315327688026
1658789418366365,0.15259021896690683,0.7019150072480898,1.2512397955290453
1658789418382365,1.983672846570471,0.3967345693140487,1.4343480582895154
1658789418398376,2.410925459678083,0.8850232700083325,1.1902037079423735
1658789418414376,-0.45777065690094787,0.8239871824216607,0.5188067444876197
1658789418430376,-1.6174563210497581,0.33569848172737693,0.09155413138023505
1658789418446375,0.7629510948347615,0.09155413138023505,0.2746623941404778
1658789418462375,2.7161058976118966,0.33569848172737693,0.7019150072480898
1658789418478375,1.6784924086366573,1.1902037079423735,0.7629510948347615
1658789418494375,-0.8850232700083325,0.8239871824216607,-0.213626306553806
1658789418510375,-0.45777065690094787,0.5798428320745188,-0.6408789196611906
1658789418526374,1.0681315327688026,0.09155413138023505,-0.33569848172737693
1658789418542374,0.7019150072480898,0.2746623941404778,-0.03051804379333589
1658789418558374,-1.3733119707026162,0.6408789196611906,-0.8850232700083325
1658789418574374,-2.532997634851654,-0.03051804379333589,-1.8005645838102282
1658789418590374,-0.5188067444876197,-0.2746623941404778,-2.04470893415737
1658789418606373,0.09155413138023505,-0.15259021896690683,-1.8005645838102282
1658789418622373,-0.33569848172737693,0.2746623941404778,-2.166781109330941
1658789418638373,1.0681315327688026,0.7629510948347615,-1.9226367589837992
1658789418654373,3.5095750362402214,0.7629510948347615,-1.739528496223329
1658789418670373,1.6174563210497581,0.5798428320745188,-2.04470893415737
1658789418686372,-2.5940337224383256,0.45777065690094787,-2.9602502479590385
1658789418702372,-3.570611123826893,0.213626306553806,-3.1433585107195086
1658789418718353,0.9460593575952316,0.33569848172737693,-2.166781109330941
1658789418734353,3.7537193865873633,0.33569848172737693,-1.3122758831159445
1658789418750352,1.4953841458761872,0.03051804379333589,-1.3733119707026162
1658789418766352,-1.6174563210497581,-0.3967345693140487,-1.8616006713969
1658789418782352,-0.33569848172737693,-0.6408789196611906,-2.105745021744042
1658789418798352,3.2654306858930795,-0.2746623941404778,-1.3122758831159445
1658789418814352,1.983672846570471,-0.03051804379333589,-1.4343480582895154
1658789418830351,-1.1902037079423735,0.33569848172737693,-2.105745021744042
1658789418846351,-0.3967345693140487,0.33569848172737693,-2.4719615472647547
1658789418862351,3.1433585107195086,0.3967345693140487,-1.3122758831159445
1658789418878351,3.997863736934505,0.5188067444876197,-0.6408789196611906
1658789418894351,-0.5188067444876197,-0.03051804379333589,-1.4953841458761872
1658789418910350,-3.692683299000464,-0.3967345693140487,-2.04470893415737
1658789418926350,-0.45777065690094787,-0.03051804379333589,-1.9226367589837992
1658789418942350,3.4485389486533222,1.2512397955290453,-0.8850232700083325
1658789418958350,2.4719615472647547,1.5564202334630863,-0.9460593575952316
1658789418974350,-0.09155413138023505,1.0681315327688026,-1.4953841458761872
1658789418990349,-0.5188067444876197,0.5798428320745188,-1.5564202334630863
1658789419006349,2.227817196917613,0.8850232700083325,-0.8850232700083325
1658789419022349,1.0070954451819034,1.0070954451819034,-0.213626306553806
1658789419038360,-1.3733119707026162,0.3967345693140487,-0.3967345693140487
1658789419054360,-2.655069810025225,-0.213626306553806,-0.7019150072480898
1658789419070360,0.6408789196611906,-0.03051804379333589,0.15259021896690683
1658789419086360,1.739528496223329,0.7019150072480898,0.9460593575952316
1658789419102359,-0.9460593575952316,0.6408789196611906,0.15259021896690683
1658789419118359,-1.4953841458761872,0.15259021896690683,-1.1291676203554744
1658789419134359,1.1291676203554744,0.45777065690094787,-1.2512397955290453
1658789419150359,2.5940337224383256,1.4953841458761872,-1.1291676203554744
1658789419166359,0.33569848172737693,1.6784924086366573,-1.4953841458761872
1658789419182358,-1.1902037079423735,1.3733119707026162,-1.4343480582895154
1658789419198358,0.5188067444876197,0.9460593575952316,-0.7629510948347615
1658789419214358,1.8616006713969,0.7629510948347615,-0.09155413138023505
1658789419230358,-0.33569848172737693,0.6408789196611906,-0.5188067444876197
1658789419246358,-1.8616006713969,0.3967345693140487,-1.4953841458761872
1658789419262357,-1.0070954451819034,0.213626306553806,-1.739528496223329
1658789419278357,0.2746623941404778,0.2746623941404778,-1.9226367589837992
1658789419294357,0.7019150072480898,1.0681315327688026,-2.105745021744042
1658789419310357,1.6784924086366573,1.6174563210497581,-2.7771419851987957
1658789419326357,1.8616006713969,1.3733119707026162,-3.5095750362402214
1658789419342356,2.655069810025225,0.5798428320745188,-3.7537193865873633
1658789419358337,1.1902037079423735,0.45777065690094787,-3.2043945983061803
1658789419374337,-0.5188067444876197,0.5798428320745188,-3.570611123826893
1658789419390337,-0.6408789196611906,0.7019150072480898,-3.997863736934505
1658789419406336,2.410925459678083,0.09155413138023505,-3.5095750362402214
1658789419422336,4.364080262455218,0.5798428320745188,-2.8381780727854675
1658789419438336,0.09155413138023505,0.8850232700083325,-3.0823224231326094
1658789419454336,-3.692683299000464,0.33569848172737693,-3.7537193865873633
1658789419470336,-0.8239871824216607,0.2746623941404778,-3.875791561760934
1658789419486335,2.7771419851987957,0.7629510948347615,-3.2043945983061803
1658789419502335,0.5798428320745188,1.2512397955290453,-3.1433585107195086
1658789419518335,-2.227817196917613,1.0681315327688026,-3.3264667734797513
1658789419534335,-1.983672846570471,0.33569848172737693,-2.8992141603723667
1658789419550335,1.3122758831159445,0.2746623941404778,-1.8616006713969
1658789419566334,1.6784924086366573,0.7629510948347615,-1.2512397955290453
1658789419582334,-0.8239871824216607,0.7019150072480898,-1.0070954451819034
1658789419598334,-1.3122758831159445,0.2746623941404778,-0.5798428320745188
1658789419614334,1.4343480582895154,0.5798428320745188,0.2746623941404778
1658789419630334,1.9226367589837992,1.3122758831159445,1.0681315327688026
1658789419646333,0.45777065690094787,1.3122758831159445,0.45777065690094787
1658789419662333,-1.3122758831159445,0.9460593575952316,0.33569848172737693
1658789419678344,0.5798428320745188,0.33569848172737693,0.9460593575952316
1658789419694344,3.4485389486533222,0.7629510948347615,1.983672846570471
1658789419710344,0.7629510948347615,1.1902037079423735,1.8005645838102282
1658789419726344,-2.3498893720911838,0.8850232700083325,0.6408789196611906
1658789419742344,-0.5798428320745188,0.9460593575952316,0.213626306553806
1658789419758343,1.6784924086366573,1.3122758831159445,0.6408789196611906
1658789419774343,0.5188067444876197,1.4953841458761872,-0.33569848172737693
1658789419790343,-2.166781109330941,1.1902037079423735,-1.0681315327688026
1658789419806343,0.33569848172737693,0.9460593575952316,-0.5188067444876197
1658789419822342,3.814755474174035,1.0681315327688026,0.6408789196611906
1658789419838342,0.7019150072480898,0.6408789196611906,0.7629510948347615
1658789419854342,-2.3498893720911838,0.45777065690094787,-0.213626306553806
1658789419870342,-2.288853284504512,0.213626306553806,-1.0070954451819034
1658789419886342,1.0681315327688026,0.6408789196611906,-0.8239871824216607
1658789419902341,0.5798428320745188,0.5188067444876197,-1.0070954451819034
1658789419918341,-0.7019150072480898,0.7019150072480898,-1.6784924086366573
1658789419934341,-1.1902037079423735,0.7019150072480898,-2.227817196917613
1658789419950341,0.6408789196611906,0.09155413138023505,-2.655069810025225
1658789419966341,2.655069810025225,0.09155413138023505,-2.4719615472647547
1658789419982340,1.4953841458761872,0.213626306553806,-2.8992141603723667
1658789419998352,-1.3122758831159445,0.5798428320745188,-3.2043945983061803
1658789420014351,-0.2746623941404778,0.7019150072480898,-3.2043945983061803
1658789420030351,3.3875028610666504,0.9460593575952316,-2.8381780727854675
1658789420046351,0.8239871824216607,0.5188067444876197,-2.4719615472647547
1658789420062351,-3.0212863355459376,-0.45777065690094787,-2.8992141603723667
1658789420078351,-0.8239871824216607,-0.5188067444876197,-2.7771419851987957
1658789420094350,3.5095750362402214,-0.09155413138023505,-1.6784924086366573
1658789420110350,3.692683299000464,0.03051804379333589,-1.4343480582895154
1658789420126350,0.7019150072480898,-0.03051804379333589,-1.6784924086366573
1658789420142350,-1.4343480582895154,-0.15259021896690683,-2.288853284504512
1658789420158350,0.7019150072480898,0.03051804379333589,-2.410925459678083
1658789420174349,1.3733119707026162,0.5798428320745188,-1.4953841458761872
1658789420190349,0.7019150072480898,0.7019150072480898,-0.9460593575952316
1658789420206349,0.15259021896690683,0.8239871824216607,-0.5798428320745188
1658789420222349,-0.9460593575952316,-0.09155413138023505,-0.8239871824216607
1658789420238349,0.9460593575952316,-0.2746623941404778,-0.9460593575952316
1658789420254348,2.410925459678083,0.5798428320745188,-0.15259021896690683
1658789420270348,1.0681315327688026,0.7019150072480898,0.2746623941404778
1658789420286348,0.7629510948347615,0.7019150072480898,0.5798428320745188
1658789420302348,0.7629510948347615,0.15259021896690683,0.9460593575952316
1658789420318328,1.1291676203554744,-0.2746623941404778,0.8850232700083325
1658789420334328,-0.213626306553806,0.09155413138023505,0.7629510948347615
1658789420350328,-1.4343480582895154,0.15259021896690683,-0.2746623941404778
1658789420366328,-0.213626306553806,-0.03051804379333589,-0.7629510948347615
1658789420382328,2.7771419851987957,0.3967345693140487,-0.213626306553806
1658789420398327,2.9602502479590385,0.5188067444876197,-0.2746623941404778
1658789420414327,1.1291676203554744,0.5798428320745188,-0.7629510948347615
1658789420430327,0.2746623941404778,0.5798428320745188,-1.2512397955290453
1658789420446327,0.15259021896690683,0.3967345693140487,-1.1902037079423735
1658789420462327,0.09155413138023505,0.2746623941404778,-1.1291676203554744
1658789420478326,-0.5798428320745188,0.6408789196611906,-0.9460593575952316
1658789420494326,-0.45777065690094787,0.7019150072480898,-1.2512397955290453
1658789420510326,0.45777065690094787,0.7629510948347615,-1.5564202334630863
1658789420526326,1.0070954451819034,0.8850232700083325,-1.4953841458761872
1658789420542326,-0.7019150072480898,0.9460593575952316,-1.6174563210497581
1658789420558325,-0.7019150072480898,0.5188067444876197,-1.6784924086366573
1658789420574325,1.0681315327688026,0.5188067444876197,-1.3733119707026162
1658789420590325,2.655069810025225,1.0681315327688026,-0.9460593575952316
1658789420606325,1.0070954451819034,0.9460593575952316,-1.1291676203554744
1658789420622325,-1.0070954451819034,0.213626306553806,-1.2512397955290453
1658789420638336,-1.4343480582895154,-0.15259021896690683,-1.0070954451819034
1658789420654336,-0.7629510948347615,0.213626306553806,-0.6408789196611906
1658789420670335,-1.6784924086366573,1.3733119707026162,-0.6408789196611906
1658789420686335,-4.60822461280236,1.3122758831159445,-1.2512397955290453
1658789420702335,-1.739528496223329,1.1291676203554744,-1.2512397955290453
1658789420718335,-0.33569848172737693,0.7019150072480898,-0.6408789196611906
1658789420734335,-0.7629510948347615,0.5798428320745188,-0.15259021896690683
1658789420750334,-1.5564202334630863,0.6408789196611906,-0.15259021896690683
1658789420766334,-0.3967345693140487,0.33569848172737693,0.03051804379333589
1658789420782334,1.1902037079423735,-0.2746623941404778,0.8239871824216607
1658789420798334,1.1902037079423735,-0.8239871824216607,1.3733119707026162
1658789420814334,0.8850232700083325,-0.5188067444876197,0.9460593575952316
1658789420830333,-0.5188067444876197,-0.5798428320745188,0.09155413138023505
1658789420846333,0.15259021896690683,-1.0681315327688026,-0.09155413138023505
1658789420862333,0.33569848172737693,-1.2512397955290453,-0.03051804379333589
1658789420878333,-1.9226367589837992,-2.105745021744042,-0.5188067444876197
1658789420894333,-2.8381780727854675,-2.227817196917613,-1.1902037079423735
1658789420910332,-1.0681315327688026,-1.6784924086366573,-1.0070954451819034
1658789420926332,1.4343480582895154,-1.3733119707026162,-1.1291676203554744
1658789420942332,0.45777065690094787,-1.3122758831159445,-1.3733119707026162
1658789420958313,-0.213626306553806,-1.2512397955290453,-1.6784924086366573
1658789420974312,-0.15259021896690683,-0.6408789196611906,-1.3122758831159445
1658789420990312,-0.3967345693140487,-0.33569848172737693,-1.3733119707026162
1658789421006312,-1.9226367589837992,0.09155413138023505,-1.3733119707026162
1658789421022312,-4.730296787975931,-0.213626306553806,-1.2512397955290453
1658789421038312,-2.5940337224383256,0.09155413138023505,-1.2512397955290453
1658789421054311,2.166781109330941,0.5188067444876197,-0.7019150072480898
1658789421070311,2.410925459678083,0.6408789196611906,-0.9460593575952316
1658789421086311,0.2746623941404778,0.45777065690094787,-1.3122758831159445
1658789421102311,-0.15259021896690683,0.3967345693140487,-1.739528496223329
1658789421118311,1.8005645838102282,1.1291676203554744,-1.5564202334630863
1658789421134310,2.7161058976118966,1.739528496223329,-1.4953841458761872
1658789421150310,1.0070954451819034,1.0681315327688026,-1.739528496223329
1658789421166310,-0.3967345693140487,0.03051804379333589,-1.8005645838102282
1658789421182310,-0.7629510948347615,0.45777065690094787,-1.5564202334630863
1658789421198310,-0.213626306553806,1.2512397955290453,-1.5564202334630863
1658789421214309,-0.15259021896690683,1.3733119707026162,-1.4953841458761872
1658789421230309,0.8850232700083325,1.0681315327688026,-1.4953841458761872
1658789421246309,1.739528496223329,1.2512397955290453,-1.6784924086366573
1658789421262309,-0.09155413138023505,1.739528496223329,-2.105745021744042
1658789421278320,-1.3122758831159445,2.166781109330941,-2.532997634851654
1658789421294320,0.5188067444876197,2.105745021744042,-2.4719615472647547
1658789421310320,1.983672846570471,1.739528496223329,-1.739528496223329
1658789421326319,1.1902037079423735,1.6174563210497581,-0.7629510948347615
1658789421342319,-1.8005645838102282,1.6784924086366573,-0.7019150072480898
1658789421358319,-2.105745021744042,1.4343480582895154,-0.5798428320745188
1658789421374319,2.655069810025225,0.9460593575952316,-0.5188067444876197
1658789421390318,3.997863736934505,1.1291676203554744,-0.15259021896690683
1658789421406318,-0.7019150072480898,0.5188067444876197,-0.45777065690094787
1658789421422318,-2.5940337224383256,0.33569848172737693,-1.2512397955290453
1658789421438318,-0.5798428320745188,0.5188067444876197,-1.1291676203554744
1658789421454318,2.5940337224383256,0.7629510948347615,-0.9460593575952316
1658789421470317,-1.5564202334630863,0.33569848172737693,-1.2512397955290453
1658789421486317,-4.058899824521177,-0.45777065690094787,-1.739528496223329
1658789421502317,-1.1902037079423735,-0.6408789196611906,-1.0070954451819034
1658789421518317,1.6784924086366573,-0.2746623941404778,-0.09155413138023505
1658789421534317,0.213626306553806,0.03051804379333589,-0.09155413138023505
1658789421550316,-1.1291676203554744,-0.3967345693140487,-0.7629510948347615
1658789421566316,-0.6408789196611906,-0.6408789196611906,-1.3733119707026162
1658789421582316,1.5564202334630863,-0.3967345693140487,-1.3733119707026162
1658789421598297,2.227817196917613,0.213626306553806,-1.0681315327688026
1658789421614297,1.0681315327688026,-0.15259021896690683,-1.1902037079423735
1658789421630296,-1.2512397955290453,-0.8239871824216607,-1.5564202334630863
1658789421646296,-1.3122758831159445,-1.3733119707026162,-1.983672846570471
1658789421662296,0.7629510948347615,-0.3967345693140487,-1.8616006713969
1658789421678296,0.5798428320745188,0.15259021896690683,-1.4953841458761872
1658789421694296,1.0070954451819034,0.213626306553806,-1.4343480582895154
1658789421710295,2.105745021744042,-0.03051804379333589,-1.6784924086366573
1658789421726295,2.5940337224383256,0.213626306553806,-1.4953841458761872
1658789421742295,-0.09155413138023505,0.5798428320745188,-1.4953841458761872
1658789421758295,-2.655069810025225,0.8850232700083325,-1.983672846570471
1658789421774294,-3.2043945983061803,0.45777065690094787,-2.3498893720911838
1658789421790294,-0.3967345693140487,-0.09155413138023505,-1.3122758831159445
1658789421806294,0.03051804379333589,-0.33569848172737693,-0.7019150072480898
1658789421822294,-3.0823224231326094,-0.5798428320745188,-0.3967345693140487
1658789421838294,-2.288853284504512,-0.5798428320745188,0.5798428320745188
1658789421854293,3.2654306858930795,-0.33569848172737693,1.4953841458761872
1658789421870293,5.523765926604028,0.15259021896690683,2.532997634851654
1658789421886293,1.4953841458761872,0.7019150072480898,2.288853284504512
1658789421902293,-4.180971999694748,0.45777065690094787,0.7629510948347615
1658789421918304,-3.875791561760934,0.5798428320745188,0.213626306553806
1658789421934304,1.739528496223329,0.9460593575952316,0.5798428320745188
1658789421950304,3.0212863355459376,1.983672846570471,1.1902037079423735
1658789421966303,-1.6784924086366573,2.3498893720911838,0.2746623941404778
1658789421982303,-2.7771419851987957,1.983672846570471,-0.5798428320745188
1658789421998303,3.5095750362402214,2.04470893415737,0.2746623941404778
1658789422014303,3.5095750362402214,1.8616006713969,1.0070954451819034
1658789422030303,-0.33569848172737693,1.4953841458761872,0.7629510948347615
1658789422046302,-1.6784924086366573,1.3733119707026162,0.9460593575952316
1658789422062302,-0.9460593575952316,0.8239871824216607,1.3122758831159445
1658789422078302,1.1902037079423735,0.5798428320745188,1.9226367589837992
1658789422094302,1.4343480582895154,0.8850232700083325,1.6174563210497581
1658789422110302,-1.1902037079423735,1.6784924086366573,0.5188067444876197
1658789422126301,-2.7161058976118966,1.2512397955290453,-0.7629510948347615
1658789422142301,-0.15259021896690683,0.5798428320745188,-1.0070954451819034
1658789422158301,2.7771419851987957,0.7019150072480898,-0.6408789196611906
1658789422174301,2.04470893415737,1.5564202334630863,-0.45777065690094787
1658789422190301,-0.6408789196611906,1.6784924086366573,-1.0681315327688026
1658789422206300,-0.8850232700083325,1.1902037079423735,-1.4343480582895154
1658789422222300,2.227817196917613,0.5188067444876197,-1.0681315327688026
1658789422238281,2.227817196917613,0.33569848172737693,-0.9460593575952316
1658789422254281,-1.1291676203554744,0.5188067444876197,-1.739528496223329
1658789422270280,-1.1291676203554744,0.6408789196611906,-2.5940337224383256
1658789422286280,3.570611123826893,0.7629510948347615,-2.4719615472647547
1658789422302280,5.401693751430457,0.9460593575952316,-2.227817196917613
1658789422318280,0.33569848172737693,0.45777065690094787,-2.9602502479590385
1658789422334280,-3.4485389486533222,0.03051804379333589,-3.692683299000464
1658789422350279,0.213626306553806,0.3967345693140487,-2.8992141603723667
1658789422366279,3.875791561760934,0.5798428320745188,-2.4719615472647547
1658789422382279,1.2512397955290453,0.45777065690094787,-3.1433585107195086
1658789422398279,-2.5940337224383256,0.33569848172737693,-3.5095750362402214
1658789422414279,0.15259021896690683,0.6408789196611906,-3.2654306858930795
1658789422430278,4.486152437628789,1.3122758831159445,-2.227817196917613
1658789422446278,4.852368963149502,1.2512397955290453,-1.8616006713969
1658789422462278,-0.45777065690094787,0.7629510948347615,-2.288853284504512
1658789422478278,-2.8992141603723667,0.03051804379333589,-2.532997634851654
1658789422494278,0.2746623941404778,0.213626306553806,-1.3122758831159445
1658789422510277,2.655069810025225,0.8850232700083325,-0.09155413138023505
1658789422526277,1.8005645838102282,1.1902037079423735,0.09155413138023505
1658789422542277,0.33569848172737693,1.3733119707026162,-0.09155413138023505
1658789422558288,-1.1291676203554744,0.9460593575952316,-0.5798428320745188
1658789422574288,-1.1902037079423735,1.0681315327688026,-0.45777065690094787
1658789422590288,-0.33569848172737693,1.983672846570471,-0.213626306553806
1658789422606288,-0.45777065690094787,1.8005645838102282,0.09155413138023505
1658789422622287,1.5564202334630863,1.1291676203554744,0.7019150072480898
1658789422638287,1.739528496223329,0.45777065690094787,0.8239871824216607
1658789422654287,-1.0070954451819034,0.6408789196611906,0.33569848172737693
1658789422670287,-2.655069810025225,0.8239871824216607,0.03051804379333589
1658789422686287,0.5798428320745188,1.1291676203554744,0.45777065690094787
1658789422702286,2.7771419851987957,1.5564202334630863,0.8239871824216607
1658789422718286,0.7019150072480898,2.166781109330941,0.3967345693140487
1658789422734286,-2.4719615472647547,2.105745021744042,-0.5188067444876197
1658789422750286,-2.9602502479590385,1.6784924086366573,-0.45777065690094787
1658789422766286,1.6174563210497581,1.5564202334630863,-0.15259021896690683
1658789422782285,1.739528496223329,1.739528496223329,0.3967345693140487
1658789422798285,-0.33569848172737693,1.739528496223329,0.33569848172737693
1658789422814285,-1.4343480582895154,1.3733119707026162,0.5798428320745188
1658789422830285,0.8850232700083325,1.1291676203554744,1.0070954451819034
1658789422846284,0.09155413138023505,1.0070954451819034,1.0681315327688026
1658789422862284,-2.288853284504512,0.7019150072480898,0.5188067444876197
1658789422878296,-0.9460593575952316,0.5188067444876197,-0.09155413138023505
1658789422894295,2.3498893720911838,1.0070954451819034,0.2746623941404778
1658789422910295,1.3122758831159445,1.2512397955290453,0.15259021896690683
1658789422926295,-0.5188067444876197,0.8239871824216607,-0.9460593575952316
1658789422942295,-0.03051804379333589,0.8239871824216607,-1.2512397955290453
1658789422958294,1.6784924086366573,1.0070954451819034,-0.6408789196611906
1658789422974294,0.2746623941404778,0.9460593575952316,-0.5188067444876197
1658789422990294,-2.655069810025225,0.33569848172737693,-1.2512397955290453
1658789423006294,-1.0681315327688026,0.09155413138023505,-2.105745021744042
1658789423022294,2.4719615472647547,0.5188067444876197,-1.739528496223329
1658789423038293,1.983672846570471,1.0070954451819034,-1.3122758831159445
1658789423054293,-0.5798428320745188,0.3967345693140487,-1.983672846570471
1658789423070293,-1.4953841458761872,-0.5188067444876197,-2.8381780727854675
1658789423086293,1.3733119707026162,-0.8850232700083325,-2.8381780727854675
1658789423102293,1.3733119707026162,-0.33569848172737693,-2.166781109330941
1658789423118292,-0.5798428320745188,-0.213626306553806,-2.288853284504512
1658789423134292,-0.7019150072480898,-0.33569848172737693,-2.5940337224383256
1658789423150292,0.8239871824216607,-0.6408789196611906,-2.8381780727854675
1658789423166292,0.3967345693140487,-0.3967345693140487,-2.8381780727854675
1658789423182292,-0.7629510948347615,0.213626306553806,-2.8992141603723667
1658789423198272,-1.739528496223329,0.09155413138023505,-2.9602502479590385
1658789423214272,0.7019150072480898,-0.45777065690094787,-2.7771419851987957
1658789423230272,2.5940337224383256,-0.03051804379333589,-2.227817196917613
1658789423246272,0.8239871824216607,0.7019150072480898,-2.4719615472647547
1658789423262272,-0.9460593575952316,1.0070954451819034,-2.532997634851654
1658789423278271,0.33569848172737693,1.1291676203554744,-2.04470893415737
1658789423294271,2.8992141603723667,1.0681315327688026,-0.9460593575952316
1658789423310271,2.105745021744042,1.3733119707026162,-0.33569848172737693
1658789423326271,-1.4343480582895154,1.1291676203554744,-0.8239871824216607
1658789423342270,-1.9226367589837992,1.0070954451819034,-0.8239871824216607
1658789423358270,1.6174563210497581,1.2512397955290453,-0.03051804379333589
1658789423374270,3.0823224231326094,1.983672846570471,0.7019150072480898
1658789423390270,0.03051804379333589,1.8616006713969,0.6408789196611906
1658789423406270,-1.739528496223329,1.2512397955290453,0.2746623941404778
1658789423422269,0.8850232700083325,1.1291676203554744,0.45777065690094787
1658789423438269,1.0070954451819034,1.4343480582895154,0.33569848172737693
1658789423454269,-0.6408789196611906,1.5564202334630863,-0.6408789196611906
1658789423470269,-0.8850232700083325,1.9226367589837992,-0.7629510948347615
1658789423486269,0.2746623941404778,1.8005645838102282,-0.8239871824216607
1658789423502268,1.739528496223329,2.04470893415737,-0.15259021896690683
1658789423518280,1.5564202334630863,1.9226367589837992,-0.45777065690094787
1658789423534279,-1.1291676203554744,1.4343480582895154,-0.8850232700083325
1658789423550279,0.03051804379333589,1.1291676203554744,-0.7629510948347615
1658789423566279,0.3967345693140487,1.0681315327688026,-0.9460593575952316
1658789423582279,-0.7019150072480898,1.1902037079423735,-1.5564202334630863
1658789423598279,-1.3733119707026162,1.2512397955290453,-1.739528496223329
1658789423614278,0.45777065690094787,1.1291676203554744,-1.4343480582895154
1658789423630278,2.532997634851654,1.1902037079423735,-1.1291676203554744
1658789423646278,-0.09155413138023505,1.0681315327688026,-1.4343480582895154
1658789423662278,-1.8616006713969,0.33569848172737693,-2.288853284504512
1658789423678278,-1.2512397955290453,-0.03051804379333589,-2.288853284504512
1658789423694277,1.4343480582895154,0.15259021896690683,-1.2512397955290453
1658789423710277,1.9226367589837992,0.7019150072480898,-1.0070954451819034
1658789423726277,-1.2512397955290453,0.33569848172737693,-1.739528496223329
1658789423742277,-2.3498893720911838,-0.2746623941404778,-2.410925459678083
1658789423758277,1.3122758831159445,-0.03051804379333589,-2.288853284504512
1658789423774276,2.227817196917613,1.0681315327688026,-1.6174563210497581
1658789423790276,0.5798428320745188,0.7629510948347615,-1.6174563210497581
1658789423806276,0.45777065690094787,0.33569848172737693,-1.8616006713969
1658789423822276,1.1902037079423735,0.15259021896690683,-2.3498893720911838
1658789423838256,-0.09155413138023505,0.3967345693140487,-2.227817196917613
1658789423854256,-1.9226367589837992,0.213626306553806,-2.5940337224383256
1658789423870256,-1.0681315327688026,0.15259021896690683,-1.983672846570471
1658789423886256,2.655069810025225,0.09155413138023505,-1.0681315327688026
1658789423902256,2.7161058976118966,-0.03051804379333589,-1.0070954451819034
1658789423918255,-1.2512397955290453,-0.5798428320745188,-1.8616006713969
1658789423934255,-2.105745021744042,-0.7629510948347615,-1.8616006713969
1658789423950255,3.3264667734797513,-0.33569848172737693,-0.8239871824216607
1658789423966255,5.523765926604028,0.3967345693140487,0.03051804379333589
1658789423982255,1.2512397955290453,0.33569848172737693,-0.8239871824216607
1658789423998254,-1.5564202334630863,0.3967345693140487,-1.4343480582895154
1658789424014254,-0.5188067444876197,0.15259021896690683,-1.6784924086366573
1658789424030254,0.7629510948347615,0.3967345693140487,-1.2512397955290453
1658789424046254,0.45777065690094787,0.9460593575952316,-0.8239871824216607
1658789424062254,-0.45777065690094787,0.7019150072480898,-1.1291676203554744
1658789424078253,1.6174563210497581,0.8850232700083325,-1.0070954451819034
1658789424094253,1.8616006713969,0.5798428320745188,-0.8850232700083325
1658789424110253,1.0070954451819034,0.5188067444876197,-1.3122758831159445
1658789424126253,0.7019150072480898,0.8239871824216607,-1.3122758831159445
1658789424142253,0.7629510948347615,0.7019150072480898,-1.3122758831159445
1658789424158264,1.2512397955290453,0.33569848172737693,-0.6408789196611906
1658789424174264,1.0681315327688026,-0.03051804379333589,-0.213626306553806
1658789424190263,-0.2746623941404778,0.2746623941404778,-0.7019150072480898
1658789424206263,-1.5564202334630863,0.6408789196611906,-0.7629510948347615
1658789424222263,-1.1902037079423735,0.15259021896690683,-0.8239871824216607
1658789424238263,0.7019150072480898,-0.03051804379333589,-0.5188067444876197
1658789424254263,1.739528496223329,-0.03051804379333589,-0.7019150072480898
1658789424270262,0.15259021896690683,0.15259021896690683,-1.3733119707026162
1658789424286262,-0.5188067444876197,0.33569848172737693,-1.983672846570471
1658789424302262,0.8850232700083325,0.09155413138023505,-1.983672846570471
1658789424318262,2.227817196917613,0.45777065690094787,-1.3122758831159445
1658789424334262,2.4719615472647547,0.7629510948347615,-1.1291676203554744
1658789424350261,-0.8239871824216607,0.15259021896690683,-1.0070954451819034
1658789424366261,-1.4953841458761872,-0.3967345693140487,-0.9460593575952316
1658789424382261,0.7019150072480898,0.03051804379333589,-0.8850232700083325
1658789424398261,0.7019150072480898,0.213626306553806,-1.1902037079423735
1658789424414260,0.15259021896690683,0.33569848172737693,-1.6174563210497581
1658789424430260,-0.09155413138023505,0.15259021896690683,-1.6784924086366573
1658789424446260,1.1902037079423735,0.45777065690094787,-0.7629510948347615
1658789424462260,1.739528496223329,0.2746623941404778,-0.5188067444876197
1658789424478241,0.3967345693140487,0.2746623941404778,-0.5188067444876197
1658789424494240,-0.5188067444876197,-0.09155413138023505,-0.8850232700083325
1658789424510240,-0.15259021896690683,0.15259021896690683,-0.213626306553806
1658789424526240,0.8239871824216607,-0.09155413138023505,-0.5188067444876197
1658789424542240,1.0070954451819034,0.03051804379333589,-1.0070954451819034
1658789424558240,2.288853284504512,0.15259021896690683,-1.0070954451819034
1658789424574239,0.5798428320745188,0.5798428320745188,-0.6408789196611906
1658789424590239,0.2746623941404778,0.8850232700083325,-0.7629510948347615
1658789424606239,1.4953841458761872,0.8850232700083325,-1.0070954451819034
1658789424622239,1.0070954451819034,0.45777065690094787,-1.2512397955290453
1658789424638239,-0.03051804379333589,0.2746623941404778,-1.1902037079423735
1658789424654238,-0.8239871824216607,0.15259021896690683,-1.4343480582895154
1658789424670238,0.6408789196611906,0.3967345693140487,-1.2512397955290453
1658789424686238,2.105745021744042,0.7019150072480898,-0.8239871824216607
1658789424702238,2.288853284504512,0.8850232700083325,-0.6408789196611906
1658789424718238,0.7629510948347615,0.7629510948347615,-0.8850232700083325
1658789424734237,-0.03051804379333589,0.6408789196611906,-1.6784924086366573
1658789424750237,-0.6408789196611906,0.6408789196611906,-1.8005645838102282
1658789424766237,1.2512397955290453,0.45777065690094787,-1.5564202334630863
1658789424782237,1.0070954451819034,0.8850232700083325,-0.8850232700083325
1658789424798248,0.33569848172737693,1.1291676203554744,-0.7019150072480898
1658789424814248,0.6408789196611906,1.0681315327688026,-0.8850232700083325
1658789424830248,0.7019150072480898,0.3967345693140487,-1.1902037079423735
1658789424846247,0.3967345693140487,0.2746623941404778,-0.8850232700083325
1658789424862247,-1.4953841458761872,0.15259021896690683,-0.8850232700083325
1658789424878247,-1.5564202334630863,0.213626306553806,-1.3122758831159445
1658789424894247,-0.33569848172737693,0.7019150072480898,-1.3733119707026162
1658789424910246,1.3733119707026162,0.5188067444876197,-1.2512397955290453
1658789424926246,0.5798428320745188,0.7019150072480898,-0.6408789196611906
1658789424942246,1.0681315327688026,0.7629510948347615,-0.5798428320745188
1658789424958246,1.1902037079423735,0.5188067444876197,-0.5188067444876197
1658789424974246,2.227817196917613,0.6408789196611906,-0.5188067444876197
1658789424990245,1.4343480582895154,1.2512397955290453,-0.213626306553806
1658789425006245,-0.3967345693140487,1.2512397955290453,-0.5188067444876197
1658789425022245,-0.8850232700083325,0.9460593575952316,-0.6408789196611906
1658789425038245,0.6408789196611906,0.03051804379333589,0.15259021896690683
1658789425054245,1.8005645838102282,-0.213626306553806,1.1291676203554744
1658789425070244,0.6408789196611906,-0.3967345693140487,0.8239871824216607
1658789425086244,0.09155413138023505,-0.45777065690094787,-0.213626306553806
1658789425102244,2.227817196917613,0.03051804379333589,0.03051804379333589
1658789425118255,2.655069810025225,0.45777065690094787,-0.2746623941404778
1658789425134255,1.4343480582895154,0.6408789196611906,-1.1291676203554744
1658789425150255,0.6408789196611906,0.8850232700083325,-1.8616006713969
1658789425166255,0.33569848172737693,0.5798428320745188,-2.4719615472647547
1658789425182254,0.8239871824216607,0.7629510948347615,-2.410925459678083
1658789425198254,-0.2746623941404778,0.8850232700083325,-1.983672846570471
1658789425214254,0.5188067444876197,1.1291676203554744,-1.6174563210497581
1658789425230254,0.8239871824216607,1.2512397955290453,-0.8239871824216607
1658789425246254,0.09155413138023505,0.5188067444876197,-0.5798428320745188
1658789425262253,-0.7019150072480898,0.09155413138023505,-0.2746623941404778
1658789425278253,-0.7629510948347615,-0.03051804379333589,-0.09155413138023505
1658789425294253,1.1291676203554744,0.8239871824216607,-0.03051804379333589
1658789425310253,0.9460593575952316,1.1291676203554744,0.09155413138023505
1658789425326253,0.2746623941404778,1.0681315327688026,-0.2746623941404778
1658789425342252,-0.8850232700083325,0.5188067444876197,-0.7629510948347615
1658789425358252,-0.3967345693140487,0.6408789196611906,-0.6408789196611906
1658789425374252,1.5564202334630863,0.8239871824216607,-0.3967345693140487
1658789425390252,1.4953841458761872,0.7629510948347615,-0.5798428320745188
1658789425406252,-0.5798428320745188,0.03051804379333589,-1.0681315327688026
1658789425422251,-0.7629510948347615,-0.213626306553806,-1.5564202334630863
1658789425438232,0.9460593575952316,0.3967345693140487,-1.3122758831159445
1658789425454232,1.0681315327688026,0.8850232700083325,-1.4343480582895154
1658789425470232,0.6408789196611906,0.5188067444876197,-2.105745021744042
1658789425486231,-0.6408789196611906,-0.03051804379333589,-2.410925459678083
1658789425502231,0.8239871824216607,0.33569848172737693,-2.288853284504512
1658789425518231,2.04470893415737,0.7019150072480898,-2.105745021744042
1658789425534231,2.227817196917613,0.7019150072480898,-2.105745021744042
1658789425550231,1.739528496223329,0.45777065690094787,-2.288853284504512
1658789425566230,1.9226367589837992,0.6408789196611906,-2.227817196917613
1658789425582230,-0.213626306553806,0.8850232700083325,-2.105745021744042
1658789425598230,-1.0681315327688026,0.5798428320745188,-2.288853284504512
1658789425614230,0.8850232700083325,0.3967345693140487,-1.739528496223329
1658789425630230,2.288853284504512,0.213626306553806,-1.1291676203554744
1658789425646229,2.410925459678083,0.6408789196611906,-0.6408789196611906
1658789425662229,1.6174563210497581,1.3122758831159445,-1.1291676203554744
1658789425678229,-0.15259021896690683,1.1902037079423735,-2.04470893415737
1658789425694229,-0.15259021896690683,1.1902037079423735,-1.739528496223329
1658789425710229,1.4343480582895154,1.0681315327688026,-1.1902037079423735
1658789425726228,0.7019150072480898,1.4343480582895154,-0.6408789196611906
1658789425742228,-1.1902037079423735,1.1291676203554744,-0.8239871824216607
1658789425758239,-0.8239871824216607,0.45777065690094787,-1.1291676203554744
1658789425774239,1.8005645838102282,0.2746623941404778,-0.33569848172737693
1658789425790239,2.532997634851654,0.7629510948347615,0.33569848172737693
1658789425806239,1.1291676203554744,0.8239871824216607,0.09155413138023505
1658789425822239,0.09155413138023505,0.2746623941404778,-0.213626306553806
1658789425838238,1.1291676203554744,-0.03051804379333589,-0.2746623941404778
1658789425854238,1.6784924086366573,0.213626306553806,-0.2746623941404778
1658789425870238,-0.7019150072480898,0.2746623941404778,-0.8850232700083325
1658789425886238,0.09155413138023505,0.3967345693140487,-1.1291676203554744
1658789425902238,1.6174563210497581,0.6408789196611906,-0.8239871824216607
1658789425918237,1.4343480582895154,0.6408789196611906,-0.8239871824216607
1658789425934237,0.5798428320745188,0.213626306553806,-0.5798428320745188
1658789425950237,2.105745021744042,0.2746623941404778,-0.5188067444876197
1658789425966237,1.983672846570471,0.5188067444876197,-0.45777065690094787
1658789425982236,-1.0681315327688026,-0.213626306553806,-1.2512397955290453
1658789425998236,-1.8005645838102282,-0.09155413138023505,-1.739528496223329
1658789426014236,1.6784924086366573,0.45777065690094787,-1.5564202334630863
1658789426030236,3.5095750362402214,1.0681315327688026,-0.9460593575952316
1658789426046236,1.6174563210497581,0.5188067444876197,-1.4343480582895154
1658789426062235,-0.6408789196611906,0.03051804379333589,-2.227817196917613
1658789426078216,-0.5798428320745188,-0.33569848172737693,-1.983672846570471
1658789426094216,0.8850232700083325,0.09155413138023505,-1.8616006713969
1658789426110216,0.8850232700083325,0.33569848172737693,-2.166781109330941
1658789426126216,1.1902037079423735,0.7019150072480898,-1.983672846570471
1658789426142215,1.9226367589837992,0.8850232700083325,-2.04470893415737
1658789426158215,0.33569848172737693,1.0681315327688026,-2.410925459678083
1658789426174215,-1.4343480582895154,0.7019150072480898,-2.227817196917613
1658789426190215,0.8850232700083325,0.6408789196611906,-1.1902037079423735
1658789426206215,2.288853284504512,1.2512397955290453,-0.45777065690094787
1658789426222214,-0.7629510948347615,1.0070954451819034,-0.45777065690094787
1658789426238214,-1.983672846570471,0.3967345693140487,0.213626306553806
1658789426254214,1.4343480582895154,0.45777065690094787,1.1902037079423735
1658789426270214,3.1433585107195086,1.3122758831159445,1.739528496223329
1658789426286213,-1.0681315327688026,1.739528496223329,1.5564202334630863
1658789426302213,-4.547188525215461,1.5564202334630863,1.8005645838102282
1658789426318213,-1.1902037079423735,1.3733119707026162,3.2654306858930795
1658789426334213,0.2746623941404778,1.5564202334630863,4.486152437628789
1658789426350213,-2.166781109330941,1.4953841458761872,5.523765926604028
1658789426366212,-5.462729839017356,1.2512397955290453,6.805523765926637
1658789426382212,-4.119935912108076,1.1291676203554744,8.087281605249018
1658789426398224,-0.9460593575952316,1.5564202334630863,9.002822919050914
1658789426414223,-2.8992141603723667,2.288853284504512,10.040436408026153
1658789426430223,-4.9134050507361735,2.288853284504512,10.955977721828049
1658789426446223,-1.3122758831159445,2.655069810025225,12.4208438239109
1658789426462223,2.227817196917613,3.1433585107195086,14.618142977035177
1658789426478222,-1.5564202334630863,3.7537193865873633,15.899900816357558
1658789426494222,-8.51453421835663,3.6316472114137923,16.1440451667047
1658789426510222,-10.223544670786623,3.2043945983061803,16.632333867398984
1658789426526222,-4.547188525215461,3.2043945983061803,18.524452582589447
1658789426542222,-2.5940337224383256,4.058899824521177,21.026932173647538
1658789426558221,-7.11070420386045,3.814755474174035,21.14900434882111
1658789426574221,-9.918364232852582,4.180971999694748,21.210040436408008
1658789426590221,-6.683451590753066,4.42511635004189,22.369726100556818
1658789426606221,-0.8239871824216607,5.157549401083315,23.224231326771815
1658789426622221,-1.6174563210497581,5.828946364538069,23.7125200274661
1658789426638220,-7.476920729381163,5.401693751430457,23.102159151598244
1658789426654220,-8.697642481116873,5.279621576256886,21.820401312275862
1658789426670220,-5.2185854886702145,5.95101853971164,22.247653925383247
1658789426686220,-3.3875028610666504,6.805523765926637,22.980086976424673
1658789426702220,-6.134126802471883,7.660028992141633,22.73594262607753
1658789426718200,-10.528725108720437,7.476920729381163,22.125581750209676
1658789426734200,-5.523765926604028,7.660028992141633,21.57625696192872
1658789426750200,0.7629510948347615,9.185931181811156,23.346303501945386
1658789426766200,-2.288853284504512,9.979400320439481,24.444953078507524
1658789426782199,-8.148317692835917,9.246967269398056,24.26184481574728
1658789426798199,-8.087281605249018,8.33142595559616,25.36049439230942
1658789426814199,-0.8850232700083325,8.880750743877343,27.435721370260126
1658789426830199,-1.4343480582895154,9.613183794918768,29.08369573510322
1658789426846199,-9.430075532158298,8.880750743877343,28.717479209582507
1658789426862198,-12.054627298390187,9.002822919050914,28.534370946822264
1658789426878198,-4.486152437628789,10.162508583199724,29.32784008545036
1658789426894198,0.8239871824216607,11.20012207217519,30.670634012359642
1658789426910198,-4.242008087281647,11.383230334935433,30.914778362706784
1658789426926198,-10.528725108720437,10.89494163424115,30.243381399252257
1658789426942197,-5.76791027695117,11.322194247348762,30.54856183718607
1658789426958197,-0.09155413138023505,11.993591210803288,31.342030975814396
1658789426974197,-5.096513313496644,12.298771648737329,30.54856183718607
1658789426990197,-12.4208438239109,11.871519035629717,29.571984435797503
1658789427006197,-12.054627298390187,12.115663385976859,29.877164873731545
1658789427022196,-3.997863736934505,13.45845731288614,30.4264896620125
1658789427038208,-3.936827649347606,14.496070801861606,31.342030975814396
1658789427054207,-9.246967269398056,14.251926451514464,31.76928358892178
1658789427070207,-8.33142595559616,13.885709925993751,33.17311360341796
1658789427086207,0.6408789196611906,13.76363775082018,37.506675822079615
1658789427102207,0.45777065690094787,13.824673838406852,41.8402380407415
1658789427118207,-10.162508583199724,12.23773556115043,42.57267109178292
1658789427134206,-17.66994735637445,10.833905546654478,43.36614023041102
1658789427150206,-12.359807736324,10.772869459067579,46.60105287251076
1658789427166206,-7.17174029144735,11.383230334935433,49.591821164263365
1658789427182206,-12.4208438239109,11.627374685282575,50.93461509117242
1658789427198206,-20.294499122606112,12.176699473563758,50.507362478064806
1658789427214205,-19.684138246738257,13.45845731288614,50.14114595254432
1658789427230205,-13.885709925993751,14.251926451514464,51.17875944151956
1658789427246205,-9.246967269398056,14.80125123979542,51.5449759670405
1658789427262205,-12.726024261844714,14.618142977035177,51.30083161669336
1658789427278205,-14.80125123979542,14.190890363927565,50.99565117875909
1658789427294204,-14.618142977035177,12.970168612191856,51.667048142213844
1658789427310204,-11.07804989700162,12.787060349431613,53.86434729533812
1658789427326204,-14.068818188753994,13.58052948805971,55.87853818570193
1658789427342204,-20.538643472953254,13.336385137712568,56.24475471122287
1658789427358215,-25.23842221713585,10.528725108720437,55.87853818570193
1658789427374215,-16.44922560463874,8.087281605249018,57.58754863813192
1658789427390215,-10.284580758373295,9.918364232852582,59.723811703669526
1658789427406214,-15.289539940489703,11.627374685282575,58.625162127107615
1658789427422214,-21.14900434882111,10.589761196307336,54.23056382085906
1658789427438214,-21.210040436408008,10.345616845960194,53.25398641947049
1658789427454214,-14.98435950255589,12.603952086671143,54.596780346379546
1658789427470214,-17.303730830853738,13.397421225299468,53.74227512016478
1658789427486213,-21.45418478675515,12.664988174258042,49.83596551461051
1658789427502213,-13.76363775082018,12.359807736324,47.760738536659574
1658789427518213,-8.697642481116873,14.98435950255589,49.83596551461051
1658789427534213,-15.777828641183987,15.472648203250174,49.83596551461051
1658789427550212,-18.036163881895163,14.618142977035177,48.79835202563481
1658789427566212,-6.8665598535133086,13.702601663233281,50.812542915999074
1658789427582212,0.213626306553806,14.190890363927565,54.352635996032404
1658789427598212,-11.810482948043045,13.702601663233281,53.25398641947049
1658789427614212,-27.98504615854108,12.298771648737329,49.46974898908957
1658789427630211,-26.276035706111088,10.589761196307336,48.126955062180514
1658789427646211,-11.688410772869474,11.505302510109004,50.629434653238604
1658789427662211,-7.782101167315204,14.373998626688035,51.728084229800515
1658789427678192,-18.89066910811016,15.533684290836845,49.225604638742425
1658789427694192,-20.843823910887295,15.350576028076603,46.47898069733719
1658789427710191,-12.664988174258042,13.824673838406852,46.05172808422958
1658789427726191,-1.9226367589837992,13.092240787365427,48.371099412527656
1658789427742191,-6.256198977645454,14.496070801861606,49.042496375981955
1658789427758191,-16.693369954985883,12.664988174258042,46.967269398031476
1658789427774191,-16.571297779812312,9.67421988250544,46.723125047684334
1658789427790190,-6.378271152819025,9.430075532158298,49.53078507667624
1658789427806190,-5.584802014190927,11.322194247348762,51.30083161669336
1658789427822190,-18.280308232242305,13.336385137712568,47.943846799420044
1658789427838190,-27.92401007095441,11.01701380941472,41.7792019531546
1658789427854189,-18.036163881895163,10.650797283894008,39.58190280003032
1658789427870189,-7.232776379034021,13.214312962538997,42.20645456626221
1658789427886189,-11.810482948043045,16.388189517051842,42.633707179369594
1658789427902189,-14.740215152208748,15.594720378423744,40.375371938658645
1658789427918189,-10.528725108720437,13.153276874952326,39.58190280003032
1658789427934188,-4.242008087281647,10.955977721828049,39.21568627450961
1658789427950188,-3.3875028610666504,11.749446860456146,41.535057602807456
1658789427966188,-10.040436408026153,11.261158159761862,43.12199588006388
1658789427982188,-14.862287327382319,8.45349813076973,42.20645456626221
1658789427998199,-10.467689021133765,7.476920729381163,41.65712977798103
1658789428014199,-5.706874189364498,9.369039444571627,43.54924849317149
1658789428030199,-10.589761196307336,9.430075532158298,43.67132066834506
1658789428046198,-18.89066910811016,6.500343327992596,40.86366063935293
1658789428062198,-17.48683909361398,3.997863736934505,40.43640802624532
1658789428078198,-8.941786831464015,5.828946364538069,41.96231021591507
1658789428094198,-2.7161058976118966,9.063859006637585,41.10780498970007
1658789428110198,-7.232776379034021,9.063859006637585,37.384603646906044
1658789428126197,-11.627374685282575,7.354848554207592,34.69901579308748
1658789428142197,-7.354848554207592,6.622415503166167,35.61455710688938
1658789428158197,-6.805523765926637,8.575570305943302,37.44563973449294
1658789428174197,-9.796292057679011,8.880750743877343,36.469062333104375
1658789428190197,-14.373998626688035,7.782101167315204,33.96658274204606
1658789428206196,-14.129854276340893,6.195162890058782,32.501716639963206
1658789428222196,-10.101472495613052,6.744487678339738,33.29518577859153
1658789428238196,-10.955977721828049,7.354848554207592,33.600366216525344
1658789428254196,-14.068818188753994,6.561379415579495,31.89135576409535
1658789428270196,-9.67421988250544,7.476920729381163,31.403067063401068
1658789428286195,-3.0212863355459376,9.308003356984727,33.23414969100463
1658789428302195,-7.354848554207592,9.491111619745197,32.99000534065749
1658789428318176,-17.120622568093268,7.17174029144735,29.26680399786369
1658789428334176,-20.843823910887295,5.889982452124741,27.61882963302037
1658789428350175,-14.80125123979542,6.683451590753066,28.96162355992965
1658789428366175,-9.55214770733187,8.880750743877343,30.975814450293683
1658789428382175,-8.941786831464015,9.796292057679011,31.036850537880355
1658789428398175,-11.261158159761862,7.4158846417944915,30.30441748683893
1658789428414175,-9.246967269398056,5.523765926604028,30.121309224078686
1658789428430174,-4.42511635004189,6.073090714885211,30.121309224078686
1658789428446174,-5.096513313496644,7.537956816968062,29.20576791027679
1658789428462174,-7.476920729381163,8.087281605249018,28.473334859235365
1658789428478174,-9.124895094224485,8.758678568703772,28.290226596475122
1658789428494174,-6.134126802471883,9.002822919050914,27.435721370260126
1658789428510173,-2.166781109330941,9.185931181811156,25.36049439230942
1658789428526173,-4.730296787975931,9.369039444571627,23.407339589532285
1658789428542173,-11.627374685282575,9.185931181811156,21.881437399862534
1658789428558173,-10.833905546654478,8.6366063935302,21.637293049515392
1658789428574173,-8.819714656290444,7.904173342488775,21.39314869916825
1658789428590172,-6.317235065232353,7.11070420386045,19.9282825970854
1658789428606172,0.8850232700083325,8.148317692835917,19.378957808804444
1658789428622172,5.889982452124741,9.73525597009234,20.17242694743254
1658789428638183,5.523765926604028,10.223544670786623,20.660715648126825
1658789428654183,5.157549401083315,8.33142595559616,20.477607385366582
1658789428670183,5.2185854886702145,8.026245517662346,21.026932173647538
1658789428686183,0.45777065690094787,9.796292057679011,22.49179827573039
1658789428702182,-6.927595941100208,8.51453421835663,22.064545662623004
1658789428718182,-10.040436408026153,5.584802014190927,20.11139085984587
1658789428734182,-8.33142595559616,5.279621576256886,19.501029983978015
1658789428750182,-10.467689021133765,6.500343327992596,19.501029983978015
1658789428766182,-15.228503852903032,6.073090714885211,17.975127794308264
1658789428782181,-9.918364232852582,6.439307240405924,17.36476691844041
1658789428798181,-1.2512397955290453,7.049668116273779,17.181658655680167
1658789428814181,1.6784924086366573,6.9886320286868795,16.998550392919697
1658789428830181,-1.1291676203554744,7.598992904554734,16.510261692225413
1658789428846181,-3.3875028610666504,7.598992904554734,15.655756466010416
1658789428862180,-1.9226367589837992,5.889982452124741,14.251926451514464
1658789428878180,-0.3967345693140487,4.974441138323073,14.312962539101136
1658789428894180,0.3967345693140487,6.012054627298312,15.655756466010416
1658789428910180,-4.669260700389032,6.500343327992596,16.1440451667047
1658789428926180,-5.462729839017356,5.828946364538069,16.2050812542916
1658789428942179,-2.166781109330941,5.157549401083315,16.876478217746126
1658789428958160,-2.655069810025225,4.242008087281647,17.24269474326684
1658789428974160,-3.936827649347606,3.3875028610666504,16.693369954985883
1658789428990160,-4.42511635004189,2.9602502479590385,16.1440451667047
1658789429006159,1.0070954451819034,2.8992141603723667,15.472648203250174
1658789429022159,2.410925459678083,2.8381780727854675,14.251926451514464
1658789429038159,-3.1433585107195086,2.227817196917613,13.153276874952326
1658789429054159,-3.2654306858930795,2.410925459678083,12.970168612191856
1658789429070159,-1.2512397955290453,2.4719615472647547,12.848096437018285
1658789429086158,-2.105745021744042,1.6784924086366573,11.261158159761862
1658789429102158,-6.683451590753066,1.739528496223329,8.33142595559616
1658789429118158,-10.162508583199724,1.1902037079423735,6.378271152819025
1658789429134158,-9.002822919050914,0.9460593575952316,6.134126802471883
1658789429150158,-4.119935912108076,1.5564202334630863,5.889982452124741
1658789429166157,-1.4343480582895154,0.8239871824216607,3.692683299000464
1658789429182157,3.1433585107195086,1.1291676203554744,1.983672846570471
1658789429198157,2.4719615472647547,1.6174563210497581,1.9226367589837992
1658789429214157,-2.8381780727854675,0.7629510948347615,1.0070954451819034
1658789429230157,-0.6408789196611906,0.5188067444876197,-0.213626306553806
1658789429246156,1.2512397955290453,0.213626306553806,-1.3122758831159445
1658789429262156,1.2512397955290453,-0.45777065690094787,-2.7771419851987957
1658789429278167,0.3967345693140487,-0.2746623941404778,-3.692683299000464
1658789429294167,0.7019150072480898,-0.09155413138023505,-4.364080262455218
1658789429310167,3.936827649347606,0.15259021896690683,-5.95101853971164
1658789429326167,4.486152437628789,-1.1291676203554744,-7.965209430075447
1658789429342167,4.791332875562603,-0.8850232700083325,-8.51453421835663
1658789429358166,3.7537193865873633,-0.7019150072480898,-7.476920729381163
1658789429374166,1.3733119707026162,-1.0681315327688026,-7.476920729381163
1658789429390166,-1.983672846570471,-2.105745021744042,-9.246967269398056
1658789429406166,-2.288853284504512,-2.655069810025225,-10.89494163424115
1658789429422165,-1.5564202334630863,-3.0212863355459376,-11.566338597695903
1658789429438165,-2.288853284504512,-4.180971999694748,-11.871519035629717
1658789429454165,-3.936827649347606,-4.974441138323073,-13.153276874952326
1658789429470165,-4.791332875562603,-4.60822461280236,-15.167467765316132
1658789429486165,-0.7019150072480898,-4.242008087281647,-16.937514305333025
1658789429502164,6.378271152819025,-3.692683299000464,-17.975127794308264
1658789429518164,10.772869459067579,-2.7771419851987957,-18.158236057068734
1658789429534164,8.148317692835917,-2.105745021744042,-18.58548867017612
1658789429550164,8.819714656290444,-1.739528496223329,-18.70756084534969
1658789429566164,11.139085984588291,-2.166781109330941,-18.219272144655406
1658789429582163,10.711833371480907,-3.5095750362402214,-17.120622568093268
1658789429598175,9.796292057679011,-4.058899824521177,-15.289539940489703
1658789429614174,9.979400320439481,-3.2043945983061803,-13.031204699778755
1658789429630174,9.369039444571627,-3.2043945983061803,-10.955977721828049
1658789429646174,6.683451590753066,-4.791332875562603,-10.040436408026153
1658789429662174,2.655069810025225,-7.11070420386045,-10.711833371480907
1658789429678174,-0.15259021896690683,-8.026245517662346,-12.298771648737329
1658789429694173,-5.462729839017356,-8.209353780422589,-14.251926451514464
1658789429710173,-5.3406576638437855,-6.805523765926637,-16.388189517051842
1658789429726173,1.0070954451819034,-6.195162890058782,-18.097199969481835
1658789429742173,10.772869459067579,-4.42511635004189,-17.36476691844041
1658789429758173,13.397421225299468,-2.3498893720911838,-15.533684290836845
1658789429774172,10.955977721828049,-1.983672846570471,-15.350576028076603
1658789429790172,10.711833371480907,-2.5940337224383256,-15.716792553597315
1658789429806172,10.284580758373295,-4.242008087281647,-15.838864728770886
1658789429822172,5.279621576256886,-6.012054627298312,-15.838864728770886
1658789429838172,-2.04470893415737,-6.683451590753066,-16.44922560463874
1658789429854171,-5.0354772259097444,-7.476920729381163,-16.388189517051842
1658789429870171,-2.105745021744042,-7.11070420386045,-16.32715342946517
1658789429886171,1.983672846570471,-6.805523765926637,-16.937514305333025
1658789429902171,4.242008087281647,-7.476920729381163,-18.158236057068734
1658789429918151,4.974441138323073,-8.087281605249018,-18.646524757763018
1658789429934151,8.087281605249018,-7.476920729381163,-18.402380407415876
1658789429950151,9.67421988250544,-6.561379415579495,-19.073777370870403
1658789429966151,8.087281605249018,-7.2938124666209205,-21.33211261158158
1658789429982151,7.11070420386045,-7.904173342488775,-22.919050888838
1658789429998150,6.134126802471883,-7.049668116273779,-23.041123064011572
1658789430014150,6.805523765926637,-6.073090714885211,-21.759365224688963
1658789430030150,2.7771419851987957,-5.0354772259097444,-22.125581750209676
1658789430046150,1.8616006713969,-6.134126802471883,-24.933241779201808
1658789430062150,7.049668116273779,-6.378271152819025,-26.031891355763946
1658789430078149,6.561379415579495,-6.012054627298312,-25.543602655069662
1658789430094149,5.096513313496644,-5.645838101777599,-24.628061341267994
1658789430110149,2.8992141603723667,-5.645838101777599,-25.29945830472252
1658789430126149,5.462729839017356,-5.706874189364498,-26.886396581978943
1658789430142149,6.9886320286868795,-5.2185854886702145,-28.229190508888223
1658789430158148,5.95101853971164,-5.279621576256886,-29.32784008545036
1658789430174148,8.819714656290444,-4.974441138323073,-28.839551384756078
1658789430190148,8.697642481116873,-5.096513313496644,-29.571984435797503
1658789430206148,6.134126802471883,-6.378271152819025,-32.25757228961629
1658789430222148,7.782101167315204,-7.049668116273779,-33.90554665445961
1658789430238159,11.139085984588291,-7.11070420386045,-32.6848249027239
1658789430254159,10.223544670786623,-6.683451590753066,-31.097886625467254
1658789430270158,5.828946364538069,-6.8665598535133086,-32.99000534065772
1658789430286158,4.791332875562603,-7.782101167315204,-35.91973754482342
1658789430302158,6.012054627298312,-9.063859006637585,-36.89631494621199
1658789430318158,6.622415503166167,-10.589761196307336,-36.16388189517056
1658789430334158,7.598992904554734,-9.613183794918768,-34.57694361791414
1658789430350157,5.95101853971164,-9.185931181811156,-36.713206683451745
1658789430366157,5.3406576638437855,-10.284580758373295,-41.22987716487387
1658789430382157,11.688410772869474,-11.07804989700162,-42.69474326695672
1658789430398157,16.815442130159454,-11.20012207217519,-40.80262455176626
1658789430414157,17.303730830853738,-9.73525597009234,-39.093614099336264
1658789430430156,14.435034714274707,-9.185931181811156,-40.80262455176626
1658789430446156,8.209353780422589,-11.322194247348762,-44.037537193866
1658789430462156,5.462729839017356,-13.214312962538997,-46.17380025940338
1658789430478156,8.270389868009488,-13.702601663233281,-44.403753719386714
1658789430494156,8.45349813076973,-13.275349050125897,-42.63370717936982
1658789430510155,5.706874189364498,-13.45845731288614,-45.31929503318838
1658789430526155,9.246967269398056,-15.289539940489703,-47.8217746242467
1658789430542155,16.876478217746126,-16.876478217746126,-45.868619821469565
1658789430558166,18.097199969481835,-16.693369954985883,-43.73235675593196
1658789430574166,11.01701380941472,-15.350576028076603,-46.23483634699028
1658789430590166,7.476920729381163,-14.251926451514464,-50.934615091172645
1658789430606166,9.85732814526591,-14.618142977035177,-53.13191424429692
1658789430622165,17.120622568093268,-13.275349050125897,-51.6060120546274
1658789430638165,13.031204699778755,-10.772869459067579,-51.36186770428026
1658789430654165,5.95101853971164,-11.627374685282575,-56.244754711223095
1658789430670165,6.500343327992596,-12.909132524605184,-58.01480125123976
1658789430686164,15.10643167772946,-13.946746013580423,-55.57335774776834
1658789430702164,18.463416495002548,-13.64156557564661,-50.44632639047836
1658789430718164,15.716792553597315,-12.603952086671143,-50.995651178759545
1658789430734164,3.997863736934505,-13.64156557564661,-55.87853818570238
1658789430750164,3.3264667734797513,-14.373998626688035,-58.19790951400023
1658789430766163,9.979400320439481,-11.749446860456146,-55.14610513466096
1658789430782163,12.787060349431613,-9.430075532158298,-51.239795529106686
1658789430798163,11.871519035629717,-8.575570305943302,-50.812542915999074
1658789430814163,12.664988174258042,-9.308003356984727,-51.6060120546274
1658789430830163,13.336385137712568,-11.20012207217519,-48.98146028839551
1658789430846162,13.153276874952326,-12.054627298390187,-44.76997024490743
1658789430862162,9.491111619745197,-11.932555123216616,-43.61028458075839
1658789430878173,1.5564202334630863,-13.64156557564661,-44.70893415732053
1658789430894173,5.0354772259097444,-14.496070801861606,-44.464789806973386
1658789430910173,15.594720378423744,-13.76363775082018,-41.1078049897003
1658789430926173,19.01274128328373,-11.993591210803288,-37.38460364690627
1658789430942173,9.979400320439481,-12.603952086671143,-38.42221713588174
1658789430958172,-0.33569848172737693,-13.64156557564661,-41.16884107728697
1658789430974172,2.655069810025225,-13.092240787365427,-42.51163500419625
1658789430990172,10.955977721828049,-12.115663385976859,-39.82604715037769
1658789431006172,14.129854276340893,-10.833905546654478,-36.28595407034413
1658789431022172,5.828946364538069,-10.833905546654478,-37.2625314717327
1658789431038171,-0.8850232700083325,-11.20012207217519,-40.680552376592686
1658789431054171,8.392462043183059,-9.979400320439481,-39.94811932555126
1658789431070171,15.594720378423744,-9.55214770733187,-35.91973754482342
1658789431086171,13.092240787365427,-9.796292057679011,-34.3938353551539
1658789431102171,6.927595941100208,-10.833905546654478,-35.55352101930271
1658789431118170,6.012054627298312,-11.871519035629717,-35.24834058136889
1658789431134170,11.505302510109004,-11.505302510109004,-32.37964446478986
1658789431150170,14.129854276340893,-10.89494163424115,-29.571984435797503
1658789431166170,12.4208438239109,-11.01701380941472,-28.900587472342977
1658789431182170,8.6366063935302,-11.20012207217519,-29.694056610971074
1658789431198150,8.148317692835917,-10.833905546654478,-29.14473182269012
1658789431214150,8.148317692835917,-11.20012207217519,-27.191577019912984
1658789431230150,9.73525597009234,-10.833905546654478,-25.42153047989609
1658789431246150,7.476920729381163,-9.246967269398056,-26.276035706111088
1658789431262149,1.4953841458761872,-9.063859006637585,-29.877164873731545
1658789431278149,7.721065079728305,-8.758678568703772,-30.243381399252257
1658789431294149,13.946746013580423,-8.392462043183059,-26.82536049439227
1658789431310149,14.129854276340893,-7.660028992141633,-25.36049439230942
1658789431326149,11.749446860456146,-7.4158846417944915,-25.848783093003703
1658789431342148,9.491111619745197,-7.660028992141633,-25.909819180590375
1658789431358148,8.819714656290444,-9.308003356984727,-25.48256656748299
1658789431374148,8.392462043183059,-8.941786831464015,-24.01770046540014
1658789431390148,5.157549401083315,-7.904173342488775,-24.322880903333953
1658789431406148,3.0823224231326094,-8.758678568703772,-26.58121614404513
1658789431422147,2.288853284504512,-9.55214770733187,-26.947432669565842
1658789431438147,4.791332875562603,-9.369039444571627,-26.276035706111088
1658789431454147,8.6366063935302,-8.087281605249018,-25.29945830472252
1658789431470147,11.444266422522333,-7.2938124666209205,-25.848783093003703
1658789431486147,11.261158159761862,-8.45349813076973,-26.7032883192187
1658789431502146,8.758678568703772,-9.002822919050914,-26.337071793697987
1658789431518158,7.660028992141633,-8.392462043183059,-26.52018005645823
1658789431534157,5.401693751430457,-7.4158846417944915,-27.679865720607268
1658789431550157,6.561379415579495,-7.049668116273779,-28.717479209582507
1658789431566157,11.871519035629717,-7.904173342488775,-28.595407034408936
1658789431582157,14.373998626688035,-8.51453421835663,-26.7032883192187
1658789431598157,10.711833371480907,-8.270389868009488,-26.459143968871558
1658789431614156,2.105745021744042,-8.392462043183059,-28.412298771648693
1658789431630156,2.04470893415737,-7.354848554207592,-29.816128786144645
1658789431646156,10.406652933546866,-6.378271152819025,-29.571984435797503
1658789431662156,12.542915999084471,-5.523765926604028,-29.26680399786369
1658789431678156,6.195162890058782,-6.500343327992596,-31.403067063401295
1658789431694155,1.2512397955290453,-6.134126802471883,-32.19653620202962
1658789431710155,6.378271152819025,-6.378271152819025,-31.89135576409558
1658789431726155,13.031204699778755,-5.95101853971164,-30.36545357442583
1658789431742155,10.284580758373295,-5.889982452124741,-30.73167009994654
1658789431758154,7.232776379034021,-6.256198977645454,-32.13550011444272
1658789431774154,11.505302510109004,-6.317235065232353,-31.158922713053926
1658789431790154,18.402380407415876,-6.073090714885211,-29.32784008545036
1658789431806154,18.82963302052326,-5.462729839017356,-28.534370946822264
1658789431822154,8.45349813076973,-6.378271152819025,-30.4875257495994
1658789431838165,0.7019150072480898,-7.11070420386045,-32.806897077897474
1658789431854165,8.6366063935302,-6.195162890058782,-32.19653620202962
1658789431870164,15.655756466010416,-4.791332875562603,-29.633020523384403
1658789431886164,10.89494163424115,-4.486152437628789,-29.32784008545036
1658789431902164,4.180971999694748,-5.462729839017356,-30.4875257495994
1658789431918164,6.622415503166167,-6.622415503166167,-29.877164873731545
1658789431934164,12.23773556115043,-5.645838101777599,-27.86297398336751
1658789431950163,10.467689021133765,-4.119935912108076,-27.252613107499656
1658789431966163,3.7537193865873633,-3.875791561760934,-28.290226596475122
1658789431982163,7.232776379034021,-3.0212863355459376,-27.679865720607268
1658789431998163,16.815442130159454,-3.2654306858930795,-25.848783093003703
1658789432014163,16.998550392919697,-3.0212863355459376,-24.322880903333953
1658789432030162,8.697642481116873,-3.692683299000464,-24.01770046540014
1658789432046162,2.7771419851987957,-3.3875028610666504,-24.505989166094423
1658789432062162,3.936827649347606,-3.7537193865873633,-24.505989166094423
1658789432078162,10.711833371480907,-3.1433585107195086,-23.163195239185143
1658789432094162,12.176699473563758,-2.8381780727854675,-21.820401312275862
1658789432110161,2.8992141603723667,-3.0212863355459376,-22.308690012970146
1658789432126161,-2.655069810025225,-2.7771419851987957,-23.89562829022657
1658789432142161,5.401693751430457,-1.0070954451819034,-24.200808728160382
1658789432158142,12.909132524605184,0.45777065690094787,-21.637293049515392
1658789432174142,8.880750743877343,0.09155413138023505,-21.14900434882111
1658789432190141,2.5940337224383256,-0.5188067444876197,-22.430762188143717
1658789432206141,2.04470893415737,-1.4343480582895154,-21.942473487449433
1658789432222141,8.941786831464015,-1.6784924086366573,-19.9282825970854
1658789432238141,12.542915999084471,-1.1902037079423735,-17.059586480506596
1658789432254140,7.965209430075447,-0.7629510948347615,-15.960936903944457
1658789432270140,1.1291676203554744,-0.5188067444876197,-16.571297779812312
1658789432286140,-0.45777065690094787,-0.6408789196611906,-16.998550392919697
1658789432302140,5.584802014190927,-0.7629510948347615,-16.02197299153113
1658789432318140,8.819714656290444,0.213626306553806,-14.98435950255589
1658789432334139,4.364080262455218,1.0681315327688026,-15.228503852903032
1658789432350139,-0.5188067444876197,1.1902037079423735,-15.716792553597315
1658789432366139,1.5564202334630863,1.1291676203554744,-16.815442130159454
1658789432382139,6.378271152819025,2.7161058976118966,-15.350576028076603
1658789432398139,0.7629510948347615,2.9602502479590385,-12.664988174258042
1658789432414138,-5.0354772259097444,2.4719615472647547,-12.23773556115043
1658789432430138,-5.889982452124741,2.105745021744042,-10.162508583199724
1658789432446138,-3.7537193865873633,1.983672846570471,-5.279621576256886
1658789432462138,-2.5940337224383256,2.166781109330941,-1.4953841458761872
1658789432478149,-6.012054627298312,2.8381780727854675,1.0681315327688026
1658789432494149,-13.031204699778755,3.2654306858930795,3.2043945983061803
1658789432510149,-12.298771648737329,3.814755474174035,4.669260700389032
1658789432526148,-4.791332875562603,4.9134050507361735,7.660028992141633
1658789432542148,-2.166781109330941,6.622415503166167,11.01701380941472
1658789432558148,-7.843137254901876,6.8665598535133086,11.383230334935433
1658789432574148,-8.270389868009488,7.11070420386045,13.153276874952326
1658789432590148,-2.227817196917613,8.392462043183059,16.571297779812312
1658789432606147,-0.5798428320745188,9.369039444571627,19.9893186846723
1658789432622147,-7.4158846417944915,9.246967269398056,22.61387045090396
1658789432638147,-14.007782101167322,8.941786831464015,24.872205691615136
1658789432654147,-14.98435950255589,9.124895094224485,27.252613107499656
1658789432670147,-12.848096437018285,8.941786831464015,30.182345311665358
1658789432686146,-13.76363775082018,8.941786831464015,32.74586099031035
1658789432702146,-14.435034714274707,8.819714656290444,34.57694361791391
1658789432718146,-14.740215152208748,8.697642481116873,36.469062333104375
1658789432734146,-14.068818188753994,8.6366063935302,37.87289234760033
1658789432750146,-10.406652933546866,9.185931181811156,38.910505836575794
1658789432766145,-8.087281605249018,9.67421988250544,39.45983062485675
1658789432782145,-11.444266422522333,10.345616845960194,39.58190280003032
1658789432798126,-16.26611734187827,10.89494163424115,39.032578011749365
1658789432814126,-15.838864728770886,11.627374685282575,39.39879453727008
1658789432830125,-11.261158159761862,12.542915999084471,40.43640802624532
1658789432846125,-9.85732814526591,12.4208438239109,42.38956282902245
1658789432862125,-16.754406042572555,12.298771648737329,42.816815442130064
1658789432878125,-20.660715648126825,11.444266422522333,42.14541847867531
1658789432894125,-12.603952086671143,12.23773556115043,43.79339284351863
1658789432910124,-4.180971999694748,13.336385137712568,45.68551155870887
1658789432926124,-8.6366063935302,13.153276874952326,45.5634393835353
1658789432942124,-17.48683909361398,12.298771648737329,45.5634393835353
1658789432958124,-17.79201953154802,10.89494163424115,46.17380025940315
1658789432974124,-10.345616845960194,11.07804989700162,47.638666361486
1658789432990123,-6.805523765926637,12.115663385976859,48.126955062180514
1658789433006123,-11.07804989700162,12.359807736324,46.723125047684334
1658789433022123,-13.519493400473038,11.871519035629717,46.723125047684334
1658789433038123,-7.476920729381163,11.322194247348762,47.760738536659574
1658789433054123,-0.8850232700083325,11.444266422522333,49.46974898908957
1658789433070122,-4.42511635004189,12.542915999084471,50.263218127717664
1658789433086122,-14.740215152208748,12.176699473563758,48.73731593804814
1658789433102122,-15.594720378423744,11.444266422522333,48.004882887006715
1658789433118133,-7.782101167315204,11.627374685282575,49.95803768978385
1658789433134133,-5.706874189364498,12.848096437018285,51.4229037918667
1658789433150133,-12.542915999084471,11.993591210803288,49.65285725185004
1658789433166133,-15.350576028076603,10.833905546654478,48.187991149767186
1658789433182132,-7.598992904554734,11.566338597695903,48.43213550011433
1658789433198132,-2.7161058976118966,13.824673838406852,48.31006332494053
1658789433214132,-10.772869459067579,14.98435950255589,46.35690852216362
1658789433230132,-17.914091706721592,14.007782101167322,43.36614023041102
1658789433246132,-12.23773556115043,13.76363775082018,43.54924849317149
1658789433262131,-3.4485389486533222,14.496070801861606,46.47898069733719
1658789433278131,-8.51453421835663,14.190890363927565,47.27244983596529
1658789433294131,-18.524452582589447,11.20012207217519,45.92965590905601
1658789433310131,-17.36476691844041,8.6366063935302,46.60105287251076
1658789433326130,-2.227817196917613,8.270389868009488,50.38529030289146
1658789433342130,0.5798428320745188,10.223544670786623,53.315022507057165
1658789433358130,-13.275349050125897,8.880750743877343,50.20218204013099
1658789433374130,-20.843823910887295,7.2938124666209205,46.29587243457672
1658789433390130,-10.711833371480907,9.063859006637585,46.47898069733719
1658789433406129,0.5188067444876197,12.176699473563758,48.06591897459339
1658789433422129,-4.364080262455218,13.702601663233281,46.29587243457672
1658789433438110,-15.10643167772946,13.092240787365427,42.99992370489031
1658789433454110,-15.228503852903032,11.932555123216616,41.22987716487364
1658789433470110,-8.6366063935302,11.993591210803288,42.877851529716736
1658789433486109,-6.439307240405924,12.542915999084471,44.64789806973363
1658789433502109,-11.01701380941472,11.688410772869474,43.79339284351863
1658789433518109,-13.275349050125897,10.345616845960194,42.38956282902245
1658789433534109,-8.6366063935302,8.697642481116873,42.938887617303635
1658789433550109,-7.354848554207592,8.51453421835663,44.403753719386486
1658789433566108,-11.20012207217519,9.002822919050914,44.098573281452445
1658789433582108,-11.993591210803288,8.6366063935302,42.32852674143578
1658789433598108,-6.256198977645454,8.819714656290444,42.38956282902245
1658789433614108,-6.439307240405924,9.85732814526591,41.596093690394355
1658789433630108,-15.10643167772946,10.406652933546866,38.30014496070794
1658789433646107,-18.58548867017612,10.162508583199724,36.163881895170334
1658789433662107,-8.880750743877343,9.67421988250544,37.1404592965589
1658789433678107,2.105745021744042,10.833905546654478,38.910505836575794
1658789433694107,0.6408789196611906,12.787060349431613,37.9949645227739
1658789433710106,-13.58052948805971,11.993591210803288,34.2107270923932
1658789433726106,-20.660715648126825,9.918364232852582,32.562752727550105
1658789433742106,-10.711833371480907,10.772869459067579,35.126268406195095
1658789433758117,-1.3733119707026162,11.20012207217519,37.506675822079615
1658789433774117,-4.303044174868319,10.650797283894008,36.408026245517476
1658789433790117,-17.42580300602731,9.308003356984727,33.661402304112244
1658789433806117,-19.256885633630873,7.537956816968062,31.52513923857464
1658789433822116,-8.270389868009488,8.392462043183059,31.89135576409535
1658789433838116,-2.04470893415737,9.85732814526591,32.562752727550105
1658789433854116,-5.706874189364498,11.01701380941472,30.060273136491787
1658789433870116,-12.298771648737329,12.115663385976859,27.313649195086555
1658789433886116,-9.430075532158298,11.627374685282575,26.153963530937517
1658789433902115,-1.3122758831159445,12.481879911497572,27.191577019912984
1658789433918115,-2.410925459678083,12.787060349431613,26.764324406805372
1658789433934115,-10.89494163424115,10.711833371480907,24.26184481574728
1658789433950115,-9.002822919050914,9.246967269398056,25.48256656748299
1658789433966115,0.03051804379333589,9.979400320439481,29.449912260623933
1658789433982114,2.7161058976118966,10.711833371480907,31.95239185168225
1658789433998114,-6.256198977645454,8.6366063935302,30.060273136491787
1658789434014114,-10.89494163424115,5.279621576256886,28.473334859235365
1658789434030114,-7.17174029144735,4.486152437628789,31.280994888227497
1658789434046114,-4.669260700389032,6.805523765926637,33.844510566872486
1658789434062113,-9.979400320439481,8.087281605249018,33.478294041351774
1658789434078125,-14.618142977035177,7.476920729381163,29.816128786144645
1658789434094124,-9.185931181811156,6.500343327992596,27.496757457846797
1658789434110124,-4.791332875562603,7.660028992141633,29.877164873731545
1658789434126124,-7.232776379034021,8.45349813076973,32.379644464789635
1658789434142124,-8.392462043183059,8.880750743877343,34.39383535515367
1658789434158124,-5.76791027695117,7.782101167315204,33.96658274204606
1658789434174123,-5.157549401083315,5.706874189364498,33.23414969100463
1658789434190123,-11.932555123216616,5.584802014190927,32.74586099031035
1658789434206123,-19.439993896391115,5.76791027695117,31.219958800640825
1658789434222123,-17.24269474326684,6.256198977645454,30.36545357442583
1658789434238123,-6.012054627298312,6.927595941100208,30.792706187533213
1658789434254122,-0.3967345693140487,6.9886320286868795,32.440680552376534
1658789434270122,-5.157549401083315,6.500343327992596,31.95239185168225
1658789434286122,-11.444266422522333,6.134126802471883,30.060273136491787
1658789434302122,-10.406652933546866,6.378271152819025,28.290226596475122
1658789434318122,-4.058899824521177,6.9886320286868795,27.496757457846797
1658789434334121,-2.105745021744042,6.439307240405924,27.679865720607268
1658789434350121,-4.9134050507361735,6.012054627298312,27.191577019912984
1658789434366121,-5.0354772259097444,6.439307240405924,25.909819180590375
1658789434382121,-1.0681315327688026,6.9886320286868795,24.628061341267994
1658789434398101,6.073090714885211,8.575570305943302,24.07873655298681
1658789434414101,6.439307240405924,8.148317692835917,23.590447852292527
1658789434430101,1.1291676203554744,7.843137254901876,23.102159151598244
1658789434446101,-1.6174563210497581,8.575570305943302,22.308690012970146
1658789434462101,-0.33569848172737693,9.613183794918768,22.064545662623004
1658789434478100,1.8616006713969,10.833905546654478,21.759365224688963
1658789434494100,0.2746623941404778,10.711833371480907,22.430762188143717
1658789434510100,-5.889982452124741,8.758678568703772,21.33211261158158
1658789434526100,-10.284580758373295,7.049668116273779,19.256885633630873
1658789434542100,-7.843137254901876,7.476920729381163,17.42580300602731
1658789434558099,-2.7161058976118966,8.148317692835917,16.937514305333025
1658789434574099,6.195162890058782,10.162508583199724,18.219272144655406
1658789434590099,13.214312962538997,13.214312962538997,20.599679560540153
1658789434606099,10.650797283894008,12.848096437018285,19.745174334325156
1658789434622099,4.791332875562603,11.261158159761862,16.693369954985883
1658789434638098,1.5564202334630863,9.796292057679011,15.228503852903032
1658789434654098,-2.7161058976118966,10.040436408026153,16.937514305333025
1658789434670098,-4.180971999694748,10.711833371480907,19.01274128328373
1658789434686098,-0.9460593575952316,11.505302510109004,20.294499122606112
1658789434702098,2.7161058976118966,10.467689021133765,19.80621042191183
1658789434718109,-0.7019150072480898,9.85732814526591,18.58548867017612
1658789434734109,-9.002822919050914,8.941786831464015,18.219272144655406
1658789434750108,-6.683451590753066,8.941786831464015,19.1348134584573
1658789434766108,1.0681315327688026,10.040436408026153,20.416571297779683
1658789434782108,9.308003356984727,11.322194247348762,19.562066071564686
1658789434798108,9.430075532158298,11.627374685282575,18.646524757763018
1658789434814108,0.33569848172737693,10.040436408026153,17.24269474326684
1658789434830107,-5.0354772259097444,9.918364232852582,16.510261692225413
1658789434846107,-1.3733119707026162,10.223544670786623,16.571297779812312
1658789434862107,2.410925459678083,9.73525597009234,17.120622568093268
1658789434878107,1.3733119707026162,8.697642481116873,16.693369954985883
1658789434894106,-2.8381780727854675,6.8665598535133086,15.594720378423744
1658789434910106,-5.0354772259097444,5.523765926604028,14.92332341496899
1658789434926106,-3.0212863355459376,5.76791027695117,14.92332341496899
1658789434942106,2.532997634851654,6.927595941100208,14.373998626688035
1658789434958106,4.852368963149502,7.721065079728305,12.848096437018285
1658789434974105,4.180971999694748,7.843137254901876,10.650797283894008
1658789434990105,3.6316472114137923,7.904173342488775,9.613183794918768
1658789435006105,6.500343327992596,7.721065079728305,11.139085984588291
1658789435022105,9.979400320439481,7.598992904554734,12.909132524605184
1658789435038086,8.392462043183059,7.17174029144735,12.848096437018285
1658789435054085,1.0070954451819034,5.76791027695117,10.955977721828049
1658789435070085,-1.9226367589837992,5.096513313496644,10.040436408026153
1658789435086085,-2.105745021744042,4.364080262455218,9.85732814526591
1658789435102085,-0.8850232700083325,4.791332875562603,10.528725108720437
1658789435118085,-2.532997634851654,5.645838101777599,10.772869459067579
1658789435134084,-1.4953841458761872,5.706874189364498,9.796292057679011
1658789435150084,3.2043945983061803,5.157549401083315,8.51453421835663
1658789435166084,6.012054627298312,4.60822461280236,7.660028992141633
1658789435182084,1.6784924086366573,4.242008087281647,6.9886320286868795
1658789435198084,-1.8616006713969,5.157549401083315,6.805523765926637
1658789435214083,3.3264667734797513,6.195162890058782,6.8665598535133086
1658789435230083,8.575570305943302,6.500343327992596,6.927595941100208
1658789435246083,7.843137254901876,5.3406576638437855,6.439307240405924
1658789435262083,-0.33569848172737693,6.439307240405924,5.76791027695117
1658789435278082,-5.462729839017356,7.232776379034021,5.645838101777599
1658789435294082,-3.875791561760934,7.660028992141633,6.500343327992596
1658789435310082,-0.9460593575952316,7.476920729381163,7.660028992141633
1658789435326082,-3.7537193865873633,5.523765926604028,7.354848554207592
1658789435342082,-6.683451590753066,4.486152437628789,6.012054627298312
1658789435358093,-7.904173342488775,4.119935912108076,4.669260700389032
1658789435374093,-4.303044174868319,3.2654306858930795,3.3264667734797513
1658789435390092,1.5564202334630863,2.4719615472647547,2.7161058976118966
1658789435406092,6.073090714885211,1.6174563210497581,2.166781109330941
1658789435422092,6.561379415579495,1.4953841458761872,0.7629510948347615
1658789435438092,3.7537193865873633,0.45777065690094787,-2.410925459678083
1658789435454092,2.166781109330941,-1.5564202334630863,-6.256198977645454
1658789435470091,3.1433585107195086,-3.3264667734797513,-8.697642481116873
1658789435486091,3.1433585107195086,-3.3875028610666504,-9.918364232852582
1658789435502091,3.875791561760934,-1.983672846570471,-10.162508583199724
1658789435518091,5.096513313496644,-1.3733119707026162,-11.383230334935433
1658789435534091,5.3406576638437855,-2.410925459678083,-13.519493400473038
1658789435550090,4.303044174868319,-4.180971999694748,-16.02197299153113
1658789435566090,4.42511635004189,-5.462729839017356,-17.66994735637445
1658789435582090,1.9226367589837992,-6.622415503166167,-18.646524757763018
1658789435598090,2.105745021744042,-7.782101167315204,-20.477607385366582
1658789435614090,7.476920729381163,-7.476920729381163,-21.087968261234437
1658789435630089,10.467689021133765,-7.660028992141633,-21.637293049515392
1658789435646089,11.139085984588291,-8.148317692835917,-23.224231326771815
1658789435662089,9.67421988250544,-8.697642481116873,-24.689097428854666
1658789435678070,5.0354772259097444,-10.101472495613052,-26.6422522316318
1658789435694069,6.073090714885211,-11.322194247348762,-28.229190508888223
1658789435710069,11.139085984588291,-12.4208438239109,-28.656443121995835
1658789435726069,14.129854276340893,-12.726024261844714,-28.534370946822264
1658789435742069,11.07804989700162,-12.970168612191856,-30.4875257495994
1658789435758069,6.195162890058782,-13.824673838406852,-34.149691004806755
1658789435774068,6.195162890058782,-14.92332341496899,-36.713206683451745
1658789435790068,9.979400320439481,-15.594720378423744,-37.14045929655913
1658789435806068,12.664988174258042,-14.679179064621849,-36.835278858625315
1658789435822068,12.23773556115043,-14.679179064621849,-38.66636148622888
1658789435838068,9.002822919050914,-15.472648203250174,-41.840238040741724
1658789435854067,9.613183794918768,-16.815442130159454,-44.76997024490743
1658789435870067,11.322194247348762,-17.60891126878755,-45.807583733882666
1658789435886067,13.58052948805971,-17.60891126878755,-44.8310063324941
1658789435902067,14.557106889448278,-15.899900816357558,-44.8310063324941
1658789435918067,14.740215152208748,-15.655756466010416,-47.8217746242467
1658789435934066,18.158236057068734,-17.120622568093268,-50.50736247806526
1658789435950066,17.975127794308264,-19.867246509498727,-51.17875944151979
1658789435966066,8.697642481116873,-22.430762188143717,-50.62943465323883
1658789435982066,3.570611123826893,-23.285267414358714,-49.22560463874265
1658789435998077,5.462729839017356,-22.67490653849086,-49.04249637598241
1658789436014077,13.153276874952326,-22.308690012970146,-50.38529030289169
1658789436030077,14.373998626688035,-22.003509575036105,-50.62943465323883
1658789436046076,6.134126802471883,-20.477607385366582,-51.66704814221407
1658789436062076,-3.3875028610666504,-18.76859693293659,-54.840924696726915
1658789436078076,1.1291676203554744,-18.76859693293659,-57.89272907606619
1658789436094076,13.45845731288614,-18.402380407415876,-55.87853818570238
1658789436110076,15.411612115663274,-16.32715342946517,-52.460517280842396
1658789436126075,9.246967269398056,-15.655756466010416,-51.30083161669336
1658789436142075,5.828946364538069,-16.02197299153113,-51.6060120546274
1658789436158075,14.496070801861606,-15.10643167772946,-49.774929427023835
1658789436174075,16.26611734187827,-14.068818188753994,-46.54001678492409
1658789436190075,7.2938124666209205,-14.679179064621849,-45.62447547112242
1658789436206074,0.6408789196611906,-15.167467765316132,-44.037537193866
1658789436222074,6.378271152819025,-14.862287327382319,-40.741588464179586
1658789436238074,13.58052948805971,-14.007782101167322,-37.50667582207984
1658789436254074,6.073090714885211,-13.76363775082018,-37.01838712138556
1658789436270074,-3.814755474174035,-15.045395590142562,-38.66636148622888
1658789436286073,1.3122758831159445,-15.10643167772946,-37.38460364690627
1658789436302073,12.4208438239109,-11.810482948043045,-32.806897077897474
1658789436318084,7.4158846417944915,-11.20012207217519,-32.806897077897474
1658789436334084,-2.8381780727854675,-13.214312962538997,-35.85870145723675
1658789436350084,1.0070954451819034,-13.702601663233281,-36.10284580758389
1658789436366084,5.76791027695117,-13.58052948805971,-32.806897077897474
1658789436382084,8.758678568703772,-12.115663385976859,-28.656443121995835
1658789436398083,2.8992141603723667,-11.322194247348762,-29.633020523384403
1658789436414083,-1.5564202334630863,-11.932555123216616,-35.91973754482342
1658789436430083,10.528725108720437,-12.298771648737329,-38.78843366140245
1658789436446083,20.782787823300396,-11.566338597695903,-35.67559319447628
1658789436462082,19.80621042191183,-10.040436408026153,-31.952391851682478
1658789436478082,16.693369954985883,-10.101472495613052,-31.342030975814623
1658789436494082,13.031204699778755,-10.772869459067579,-33.23414969100486
1658789436510082,7.598992904554734,-12.298771648737329,-35.67559319447628
1658789436526082,0.9460593575952316,-12.970168612191856,-35.24834058136889
1658789436542081,-4.42511635004189,-11.688410772869474,-33.844510566872714
1658789436558081,-7.232776379034021,-11.688410772869474,-36.835278858625315
1658789436574081,0.8239871824216607,-12.787060349431613,-39.64293888761745
1658789436590081,12.664988174258042,-11.932555123216616,-37.20149538414603
1658789436606081,14.92332341496899,-10.955977721828049,-33.72243839169914
1658789436622080,10.650797283894008,-10.833905546654478,-33.478294041352
1658789436638061,5.706874189364498,-12.23773556115043,-37.14045929655913
1658789436654061,5.462729839017356,-12.542915999084471,-39.03257801174959
1658789436670061,4.669260700389032,-11.871519035629717,-37.3235675593196
1658789436686061,0.6408789196611906,-10.345616845960194,-34.332799267567
1658789436702060,-1.6174563210497581,-9.308003356984727,-35.370412756542464
1658789436718060,-1.2512397955290453,-9.796292057679011,-39.276722362096734
1658789436734060,6.500343327992596,-11.688410772869474,-40.80262455176626
1658789436750060,13.64156557564661,-12.115663385976859,-37.872892347600555
1658789436766060,15.472648203250174,-11.505302510109004,-34.69901579308771
1658789436782059,14.068818188753994,-11.566338597695903,-34.76005188067461
1658789436798059,12.542915999084471,-11.261158159761862,-37.2625314717327
1658789436814059,12.359807736324,-11.993591210803288,-40.37537193865887
1658789436830059,11.20012207217519,-13.336385137712568,-40.497444113832444
1658789436846058,8.575570305943302,-12.787060349431613,-38.72739757381555
1658789436862058,3.814755474174035,-12.4208438239109,-38.72739757381555
1658789436878058,-3.692683299000464,-12.481879911497572,-42.75577935454339
1658789436894058,3.936827649347606,-14.251926451514464,-46.23483634699028
1658789436910058,21.14900434882111,-14.312962539101136,-42.81681544213029
1658789436926057,26.459143968871558,-13.214312962538997,-38.97154192416269
1658789436942057,18.219272144655406,-13.885709925993751,-40.680552376592686
1658789436958068,9.918364232852582,-15.167467765316132,-45.92965590905624
1658789436974068,13.214312962538997,-14.98435950255589,-48.310063324940984
1658789436990068,21.637293049515392,-12.726024261844714,-45.92965590905624
1658789437006068,18.402380407415876,-11.261158159761862,-44.403753719386714
1658789437022068,4.364080262455218,-12.542915999084471,-47.211413748378845
1658789437038067,1.739528496223329,-13.824673838406852,-49.10353246356908
1658789437054067,15.594720378423744,-12.481879911497572,-46.35690852216385
1658789437070067,20.782787823300396,-10.528725108720437,-43.427176317998146
1658789437086067,11.871519035629717,-12.481879911497572,-44.8310063324941
1658789437102067,6.622415503166167,-12.726024261844714,-45.19722285801481
1658789437118066,17.42580300602731,-12.848096437018285,-43.67132066834529
1658789437134066,26.459143968871558,-10.833905546654478,-40.680552376592686
1658789437150066,17.60891126878755,-10.345616845960194,-41.901274128328396
1658789437166066,4.058899824521177,-10.345616845960194,-42.93888761730386
1658789437182066,3.7537193865873633,-9.67421988250544,-41.1078049897003
1658789437198065,14.740215152208748,-7.2938124666209205,-37.994964522774126
1658789437214065,14.496070801861606,-6.8665598535133086,-37.872892347600555
1658789437230065,0.9460593575952316,-8.148317692835917,-39.82604715037769
1658789437246065,-6.073090714885211,-7.843137254901876,-39.215686274509835
1658789437262065,5.401693751430457,-6.439307240405924,-36.22491798275746
1658789437278045,16.815442130159454,-6.622415503166167,-33.90554665445961
1658789437294045,16.510261692225413,-8.575570305943302,-33.051041428244616
1658789437310045,10.406652933546866,-9.67421988250544,-31.403067063401295
1658789437326045,9.308003356984727,-8.026245517662346,-29.633020523384403
1658789437342044,7.17174029144735,-7.4158846417944915,-29.755092698557974
1658789437358044,6.500343327992596,-8.270389868009488,-30.73167009994654
1658789437374044,9.002822919050914,-7.354848554207592,-28.534370946822264
1658789437390044,6.439307240405924,-6.744487678339738,-27.008468757152514
1658789437406044,2.5940337224383256,-6.012054627298312,-27.80193789578084
1658789437422043,-2.227817196917613,-5.76791027695117,-29.449912260623933
1658789437438043,2.166781109330941,-7.17174029144735,-28.595407034408936
1658789437454043,15.838864728770886,-6.439307240405924,-24.567025253681095
1658789437470043,16.998550392919697,-6.561379415579495,-22.369726100556818
1658789437486043,7.904173342488775,-8.33142595559616,-23.041123064011572
1658789437502042,5.889982452124741,-8.33142595559616,-24.628061341267994
1658789437518042,9.979400320439481,-6.683451590753066,-24.933241779201808
1658789437534042,11.322194247348762,-6.927595941100208,-23.95666437781324
1658789437550042,7.17174029144735,-7.17174029144735,-23.407339589532285
1658789437566042,1.8616006713969,-6.317235065232353,-24.994277866788707
1658789437582041,-1.739528496223329,-6.439307240405924,-27.86297398336751
1658789437598053,6.012054627298312,-7.17174029144735,-27.86297398336751
1658789437614052,16.1440451667047,-6.439307240405924,-25.17738612954895
1658789437630052,14.740215152208748,-6.317235065232353,-24.13977264057371
1658789437646052,6.683451590753066,-7.232776379034021,-25.29945830472252
1658789437662052,3.875791561760934,-7.721065079728305,-27.679865720607268
1658789437678052,8.026245517662346,-6.805523765926637,-27.191577019912984
1658789437694051,8.392462043183059,-5.706874189364498,-24.750133516441565
1658789437710051,2.8992141603723667,-5.2185854886702145,-23.529411764705856
1658789437726051,-3.2043945983061803,-4.60822461280236,-23.95666437781324
1658789437742051,0.15259021896690683,-4.791332875562603,-24.628061341267994
1658789437758051,8.6366063935302,-3.692683299000464,-22.73594262607753
1658789437774050,8.33142595559616,-2.8992141603723667,-20.904859998473967
1658789437790050,1.4343480582895154,-4.119935912108076,-20.782787823300396
1658789437806050,0.33569848172737693,-4.730296787975931,-20.477607385366582
1658789437822050,7.537956816968062,-4.180971999694748,-19.684138246738257
1658789437838050,14.862287327382319,-3.0823224231326094,-18.524452582589447
1658789437854049,10.528725108720437,-3.814755474174035,-17.059586480506596
1658789437870049,3.875791561760934,-4.364080262455218,-17.181658655680167
1658789437886049,2.4719615472647547,-3.4485389486533222,-17.914091706721592
1658789437902049,7.17174029144735,-3.2654306858930795,-18.524452582589447
1658789437918060,13.336385137712568,-4.058899824521177,-17.60891126878755
1658789437934060,13.64156557564661,-3.1433585107195086,-16.754406042572555
1658789437950060,6.317235065232353,-3.570611123826893,-18.463416495002548
1658789437966059,1.3122758831159445,-3.6316472114137923,-19.745174334325156
1658789437982059,6.8665598535133086,-1.9226367589837992,-19.439993896391115
1658789437998059,13.214312962538997,-1.1902037079423735,-17.914091706721592
1658789438014059,11.566338597695903,-2.04470893415737,-17.36476691844041
1658789438030058,5.279621576256886,-2.04470893415737,-17.66994735637445
1658789438046058,0.5188067444876197,-1.9226367589837992,-19.684138246738257
1658789438062058,1.3122758831159445,-1.8005645838102282,-19.745174334325156
1658789438078058,5.828946364538069,-1.8005645838102282,-18.280308232242305
1658789438094058,7.965209430075447,-1.739528496223329,-17.181658655680167
1658789438110057,6.378271152819025,-1.4953841458761872,-17.059586480506596
1658789438126057,3.2654306858930795,-2.410925459678083,-17.42580300602731
1658789438142057,4.60822461280236,-4.547188525215461,-17.79201953154802
1658789438158057,9.613183794918768,-5.3406576638437855,-16.632333867398984
1658789438174057,12.176699473563758,-5.0354772259097444,-14.190890363927565
1658789438190056,7.476920729381163,-4.9134050507361735,-13.946746013580423
1658789438206056,3.692683299000464,-5.95101853971164,-17.48683909361398
1658789438222056,6.561379415579495,-5.401693751430457,-19.195849546043974
1658789438238037,8.941786831464015,-4.42511635004189,-19.562066071564686
1658789438254037,8.270389868009488,-3.936827649347606,-20.35553521019301
1658789438270036,3.936827649347606,-3.692683299000464,-21.51522087434182
1658789438286036,0.7629510948347615,-3.4485389486533222,-23.041123064011572
1658789438302036,4.730296787975931,-3.1433585107195086,-22.980086976424673
1658789438318036,9.308003356984727,-3.2043945983061803,-21.637293049515392
1658789438334035,5.2185854886702145,-2.8992141603723667,-20.538643472953254
1658789438350035,-0.8239871824216607,-3.0823224231326094,-21.210040436408008
1658789438366035,0.6408789196611906,-3.4485389486533222,-21.33211261158158
1658789438382035,10.711833371480907,-2.655069810025225,-19.745174334325156
1658789438398035,12.542915999084471,-1.2512397955290453,-18.219272144655406
1658789438414034,5.3406576638437855,-1.2512397955290453,-18.95170519569683
1658789438430034,-0.6408789196611906,-1.0681315327688026,-19.01274128328373
1658789438446034,1.739528496223329,0.45777065690094787,-17.36476691844041
1658789438462034,4.242008087281647,2.04470893415737,-15.960936903944457
1658789438478034,-1.6174563210497581,2.7771419851987957,-15.045395590142562
1658789438494033,-7.17174029144735,2.227817196917613,-13.76363775082018
1658789438510033,-1.0070954451819034,1.3733119707026162,-10.040436408026153
1658789438526033,7.354848554207592,1.8616006713969,-5.3406576638437855
1658789438542033,7.598992904554734,1.6784924086366573,-1.3733119707026162
1658789438558044,1.4953841458761872,1.2512397955290453,0.45777065690094787
1658789438574044,-5.0354772259097444,1.739528496223329,2.166781109330941
1658789438590044,-4.180971999694748,2.5940337224383256,4.180971999694748
1658789438606043,1.4343480582895154,4.60822461280236,8.392462043183059
1658789438622043,-5.0354772259097444,5.523765926604028,11.749446860456146
1658789438638043,-18.097199969481835,4.730296787975931,13.153276874952326
1658789438654043,-20.965896086060866,4.486152437628789,15.716792553597315
1658789438670043,-11.01701380941472,4.852368963149502,20.538643472953254
1658789438686042,-6.378271152819025,4.42511635004189,25.116350041962278
1658789438702042,-11.688410772869474,3.997863736934505,27.98504615854108
1658789438718042,-17.914091706721592,4.180971999694748,30.54856183718607
1658789438734042,-13.64156557564661,5.462729839017356,31.342030975814396
1658789438750042,-5.0354772259097444,6.378271152819025,32.74586099031035
1658789438766041,-2.8992141603723667,6.805523765926637,33.783474479285815
1658789438782041,-8.45349813076973,7.11070420386045,33.53933012893867
1658789438798041,-12.115663385976859,8.392462043183059,32.80689707789725
1658789438814041,-11.505302510109004,9.73525597009234,33.17311360341796
1658789438830041,-10.772869459067579,10.345616845960194,35.248340581368666
1658789438846040,-14.373998626688035,9.979400320439481,36.591134508277946
1658789438862040,-17.975127794308264,9.613183794918768,37.87289234760033
1658789438878021,-18.89066910811016,9.67421988250544,39.27672236209651
1658789438894021,-14.435034714274707,9.918364232852582,40.86366063935293
1658789438910020,-11.627374685282575,10.528725108720437,42.38956282902245
1658789438926020,-14.435034714274707,10.89494163424115,43.36614023041102
1658789438942020,-18.036163881895163,11.566338597695903,43.30510414282435
1658789438958020,-14.618142977035177,11.505302510109004,43.48821240558459
1658789438974020,-6.9886320286868795,12.359807736324,44.7089341573203
1658789438990019,-9.796292057679011,12.970168612191856,45.197222858014584
1658789439006019,-17.79201953154802,12.054627298390187,44.403753719386486
1658789439022019,-20.05035477225897,11.566338597695903,44.46478980697316
1658789439038019,-14.496070801861606,12.054627298390187,44.89204242008077
1658789439054019,-9.55214770733187,12.664988174258042,45.99069199664291
1658789439070018,-13.45845731288614,12.298771648737329,46.540016784923864
1658789439086018,-17.975127794308264,12.298771648737329,46.11276417181648
1658789439102018,-16.571297779812312,11.505302510109004,46.23483634699005
1658789439118018,-6.256198977645454,11.01701380941472,47.21141374837862
1658789439134018,-3.0212863355459376,12.359807736324,48.31006332494053
1658789439150017,-11.139085984588291,12.4208438239109,46.11276417181648
1658789439166017,-16.937514305333025,12.054627298390187,44.83100633249387
1658789439182017,-12.542915999084471,11.627374685282575,44.95307850766744
1658789439198028,-7.17174029144735,13.397421225299468,46.05172808422958
1658789439214028,-15.10643167772946,14.007782101167322,45.441367208361726
1658789439230028,-22.125581750209676,12.787060349431613,42.45059891660935
1658789439246028,-17.48683909361398,13.153276874952326,42.20645456626221
1658789439262027,-11.993591210803288,14.129854276340893,43.060959792477206
1658789439278027,-13.824673838406852,14.679179064621849,42.69474326695649
1658789439294027,-15.045395590142562,14.557106889448278,40.43640802624532
1658789439310027,-11.871519035629717,13.397421225299468,40.43640802624532
1658789439326027,-6.683451590753066,13.214312962538997,43.73235675593173
1658789439342026,-6.500343327992596,12.848096437018285,45.197222858014584
1658789439358026,-10.040436408026153,11.566338597695903,45.01411459525434
1658789439374026,-8.819714656290444,9.918364232852582,44.7699702449072
1658789439390026,-6.805523765926637,9.979400320439481,45.624475471122196
1658789439406026,-9.430075532158298,11.383230334935433,46.60105287251076
1658789439422025,-14.312962539101136,11.688410772869474,45.5634393835353
1658789439438025,-13.092240787365427,11.993591210803288,44.64789806973363
1658789439454025,-5.462729839017356,11.810482948043045,44.89204242008077
1658789439470025,-5.645838101777599,12.542915999084471,46.35690852216362
1658789439486024,-14.312962539101136,11.749446860456146,44.46478980697316
1658789439502024,-18.89066910811016,10.467689021133765,42.51163500419602
1658789439518005,-12.298771648737329,10.223544670786623,43.12199588006388
1658789439534005,-4.42511635004189,10.833905546654478,44.58686198214673
1658789439550005,-8.026245517662346,11.444266422522333,44.64789806973363
1658789439566004,-17.059586480506596,9.063859006637585,42.51163500419602
1658789439582004,-17.120622568093268,8.392462043183059,41.65712977798103
1658789439598004,-10.223544670786623,9.185931181811156,42.938887617303635
1658789439614004,-11.444266422522333,9.613183794918768,42.99992370489031
1658789439630004,-17.79201953154802,9.73525597009234,40.253299763485074
1658789439646003,-18.402380407415876,9.613183794918768,38.30014496070794
1658789439662003,-12.115663385976859,10.711833371480907,38.23910887312104
1658789439678003,-10.833905546654478,11.566338597695903,37.01838712138533
1658789439694003,-14.190890363927565,10.345616845960194,35.126268406195095
1658789439710003,-8.819714656290444,9.185931181811156,36.285954070343905
1658789439726002,-1.0681315327688026,10.284580758373295,38.849469748988895
1658789439742002,-4.486152437628789,10.833905546654478,38.30014496070794
1658789439758002,-12.909132524605184,9.002822919050914,35.30937666895534
1658789439774002,-12.4208438239109,9.002822919050914,34.08865491721963
1658789439790001,-9.185931181811156,9.063859006637585,36.04180971999676
1658789439806001,-8.33142595559616,9.491111619745197,38.30014496070794
1658789439822001,-11.871519035629717,9.002822919050914,38.11703669794747
1658789439838012,-19.501029983978015,7.4158846417944915,35.67559319447605
1658789439854012,-16.632333867398984,6.012054627298312,34.08865491721963
1658789439870012,-5.76791027695117,6.500343327992596,36.53009842069105
1658789439886012,-1.6174563210497581,7.843137254901876,38.971541924162466
1658789439902011,-4.730296787975931,8.51453421835663,37.628747997253186
1658789439918011,-9.796292057679011,6.622415503166167,34.39383535515367
1658789439934011,-10.406652933546866,5.3406576638437855,33.783474479285815
1658789439950011,-8.45349813076973,7.232776379034021,35.065232318608196
1658789439966011,-7.904173342488775,10.89494163424115,34.57694361791391
1658789439982010,-12.298771648737329,11.322194247348762,32.257572289616064
1658789439998010,-10.528725108720437,9.796292057679011,29.51094834821083
1658789440014010,-1.6174563210497581,8.819714656290444,31.403067063401068
1658789440030010,3.875791561760934,10.040436408026153,35.248340581368666
1658789440046010,-2.7161058976118966,9.918364232852582,35.126268406195095
1658789440062009,-11.566338597695903,7.049668116273779,32.31860837720296
1658789440078009,-9.430075532158298,5.645838101777599,31.52513923857464
1658789440094009,-5.401693751430457,6.073090714885211,32.31860837720296
1658789440110009,-9.063859006637585,7.049668116273779,32.13550011444249
1658789440126009,-13.58052948805971,8.026245517662346,30.182345311665358
1658789440142008,-10.833905546654478,8.45349813076973,29.694056610971074
1658789440158020,-2.288853284504512,7.782101167315204,29.816128786144645
1658789440174019,0.45777065690094787,7.2938124666209205,29.38887617303726
1658789440190019,-7.537956816968062,8.575570305943302,28.717479209582507
1658789440206019,-16.998550392919697,8.33142595559616,25.29945830472252
1658789440222019,-14.740215152208748,7.660028992141633,23.102159151598244
1658789440238019,-3.814755474174035,8.45349813076973,25.23842221713585
1658789440254018,-0.6408789196611906,11.01701380941472,27.313649195086555
1658789440270018,-4.669260700389032,10.589761196307336,25.970855268177274
1658789440286018,-9.246967269398056,9.002822919050914,24.750133516441565
1658789440302018,-6.195162890058782,7.354848554207592,26.39810788128466
1658789440318018,-1.6174563210497581,7.782101167315204,29.755092698557974
1658789440334017,-1.2512397955290453,8.209353780422589,28.900587472342977
1658789440350017,-9.979400320439481,7.2938124666209205,25.909819180590375
1658789440366017,-17.181658655680167,5.889982452124741,24.01770046540014
1658789440382017,-12.359807736324,6.805523765926637,25.665674830243233
1658789440398017,1.2512397955290453,10.589761196307336,29.08369573510322
1658789440414016,3.7537193865873633,12.054627298390187,30.182345311665358
1658789440430016,-8.6366063935302,10.711833371480907,27.679865720607268
1658789440446016,-16.937514305333025,7.965209430075447,23.7125200274661
1658789440462016,-10.284580758373295,7.782101167315204,24.01770046540014
1658789440477996,-2.166781109330941,9.613183794918768,27.496757457846797
1658789440493996,-4.547188525215461,10.833905546654478,29.14473182269012
1658789440509996,-8.270389868009488,9.918364232852582,27.61882963302037
1658789440525996,-5.76791027695117,8.45349813076973,26.58121614404513
1658789440541996,-2.8992141603723667,7.965209430075447,27.008468757152514
1658789440557995,-1.0070954451819034,7.904173342488775,27.86297398336751
1658789440573995,-1.5564202334630863,8.941786831464015,29.449912260623933
1658789440589995,-2.227817196917613,9.796292057679011,29.877164873731545
1658789440605995,-1.6174563210497581,8.758678568703772,28.107118333714652
1658789440621995,-0.9460593575952316,7.660028992141633,26.337071793697987
1658789440637994,-3.997863736934505,7.782101167315204,26.947432669565842
1658789440653994,-5.95101853971164,9.002822919050914,28.839551384756078
1658789440669994,-2.9602502479590385,9.85732814526591,29.022659647516548
1658789440685994,2.7771419851987957,9.796292057679011,27.313649195086555
1658789440701994,1.0070954451819034,7.843137254901876,24.933241779201808
1658789440717993,-6.683451590753066,7.476920729381163,23.224231326771815
1658789440733993,-7.232776379034021,7.476920729381163,23.163195239185143
1658789440749993,-3.570611123826893,6.744487678339738,23.651483939879427
1658789440765993,1.8005645838102282,5.584802014190927,22.79697871366443
1658789440781993,3.0212863355459376,5.889982452124741,21.14900434882111
1658789440798004,-1.4953841458761872,6.195162890058782,19.378957808804444
1658789440814004,-4.303044174868319,6.9886320286868795,19.1348134584573
1658789440830003,-1.8005645838102282,6.500343327992596,18.70756084534969
1658789440846003,1.1902037079423735,5.889982452124741,18.219272144655406
1658789440862003,2.4719615472647547,6.500343327992596,17.059586480506596
1658789440878003,-1.1902037079423735,6.622415503166167,16.32715342946517
1658789440894003,-2.7161058976118966,6.439307240405924,17.059586480506596
1658789440910002,-0.3967345693140487,5.462729839017356,18.036163881895163
1658789440926002,1.1291676203554744,5.279621576256886,19.745174334325156
1658789440942002,-0.2746623941404778,6.500343327992596,19.867246509498727
1658789440958002,-3.2043945983061803,5.95101853971164,16.998550392919697
1658789440974002,-5.2185854886702145,4.791332875562603,16.937514305333025
1658789440990001,-5.706874189364498,5.0354772259097444,18.70756084534969
1658789441006001,-3.1433585107195086,5.523765926604028,20.23346303501944
1658789441022001,0.7019150072480898,6.073090714885211,20.599679560540153
1658789441038001,2.288853284504512,5.95101853971164,18.524452582589447
1658789441054000,-3.2043945983061803,5.096513313496644,16.937514305333025
1658789441070000,-5.096513313496644,5.279621576256886,16.998550392919697
1658789441086000,-2.166781109330941,6.073090714885211,18.341344319828977
1658789441102000,0.7629510948347615,6.744487678339738,19.1348134584573
1658789441117981,0.9460593575952316,6.378271152819025,17.853055619134693
1658789441133980,0.7629510948347615,4.730296787975931,15.777828641183987
1658789441149980,1.0681315327688026,4.303044174868319,15.838864728770886
1658789441165980,-0.03051804379333589,5.096513313496644,16.815442130159454
1658789441181980,-0.8850232700083325,5.645838101777599,17.181658655680167
1658789441197980,-1.3122758831159445,6.317235065232353,15.777828641183987
1658789441213979,-1.4953841458761872,6.378271152819025,13.092240787365427
1658789441229979,-4.60822461280236,5.76791027695117,12.359807736324
1658789441245979,-5.76791027695117,6.439307240405924,13.153276874952326
1658789441261979,-3.997863736934505,7.4158846417944915,12.664988174258042
1658789441277979,-0.8850232700083325,7.354848554207592,10.833905546654478
1658789441293978,3.936827649347606,7.049668116273779,9.979400320439481
1658789441309978,7.11070420386045,7.232776379034021,10.711833371480907
1658789441325978,5.828946364538069,7.843137254901876,11.322194247348762
1658789441341978,3.5095750362402214,7.598992904554734,9.73525597009234
1658789441357977,2.532997634851654,7.049668116273779,8.270389868009488
1658789441373977,2.532997634851654,6.378271152819025,8.6366063935302
1658789441389977,3.814755474174035,6.8665598535133086,9.613183794918768
1658789441405977,2.3498893720911838,8.33142595559616,10.528725108720437
1658789441421977,-2.8381780727854675,8.026245517662346,9.308003356984727
1658789441437988,-5.096513313496644,6.744487678339738,5.706874189364498
1658789441453988,1.0070954451819034,8.148317692835917,4.974441138323073
1658789441469987,3.5095750362402214,9.73525597009234,7.660028992141633
1658789441485987,3.570611123826893,10.467689021133765,10.223544670786623
1658789441501987,3.570611123826893,10.406652933546866,10.89494163424115
1658789441517987,4.242008087281647,8.45349813076973,10.040436408026153
1658789441533987,3.2043945983061803,7.843137254901876,10.040436408026153
1658789441549986,-2.288853284504512,6.805523765926637,10.589761196307336
1658789441565986,-5.828946364538069,4.974441138323073,11.139085984588291
1658789441581986,-6.622415503166167,3.997863736934505,10.223544670786623
1658789441597986,-4.974441138323073,3.7537193865873633,9.002822919050914
1658789441613986,-2.4719615472647547,3.692683299000464,7.904173342488775
1658789441629985,-0.8239871824216607,2.532997634851654,6.683451590753066
1658789441645985,-2.227817196917613,1.2512397955290453,5.157549401083315
