Timestamp (microseconds),Accel X (g),Accel Y (g),Accel Z (g)
1658789512297515,0.11590753032730561,-0.4843213550011445,0.910597390707256
1658789512313513,0.10833905546654421,-0.4851758602273595,0.9435568780041201
1658789512329511,0.10980392156862706,-0.4749217975127795,0.9513694972152287
1658789512345509,0.10968184939345349,-0.4669871061264974,0.9113298237582974
1658789512361507,0.10907148851758564,-0.4745555809872588,0.8880140383001454
1658789512377505,0.10833905546654421,-0.47943846799420164,0.9027847714961474
1658789512393503,0.11236743724727205,-0.4569771877622646,0.9091325246051731
1658789512409501,0.10846112764171778,-0.45831998168917387,0.9119401846341653
1658789512425499,0.10833905546654421,-0.4762645914396888,0.9025406271458003
1658789512441496,0.11041428244449492,-0.48944838635843446,0.9042496375982303
1658789512457494,0.11358815899900776,-0.4824902723735409,0.9132829785610745
1658789512473492,0.11371023117418133,-0.4757763027389945,0.9093766689555203
1658789512489490,0.11236743724727205,-0.47394522011139095,0.9008316166933703
1658789512505488,0.10907148851758564,-0.47431143663691167,0.8924086366063939
1658789512521486,0.11041428244449492,-0.4569771877622646,0.9000991836423289
1658789512537484,0.11163500419623062,-0.4472114137483789,0.900343327992676
1658789512553482,0.10968184939345349,-0.46344701304646385,0.9040054932478832
1658789512569480,0.10699626153963493,-0.4874952315556573,0.9040054932478832
1658789512585477,0.10931563286793278,-0.4813916227969788,0.9186541542687117
1658789512601475,0.11078049897001563,-0.4674753948271917,0.9267109178301673
1658789512617462,0.1167620355535206,-0.4641794460975053,0.9213397421225302
1658789512633460,0.11712825207904132,-0.47272449835965524,0.8968032349126425
1658789512649458,0.11627374685282632,-0.4796826123445488,0.8999771114671553
1658789512665455,0.1167620355535206,-0.4657663843747617,0.9130388342107274
1658789512681453,0.11334401464866062,-0.45844205386434744,0.9226825360494395
1658789512697451,0.11163500419623062,-0.4750438696879531,0.9350118257419702
1658789512713449,0.10467689021133708,-0.49872587167162585,0.9361104753185323
1658789512729447,0.10638590066376707,-0.48578622110322733,0.9220721751735717
1658789512745445,0.11114671549553634,-0.4737010757610438,0.9206073090714888
1658789512761443,0.11065842679484206,-0.4824902723735409,0.9192645151445795
1658789512777441,0.11029221026932134,-0.4931105516136416,0.9268329900053409
1658789512793439,0.11078049897001563,-0.4826123445487145,0.9158464942397195
1658789512809436,0.11529716945143775,-0.464545662623026,0.9084000915541317
1658789512825434,0.10943770504310635,-0.4796826123445488,0.9055924315251396
1658789512841432,0.10406652933546923,-0.48859388113221947,0.8980239566643782
1658789512857430,0.11041428244449492,-0.48993667505912875,0.8966811627374689
1658789512873428,0.1146868085755699,-0.47602044708934166,0.9038834210727096
1658789512889426,0.11810482948042988,-0.4746776531624324,0.9141374837872895
1658789512905424,0.11346608682383419,-0.47016098268101025,0.9069352254520489
1658789512921422,0.10321202410925423,-0.4779736018921188,0.8948500801098653
1658789512937439,0.10614175631341993,-0.47235828183413453,0.8930189974822618
1658789512953436,0.11224536507209848,-0.4737010757610438,0.9075455863279167
1658789512969434,0.12030212863355416,-0.4673533226520181,0.9112077515831238
1658789512985432,0.12005798428320702,-0.4650339513237203,0.9091325246051731
1658789513001430,0.1167620355535206,-0.46979476615548954,0.8903334096284432
1658789513017428,0.11602960250247918,-0.4817578393224995,0.8968032349126425
1658789513033426,0.11212329289692491,-0.4843213550011445,0.9018081940947589
1658789513049424,0.11126878767070991,-0.4737010757610438,0.9048599984740981
1658789513065422,0.11529716945143775,-0.4695506218051424,0.892652780956741
1658789513081420,0.11737239642938846,-0.4657663843747617,0.8800793469138632
1658789513097417,0.11773861295490917,-0.4641794460975053,0.8659189745937281
1658789513113415,0.1193255512321656,-0.4690623331044481,0.8816662851911197
1658789513129413,0.11358815899900776,-0.495551995117113,0.9094987411306938
1658789513145411,0.10516517891203137,-0.4951857785915923,0.9175555046921495
1658789513161409,0.10638590066376707,-0.49066910811017017,0.9102311741817353
1658789513177407,0.10858319981689135,-0.4822461280231938,0.9137712672617688
1658789513193405,0.11041428244449492,-0.47650873579003594,0.9145037003128103
1658789513209403,0.10992599374380063,-0.4787060349431602,0.9116960402838181
1658789513225401,0.11712825207904132,-0.4788281071183338,0.9209735255970095
1658789513241398,0.11187914854657777,-0.4838330663004502,0.9268329900053409
1658789513257263,0.11200122072175134,-0.49616235599298086,0.9284199282825973
1658789513273260,0.10821698329137064,-0.49152361333638517,0.9108415350576031
1658789513289258,0.1004043640802621,-0.4968947890440223,0.9176775768673231
1658789513305255,0.11041428244449492,-0.4863965819790952,0.9204852368963152
1658789513321252,0.10345616845960137,-0.48822766460669875,0.917433432516976
1658789513337250,0.11078049897001563,-0.47736324101625094,0.9184100099183645
1658789513353247,0.10760662241550278,-0.4821240558480202,0.9109636072327767
1658789513369245,0.1079728389410235,-0.48615243762874805,0.905470359349966
1658789513385242,0.10540932326237851,-0.48908216983291375,0.9041275654230567
1658789513401239,0.09942778667887353,-0.4883497367818723,0.9107194628824296
1658789513417237,0.09808499275196425,-0.4862745098039216,0.9149919890135045
1658789513433234,0.11212329289692491,-0.47223620965896096,0.9093766689555203
1658789513449232,0.12188906691081058,-0.4762645914396888,0.901197833218891
1658789513465229,0.1117570763714042,-0.48822766460669875,0.8993667505912875
1658789513481227,0.10614175631341993,-0.48822766460669875,0.8965590905622953
1658789513497224,0.10443274586098994,-0.47980468451972236,0.9070572976272224
1658789513513221,0.11200122072175134,-0.47101548790722525,0.918287937743191
1658789513529219,0.11432059205004919,-0.47772945754177165,0.9079118028534374
1658789513545216,0.10992599374380063,-0.47394522011139095,0.894361791409171
1658789513561214,0.10077058060578281,-0.47724116884107737,0.8892347600518811
1658789513577087,0.10699626153963493,-0.4740672922865645,0.9047379262989246
1658789513593084,0.10699626153963493,-0.4737010757610438,0.9038834210727096
1658789513609081,0.11065842679484206,-0.4702830548561838,0.881300068665599
1658789513625078,0.10589761196307279,-0.467963683527886,0.8734874494544895
1658789513641075,0.10955977721827992,-0.47309071488517596,0.8981460288395517
1658789513657072,0.11883726253147131,-0.47858396276798665,0.908888380254826
1658789513673069,0.11029221026932134,-0.49066910811017017,0.8906996261539639
1658789513689066,0.11334401464866062,-0.48871595330739304,0.882154573891814
1658789513705062,0.11273365377279276,-0.4787060349431602,0.8906996261539639
1658789513721059,0.11248950942244562,-0.46967269398031597,0.9096208133058674
1658789513737056,0.11248950942244562,-0.4683299000534067,0.8987563897154196
1658789513753053,0.10894941634241206,-0.4872510872053102,0.9090104524299996
1658789513769050,0.10516517891203137,-0.49457541771572444,0.9059586480506603
1658789513785047,0.10382238498512208,-0.4935988403143359,0.9153582055390252
1658789513801044,0.10614175631341993,-0.4879835202563516,0.9202410925459681
1658789513817041,0.11126878767070991,-0.4901808194094759,0.9307392996108952
1658789513833038,0.1100480659189742,-0.4914015411612116,0.9438010223544673
1658789513849035,0.10858319981689135,-0.4884718089570459,0.930495155260548
1658789513865032,0.10174715800717138,-0.4889600976577402,0.9153582055390252
1658789513881029,0.10443274586098994,-0.494697489890898,0.9206073090714888
1658789513896942,0.10467689021133708,-0.4973830777447166,0.9290302891584652
1658789513912939,0.10724040588998207,-0.4855420767528802,0.9353780422674909
1658789513928936,0.10553139543755208,-0.47479972533760595,0.9113298237582974
1658789513944933,0.10614175631341993,-0.47260242618448167,0.8917982757305261
1658789513960929,0.10724040588998207,-0.494697489890898,0.9052262149996189
1658789513976926,0.10406652933546923,-0.49909208819714657,0.9052262149996189
1658789513992923,0.11029221026932134,-0.47431143663691167,0.8990005340657667
1658789514008920,0.10809491111619707,-0.46930647745479526,0.8848401617456325
1658789514024917,0.1071183337148085,-0.48065918974593735,0.8800793469138632
1658789514040914,0.10821698329137064,-0.49079118028534374,0.8780041199359125
1658789514056911,0.11053635461966849,-0.48236820019836735,0.8832532234683761
1658789514072908,0.11102464332036277,-0.4788281071183338,0.8815442130159461
1658789514088905,0.1091935606927592,-0.4833447775997559,0.8924086366063939
1658789514104902,0.11248950942244562,-0.48358892195010306,0.878736552986954
1658789514120899,0.1117570763714042,-0.4741893644617381,0.8825207904173347
1658789514136896,0.10821698329137064,-0.4787060349431602,0.907179369802396
1658789514152893,0.10760662241550278,-0.4762645914396888,0.9032730601968417
1658789514168890,0.1109025711451892,-0.48236820019836735,0.9103532463569088
1658789514184887,0.11334401464866062,-0.48407721065079734,0.9042496375982303
1658789514200883,0.11895933470664488,-0.48480964370183877,0.908033875028611
1658789514216797,0.10821698329137064,-0.4851758602273595,0.9062027924010074
1658789514232793,0.10345616845960137,-0.48944838635843446,0.9005874723430232
1658789514248789,0.10565346761272565,-0.4817578393224995,0.9030289158464946
1658789514264786,0.10540932326237851,-0.4845654993514916,0.9142595559624631
1658789514280782,0.11248950942244562,-0.4776073853665981,0.9281757839322502
1658789514296779,0.11749446860456203,-0.47638666361486237,0.8987563897154196
1658789514312775,0.10760662241550278,-0.5016556038757916,0.9049820706492717
1658789514328772,0.1062638284885935,-0.5067826352330815,0.9264667734798202
1658789514344768,0.10614175631341993,-0.4872510872053102,0.933058670939193
1658789514360765,0.10821698329137064,-0.4769970244907302,0.929640650034333
1658789514376761,0.10870527199206492,-0.4795605401693752,0.9101091020065617
1658789514392758,0.10150301365682424,-0.49921416037232014,0.9059586480506603
1658789514408754,0.09820706492713782,-0.5005569542992294,0.9158464942397195
1658789514424750,0.10113679713130352,-0.49030289158464946,0.919142442969406
1658789514440747,0.10565346761272565,-0.48151369497215235,0.9293965056839859
1658789514456743,0.10394445716029566,-0.4874952315556573,0.9066910811017017
1658789514472740,0.10260166323338638,-0.4862745098039216,0.8866712443732361
1658789514488736,0.10589761196307279,-0.48273441672388806,0.8894789044022282
1658789514504733,0.10516517891203137,-0.49030289158464946,0.8933852140077825
1658789514520729,0.11859311818112417,-0.48480964370183877,0.8961928740367746
1658789514536621,0.124330510414282,-0.4845654993514916,0.8924086366063939
1658789514552617,0.12188906691081058,-0.4859082932784009,0.8985122453650725
1658789514568613,0.11651789120317346,-0.4841992828259709,0.8997329671168082
1658789514584609,0.11114671549553634,-0.48737315938048376,0.8979018844892046
1658789514600605,0.10614175631341993,-0.4914015411612116,0.9024185549706267
1658789514616601,0.10431067368581637,-0.4826123445487145,0.8988784618905932
1658789514632597,0.11200122072175134,-0.47345693141069667,0.9134050507362481
1658789514648593,0.11334401464866062,-0.4758983749141681,0.9151140611886781
1658789514664589,0.11273365377279276,-0.48700694285496304,0.9084000915541317
1658789514680585,0.11139085984588348,-0.4931105516136416,0.9022964827954532
1658789514696581,0.10980392156862706,-0.49164568551155874,0.9075455863279167
1658789514712576,0.11200122072175134,-0.49372091248950944,0.9043717097734039
1658789514728572,0.1117570763714042,-0.49030289158464946,0.9086442359044788
1658789514744568,0.10687418936446136,-0.47821774624246594,0.907179369802396
1658789514760564,0.1033340962844278,-0.4750438696879531,0.882154573891814
1658789514776560,0.11053635461966849,-0.48480964370183877,0.8971694514381632
1658789514792556,0.11419851987487561,-0.4956740672922866,0.9135271229114217
1658789514808552,0.11969176775768631,-0.48444342717631805,0.9138933394369424
1658789514824548,0.12799267566949002,-0.47992675669489593,0.9132829785610745
1658789514840544,0.12298771648737272,-0.4805371175707638,0.9030289158464946
1658789514856445,0.11737239642938846,-0.4859082932784009,0.8932631418326089
1658789514872440,0.11456473640039633,-0.4771190966659038,0.8864271000228889
1658789514888436,0.11212329289692491,-0.48395513847562377,0.8998550392919817
1658789514904431,0.11615167467765275,-0.4876173037308309,0.9154802777141988
1658789514920427,0.11432059205004919,-0.4900587472343023,0.8996108949416346
1658789514936422,0.10846112764171778,-0.48578622110322733,0.8845960173952854
1658789514952418,0.10968184939345349,-0.4931105516136416,0.8859388113221947
1658789514968413,0.11700617990386775,-0.492133974212253,0.9047379262989246
1658789514984409,0.12079041733424845,-0.4872510872053102,0.9038834210727096
1658789515000404,0.12335393301289344,-0.4729686427100024,0.880445563439384
1658789515016400,0.11444266422522276,-0.4809033340962845,0.8915541313801789
1658789515032395,0.1167620355535206,-0.4881055924315252,0.9044937819485774
1658789515048391,0.11627374685282632,-0.48786144808117804,0.9099870298313881
1658789515064386,0.11419851987487561,-0.4914015411612116,0.9040054932478832
1658789515080382,0.11358815899900776,-0.48566414892805376,0.9171892881666288
1658789515096377,0.11663996337834703,-0.4809033340962845,0.9212176699473567
1658789515112373,0.11956969558251274,-0.4862745098039216,0.9154802777141988
1658789515128368,0.12091248950942202,-0.4898146028839552,0.9010757610437174
1658789515144364,0.11810482948042988,-0.47638666361486237,0.8925307087815675
1658789515160359,0.11151293202105705,-0.4838330663004502,0.9152361333638517
1658789515176269,0.1155413138017849,-0.4812695506218052,0.9164568551155874
1658789515192265,0.12164492256046344,-0.48664072632944233,0.9093766689555203
1658789515208260,0.12652780956740717,-0.4896925307087816,0.9093766689555203
1658789515224256,0.11725032425421489,-0.4901808194094759,0.9041275654230567
1658789515240251,0.10382238498512208,-0.48322270542458234,0.896925307087816
1658789515256247,0.0995498588540471,-0.4898146028839552,0.9030289158464946
1658789515272242,0.10455481803616351,-0.48200198367284663,0.8958266575112539
1658789515288238,0.11578545815213204,-0.48358892195010306,0.9153582055390252
1658789515304233,0.1222552834363313,-0.4859082932784009,0.9109636072327767
1658789515320229,0.12127870603494273,-0.4860303654535745,0.8921644922560468
1658789515336224,0.11395437552452847,-0.4935988403143359,0.8963149462119482
1658789515352220,0.11407644769970204,-0.4997024490730144,0.911451895933471
1658789515368215,0.11151293202105705,-0.4876173037308309,0.9092545967803467
1658789515384211,0.11346608682383419,-0.47101548790722525,0.8997329671168082
1658789515400206,0.1091935606927592,-0.46564431219958813,0.8799572747386897
1658789515416202,0.10894941634241206,-0.4845654993514916,0.9026626993209739
1658789515432197,0.10699626153963493,-0.48786144808117804,0.902906843671321
1658789515448193,0.11358815899900776,-0.48407721065079734,0.9115739681086446
1658789515464188,0.12201113908598415,-0.4788281071183338,0.910597390707256
1658789515480184,0.11908140688181845,-0.4863965819790952,0.9025406271458003
1658789515496093,0.11712825207904132,-0.49420920119020373,0.8992446784161139
1658789515512088,0.11334401464866062,-0.4821240558480202,0.894361791409171
1658789515528083,0.1167620355535206,-0.47736324101625094,0.9053482871747924
1658789515544078,0.12188906691081058,-0.48065918974593735,0.9208514534218359
1658789515560073,0.11615167467765275,-0.49323262378881516,0.9141374837872895
1658789515576069,0.11273365377279276,-0.48908216983291375,0.9062027924010074
1658789515592064,0.11187914854657777,-0.4816357671473259,0.9030289158464946
1658789515608059,0.11102464332036277,-0.48200198367284663,0.9081559472037846
1658789515624054,0.11322194247348705,-0.4909132524605173,0.910597390707256
1658789515640049,0.11517509727626418,-0.48529793240253305,0.9069352254520489
1658789515656044,0.1117570763714042,-0.48065918974593735,0.9024185549706267
1658789515672039,0.11773861295490917,-0.48151369497215235,0.9032730601968417
1658789515688034,0.11749446860456203,-0.4914015411612116,0.9119401846341653
1658789515704029,0.11871519035629774,-0.4855420767528802,0.9124284733348595
1658789515720024,0.1088273441672385,-0.48358892195010306,0.9055924315251396
1658789515736019,0.10821698329137064,-0.48029297322041664,0.9108415350576031
1658789515752014,0.10943770504310635,-0.4893263141832609,0.9110856794079503
1658789515768009,0.11163500419623062,-0.4834668497749295,0.8971694514381632
1658789515784004,0.11725032425421489,-0.48029297322041664,0.8996108949416346
1658789515799999,0.1155413138017849,-0.47736324101625094,0.9015640497444117
1658789515815948,0.1184710460059506,-0.48493171587701234,0.9187762264438852
1658789515831943,0.11944762340733917,-0.4817578393224995,0.905470359349966
1658789515847937,0.11273365377279276,-0.4750438696879531,0.8855725947966739
1658789515863932,0.11663996337834703,-0.47345693141069667,0.8853284504463268
1658789515879926,0.11688410772869418,-0.47724116884107737,0.9049820706492717
1658789515895921,0.1193255512321656,-0.4791943236438545,0.916578927290761
1658789515911915,0.11480888075074347,-0.4717479209582667,0.899488822766461
1658789515927910,0.11029221026932134,-0.4824902723735409,0.904615854123751
1658789515943905,0.11139085984588348,-0.493842984664683,0.9153582055390252
1658789515959899,0.11688410772869418,-0.4872510872053102,0.9152361333638517
1658789515975894,0.12115663385976916,-0.4661326009002824,0.9081559472037846
1658789515991888,0.11627374685282632,-0.4700389105058367,0.9025406271458003
1658789516007883,0.11309987029831348,-0.4817578393224995,0.8959487296864275
1658789516023877,0.11224536507209848,-0.4783398184176395,0.8996108949416346
1658789516039872,0.11566338597695847,-0.4732127870603495,0.9002212558175025
1658789516055866,0.11505302510109061,-0.47260242618448167,0.901197833218891
1658789516071861,0.11944762340733917,-0.47064927138170454,0.9052262149996189
1658789516087855,0.11810482948042988,-0.4749217975127795,0.8946059357595182
1658789516103850,0.11627374685282632,-0.48200198367284663,0.899488822766461
1658789516119845,0.11139085984588348,-0.48737315938048376,0.8928969253070882
1658789516135803,0.11639581902799989,-0.48187991149767306,0.9016861219195853
1658789516151797,0.12176699473563701,-0.4804150453955902,0.9104753185320824
1658789516167792,0.11798275730525631,-0.4717479209582667,0.9278095674067295
1658789516183786,0.11248950942244562,-0.46759746700236526,0.9108415350576031
1658789516199781,0.10321202410925423,-0.4776073853665981,0.9110856794079503
1658789516215776,0.10308995193408066,-0.48688487067978947,0.9076676585030903
1658789516231770,0.11566338597695847,-0.4807812619211109,0.9270771343556881
1658789516247765,0.12213321126115773,-0.4745555809872588,0.9361104753185323
1658789516263759,0.12103456168459559,-0.48102540627145807,0.9247577630273902
1658789516279754,0.11651789120317346,-0.48407721065079734,0.9025406271458003
1658789516295748,0.11224536507209848,-0.47821774624246594,0.9053482871747924
1658789516311743,0.10968184939345349,-0.4771190966659038,0.904615854123751
1658789516327737,0.11114671549553634,-0.47150377660791953,0.9027847714961474
1658789516343732,0.11163500419623062,-0.48151369497215235,0.904615854123751
1658789516359727,0.11334401464866062,-0.4831006332494088,0.9038834210727096
1658789516375721,0.12018005645838059,-0.4800488288700695,0.8975356679636839
1658789516391716,0.12249942778667844,-0.4821240558480202,0.8881361104753189
1658789516407710,0.11834897383077703,-0.48017090104524307,0.8908216983291375
1658789516423705,0.11029221026932134,-0.4784618905928131,0.9025406271458003
1658789516439699,0.10968184939345349,-0.47357900358587024,0.9208514534218359
1658789516455597,0.10968184939345349,-0.46808575570305955,0.910597390707256
1658789516471591,0.10992599374380063,-0.47223620965896096,0.8996108949416346
1658789516487585,0.11078049897001563,-0.4813916227969788,0.9021744106202796
1658789516503579,0.11578545815213204,-0.48236820019836735,0.913160906385901
1658789516519573,0.12066834515907487,-0.47650873579003594,0.9134050507362481
1658789516535567,0.11773861295490917,-0.48065918974593735,0.9126726176852067
1658789516551561,0.11371023117418133,-0.4843213550011445,0.8988784618905932
1658789516567555,0.11834897383077703,-0.4905470359349966,0.9052262149996189
1658789516583549,0.12457465476462914,-0.4889600976577402,0.9077897306782639
1658789516599543,0.11725032425421489,-0.48688487067978947,0.9102311741817353
1658789516615537,0.11139085984588348,-0.47772945754177165,0.9127946898603803
1658789516631531,0.10064850843060924,-0.48407721065079734,0.9120622568093388
1658789516647525,0.10772869459067635,-0.48114747844663164,0.9103532463569088
1658789516663519,0.11627374685282632,-0.4855420767528802,0.8981460288395517
1658789516679514,0.11712825207904132,-0.4771190966659038,0.8988784618905932
1658789516695508,0.11407644769970204,-0.4758983749141681,0.8965590905622953
1658789516711502,0.11078049897001563,-0.4694285496299688,0.8966811627374689
1658789516727496,0.11065842679484206,-0.4783398184176395,0.8974135957885103
1658789516743490,0.11053635461966849,-0.48444342717631805,0.8859388113221947
1658789516759484,0.11200122072175134,-0.4884718089570459,0.9058365758754867
1658789516775421,0.10809491111619707,-0.48615243762874805,0.9091325246051731
1658789516791415,0.11493095292591704,-0.4699168383306631,0.9064469367513546
1658789516807409,0.10614175631341993,-0.4834668497749295,0.907179369802396
1658789516823403,0.10736247806515564,-0.4829785610742352,0.8964370183871218
1658789516839397,0.11432059205004919,-0.47980468451972236,0.9041275654230567
1658789516855391,0.11212329289692491,-0.4872510872053102,0.9239032578011752
1658789516871385,0.11541924162661132,-0.48688487067978947,0.9292744335088123
1658789516887379,0.11981383993285988,-0.4833447775997559,0.914869916838331
1658789516903373,0.11590753032730561,-0.4910353246356909,0.9049820706492717
1658789516919367,0.11786068513008274,-0.49323262378881516,0.9102311741817353
1658789516935361,0.10907148851758564,-0.4796826123445488,0.9016861219195853
1658789516951356,0.10772869459067635,-0.47431143663691167,0.9103532463569088
1658789516967350,0.10589761196307279,-0.48273441672388806,0.9009536888685439
1658789516983344,0.1109025711451892,-0.4851758602273595,0.9059586480506603
1658789516999338,0.11456473640039633,-0.48029297322041664,0.9041275654230567
1658789517015332,0.11163500419623062,-0.4712596322575724,0.8799572747386897
1658789517031326,0.11212329289692491,-0.48773937590600447,0.8938735027084768
1658789517047320,0.11139085984588348,-0.499824521248188,0.9147478446631574
1658789517063314,0.11346608682383419,-0.48029297322041664,0.9170672159914552
1658789517079308,0.10516517891203137,-0.46430151827267885,0.8966811627374689
1658789517095276,0.10223544670786566,-0.4750438696879531,0.8974135957885103
1658789517111270,0.10394445716029566,-0.49616235599298086,0.9098649576562146
1658789517127264,0.1155413138017849,-0.48859388113221947,0.9136491950865953
1658789517143258,0.11908140688181845,-0.4788281071183338,0.9184100099183645
1658789517159252,0.11590753032730561,-0.48322270542458234,0.9333028152895402
1658789517175246,0.10687418936446136,-0.49152361333638517,0.9180437933928438
1658789517191240,0.10858319981689135,-0.47858396276798665,0.8976577401388575
1658789517207234,0.10162508583199781,-0.48737315938048376,0.9130388342107274
1658789517223228,0.10284580758373352,-0.47980468451972236,0.9188982986190588
1658789517239222,0.11114671549553634,-0.4691844052796217,0.915724422064546
1658789517255216,0.11041428244449492,-0.4749217975127795,0.9125505455100331
1658789517271210,0.11822690165560346,-0.4822461280231938,0.9049820706492717
1658789517287204,0.11029221026932134,-0.4888380254825666,0.8959487296864275
1658789517303198,0.1117570763714042,-0.48285648889906163,0.8947280079346918
1658789517319193,0.10479896238651065,-0.47565423056382095,0.8968032349126425
1658789517335187,0.10785076676584993,-0.47443350881208524,0.8959487296864275
1658789517351181,0.1062638284885935,-0.491279468986038,0.9057145037003131
1658789517367175,0.11663996337834703,-0.47992675669489593,0.8913099870298318
1658789517383169,0.10809491111619707,-0.4738231479362174,0.8683604180971995
1658789517399163,0.11346608682383419,-0.48993667505912875,0.8917982757305261
1658789517415100,0.11419851987487561,-0.49042496375982303,0.8979018844892046
1658789517431093,0.12042420080872773,-0.4846875715266652,0.9173113603418024
1658789517447087,0.11395437552452847,-0.4863965819790952,0.9147478446631574
1658789517463081,0.10736247806515564,-0.4976272220950637,0.9026626993209739
1658789517479074,0.10663004501411422,-0.5009231708247501,0.9090104524299996
1658789517495068,0.11273365377279276,-0.49372091248950944,0.9170672159914552
1658789517511061,0.11041428244449492,-0.4831006332494088,0.9127946898603803
1658789517527055,0.11102464332036277,-0.48102540627145807,0.9271992065308616
1658789517543048,0.1062638284885935,-0.4788281071183338,0.9053482871747924
1658789517559042,0.10748455024032921,-0.4804150453955902,0.9092545967803467
1658789517575036,0.1117570763714042,-0.4931105516136416,0.906324864576181
1658789517591029,0.10931563286793278,-0.4934767681391623,0.9093766689555203
1658789517607023,0.11273365377279276,-0.4892042420080873,0.9118181124589917
1658789517623016,0.10931563286793278,-0.4690623331044481,0.9032730601968417
1658789517639010,0.11309987029831348,-0.46344701304646385,0.896070801861601
1658789517655004,0.1024795910582128,-0.4783398184176395,0.8916762035553525
1658789517670997,0.10492103456168422,-0.47821774624246594,0.8858167391470211
1658789517686991,0.10601968413824636,-0.47687495231555665,0.8919203479056996
1658789517702984,0.1146868085755699,-0.46466773479819956,0.9073014419775696
1658789517718978,0.11212329289692491,-0.47235828183413453,0.9025406271458003
1658789517734924,0.11017013809414777,-0.48236820019836735,0.8947280079346918
1658789517750918,0.10589761196307279,-0.4816357671473259,0.8902113374532696
1658789517766911,0.10540932326237851,-0.48200198367284663,0.8961928740367746
1658789517782905,0.11017013809414777,-0.47052719920653097,0.9041275654230567
1658789517798898,0.11407644769970204,-0.46259250782024885,0.8964370183871218
1658789517814892,0.11114671549553634,-0.47602044708934166,0.8944838635843446
1658789517830886,0.11078049897001563,-0.4892042420080873,0.9018081940947589
1658789517846879,0.10199130235751852,-0.4927443350881209,0.908888380254826
1658789517862873,0.10223544670786566,-0.4900587472343023,0.9053482871747924
1658789517878866,0.1117570763714042,-0.4829785610742352,0.900343327992676
1658789517894860,0.1155413138017849,-0.48187991149767306,0.9090104524299996
1658789517910853,0.11187914854657777,-0.4889600976577402,0.914869916838331
1658789517926847,0.10211337453269209,-0.4892042420080873,0.9138933394369424
1658789517942841,0.1004043640802621,-0.500679026474403,0.9226825360494395
1658789517958834,0.10162508583199781,-0.5123979552910658,0.9346456092164495
1658789517974828,0.10663004501411422,-0.5094682230869001,0.9302510109102009
1658789517990821,0.10186923018234495,-0.4934767681391623,0.9220721751735717
1658789518006815,0.10394445716029566,-0.4892042420080873,0.9279316395819031
1658789518022809,0.11053635461966849,-0.49665064469367515,0.9352559700923173
1658789518038802,0.10931563286793278,-0.5087357900358587,0.9181658655680174
1658789518054779,0.1041886015106428,-0.5067826352330815,0.9032730601968417
1658789518070772,0.09808499275196425,-0.4973830777447166,0.9094987411306938
1658789518086766,0.10003814755474139,-0.4893263141832609,0.9096208133058674
1658789518102759,0.10785076676584993,-0.4804150453955902,0.8990005340657667
1658789518118753,0.1024795910582128,-0.4845654993514916,0.8917982757305261
1658789518134747,0.10308995193408066,-0.4826123445487145,0.8865491721980625
1658789518150740,0.10492103456168422,-0.47907225146868093,0.8959487296864275
1658789518166734,0.10675211718928779,-0.4871290150301366,0.8947280079346918
1658789518182727,0.09906157015335282,-0.49152361333638517,0.8961928740367746
1658789518198721,0.10138094148165067,-0.47565423056382095,0.9059586480506603
1658789518214715,0.10992599374380063,-0.4649118791485467,0.9048599984740981
1658789518230708,0.11505302510109061,-0.4783398184176395,0.9119401846341653
1658789518246702,0.11114671549553634,-0.4943312733653773,0.8877698939497982
1658789518262695,0.1100480659189742,-0.49250019073777374,0.8899671931029225
1658789518278689,0.1088273441672385,-0.48566414892805376,0.9094987411306938
1658789518294683,0.11883726253147131,-0.47260242618448167,0.9132829785610745
1658789518310676,0.11627374685282632,-0.48993667505912875,0.9271992065308616
1658789518326670,0.11151293202105705,-0.49530785076676587,0.9138933394369424
1658789518342663,0.10846112764171778,-0.5039749752040894,0.8987563897154196
1658789518358657,0.11224536507209848,-0.48822766460669875,0.8968032349126425
1658789518374603,0.11309987029831348,-0.47772945754177165,0.8914320592050053
1658789518390596,0.10870527199206492,-0.4755321583886474,0.9090104524299996
1658789518406589,0.10870527199206492,-0.48395513847562377,0.9040054932478832
1658789518422582,0.11248950942244562,-0.4888380254825666,0.9008316166933703
1658789518438575,0.10833905546654421,-0.49628442816815443,0.8880140383001454
1658789518454568,0.10748455024032921,-0.4901808194094759,0.892652780956741
1658789518470562,0.10455481803616351,-0.4729686427100024,0.8948500801098653
1658789518486555,0.10955977721827992,-0.46771953917753883,0.901197833218891
1658789518502548,0.10968184939345349,-0.48322270542458234,0.8971694514381632
1658789518518541,0.11114671549553634,-0.4976272220950637,0.8865491721980625
1658789518534534,0.11102464332036277,-0.48993667505912875,0.8930189974822618
1658789518550527,0.10980392156862706,-0.492133974212253,0.9030289158464946
1658789518566520,0.11187914854657777,-0.49445334554055087,0.9118181124589917
1658789518582513,0.11187914854657777,-0.49030289158464946,0.9110856794079503
1658789518598507,0.10858319981689135,-0.49164568551155874,0.9267109178301673
1658789518614500,0.10736247806515564,-0.49835965514610514,0.9127946898603803
1658789518630493,0.10663004501411422,-0.5089799343862058,0.9192645151445795
1658789518646486,0.11505302510109061,-0.49616235599298086,0.9065690089265281
1658789518662479,0.12115663385976916,-0.48273441672388806,0.899488822766461
1658789518678472,0.11920347905699202,-0.4791943236438545,0.9127946898603803
1658789518694427,0.11725032425421489,-0.49372091248950944,0.9160906385900667
1658789518710420,0.11371023117418133,-0.49372091248950944,0.9070572976272224
1658789518726413,0.11224536507209848,-0.48651865415426876,0.8905775539787903
1658789518742406,0.11102464332036277,-0.48102540627145807,0.8936293583581296
1658789518758400,0.10540932326237851,-0.4834668497749295,0.8906996261539639
1658789518774393,0.11285572594796633,-0.4678416113527124,0.8900892652780961
1658789518790386,0.11017013809414777,-0.4758983749141681,0.8810559243152518
1658789518806379,0.11139085984588348,-0.48993667505912875,0.8966811627374689
1658789518822372,0.11480888075074347,-0.4950637064164187,0.9025406271458003
1658789518838365,0.12408636606393486,-0.47772945754177165,0.8865491721980625
1658789518854358,0.12579537651636574,-0.463691157396811,0.8747081712062252
1658789518870351,0.12237735561150487,-0.47687495231555665,0.8793469138628218
1658789518886345,0.12384222171358772,-0.4769970244907302,0.8767833981841768
1658789518902338,0.12664988174258074,-0.48651865415426876,0.8982681010147253
1658789518918331,0.12286564431219915,-0.4834668497749295,0.907179369802396
1658789518934324,0.11541924162661132,-0.4860303654535745,0.9053482871747924
1658789518950317,0.10968184939345349,-0.4934767681391623,0.9076676585030903
1658789518966310,0.11053635461966849,-0.49323262378881516,0.9173113603418024
1658789518982303,0.12103456168459559,-0.4889600976577402,0.9805447470817121
1658789518998296,0.13031204699778787,-0.5421835660334171,1.1001754787518117
1658789519014251,0.14642557412069923,-0.5753871976806288,1.128496223392081
1658789519030244,0.14898908979934422,-0.6301976043335622,1.1322804608224617
1658789519046238,0.14373998626688067,-0.6354467078660258,1.1652399481193259
1658789519062231,0.12005798428320702,-0.6253147173266194,1.2097962920576792
1658789519078224,0.10907148851758564,-0.6261692225528344,1.3047684443427174
1658789519094217,0.12115663385976916,-0.6819562066071563,1.4008392462043187
1658789519110210,0.12481879911497629,-0.7323720149538415,1.4816510261692226
1658789519126203,0.1381246662088964,-0.7376211184863051,1.5175402456702525
1658789519142196,0.13287556267643286,-0.695262073701076,1.5096055542839704
1658789519158189,0.10211337453269209,-0.6820782787823298,1.4803082322423133
1658789519174183,0.10211337453269209,-0.6890363927672238,1.4478370336461435
1658789519190176,0.11773861295490917,-0.6616922255283435,1.471885252155337
1658789519206169,0.13617151140611927,-0.6303196765087358,1.4499122606240942
1658789519222162,0.13214312962539143,-0.6403295948729686,1.40498970016022
1658789519238155,0.13531700617990428,-0.6859845883878841,1.3554283970397494
1658789519254148,0.1415426871137564,-0.725413900968948,1.376302738994431
1658789519270141,0.1381246662088964,-0.719432364385443,1.3766689555199516
1658789519286134,0.13531700617990428,-0.6742656595712213,1.2243228809033342
1658789519302127,0.14227512016479782,-0.6576638437476157,1.1153124284733344
1658789519318121,0.1432516975661864,-0.6447241931792171,1.0700236514839396
1658789519334106,0.1906157015335319,-0.537666895551995,0.9901884489204242
1658789519350099,0.1952544441901276,-0.47724116884107737,0.9069352254520489
1658789519366092,0.19757381551842546,-0.40277714198519865,0.6997787441824981
1658789519382085,0.20807202258335256,-0.35284962233920814,0.5665980010681313
1658789519398079,0.2129549095902954,-0.3530937666895553,0.5623254749370563
1658789519414072,0.23456168459601745,-0.3281910429541468,0.5907682917524983
1658789519430065,0.2528725108720531,-0.3303883421072711,0.5341268024719614
1658789519446058,0.2885175860227358,-0.2556801709010452,0.3390554665445942
1658789519462051,0.3649347676813912,-0.2179598687724118,0.2612954909590295
1658789519478044,0.3910582131685363,-0.25470359349965666,0.2305333028152896
1658789519494037,0.4329289692530711,-0.201113908598459,0.23468375677119102
1658789519510030,0.4863965819790952,-0.166567483024338,0.15594720378423776
1658789519526023,0.5304646372167543,-0.11029221026932179,1.831082627603564E-4
1658789519542017,0.6067597467002361,-0.06720073243305125,0.030945296406500233
1658789519558010,0.6666971847104604,-0.038879987792782345,0.09381246662088927
1658789519574003,0.7359121080338751,-0.015320057984283153,0.10260166323338638
1658789519589996,0.7653315022507057,-0.0707408255130848,0.08050659952697004
1658789519605989,0.7625238422217135,-0.07147325856412623,-0.06329442282749698
1658789519621982,0.7570305943389029,-0.03741512169069949,-0.01239032578011745
1658789519637975,0.7633783474479285,-0.038879987792782345,0.11517509727626418
1658789519653930,0.791699092088197,-0.028137636377508102,0.06683451590753009
1658789519669923,0.804516670481422,-0.036194399938963784,-0.018493934538795997
1658789519685917,0.8097657740138855,-0.02789349202716096,-0.0567025253681237
1658789519701910,0.836377508201724,0.02935835812924381,-0.09918364232852683
1658789519717903,0.8410162508583197,0.007507438773174613,-0.17486839093614082
1658789519733896,0.8164797436484319,-0.01104753185320817,-0.240665293354696
1658789519749889,0.802807660028992,-0.036438544289310926,-0.20587472343022828
1658789519765882,0.7941405355916684,-0.0669565880827041,-0.1660791943236437
1658789519781875,0.8666514076447696,-0.013000686655985305,-0.1707179369802394
1658789519797868,0.9158464942397195,-0.046814679179064456,-0.25311665522240023
1658789519813861,0.983718623636225,-0.06036469062333083,-0.467109178301671
1658789519829855,1.0221713588158998,-0.019226367589837423,-0.6182345311665522
1658789519845848,0.9673609521629665,0.05658045319295013,-0.6139620050354773
1658789519861841,0.9032730601968417,0.04315251392385733,-0.5919890135042345
1658789519877834,0.8317387655451283,0.010193026626993174,-0.6929427023727781
1658789519893827,0.8030518043793391,0.03155565728236809,-0.7609369039444571
1658789519909820,0.8384527351796747,0.09515526054779855,-0.7995117112993055
1658789519925813,0.8885023270008396,0.10089265278095638,-0.831372549019608
1658789519941806,0.9171892881666288,0.05242999923704872,-0.8435797665369651
1658789519957800,0.9236591134508281,0.010437170977340315,-0.8740978103303578
1658789519973724,0.9163347829404138,-0.018371862363622427,-0.8201419089036395
1658789519989717,0.8981460288395517,-0.017029068436713146,-0.7792477302204928
1658789520005709,0.8802014190890368,0.002868696116578917,-0.7377431906614786
1658789520021702,0.8483405813687339,-0.05145342183566015,-0.6298313878080415
1658789520037695,0.8156252384222169,-0.09881742580300612,-0.5255817502098115
1658789520053687,0.7954833295185777,-0.08148317692835905,-0.46393530174715814
1658789520069680,0.7841306172274356,-0.006775005722133187,-0.4683299000534067
1658789520085672,0.7481193255512322,-0.03826962691691449,-0.3753109025711452
1658789520101665,0.7259021896696423,-0.05413900968947871,-0.2840009155413137
1658789520117658,0.7149156939040209,-0.032532234683756656,-0.17779812314030652
1658789520133650,0.7370107576104372,-0.0319218738078888,-0.029480430304417382
1658789520149643,0.7545891508354314,-0.0783093003738462,0.11871519035629774
1658789520165636,0.7600823987182421,-0.10577553978789966,0.14227512016479782
1658789520181628,0.7346913862821394,-0.07660028992141621,0.11322194247348705
1658789520197621,0.6957503624017702,-0.04107728694590662,0.19342336156252404
1658789520213614,0.6820782787823303,-0.058289463645380124,0.3766536964980549
1658789520229606,0.6669413290608075,-0.10553139543755252,0.5545128557259478
1658789520245599,0.6478980697337304,-0.13092240787365528,0.562691691462577
1658789520261592,0.615060654612039,-0.1607080186160066,0.5026321812771801
1658789520277584,0.5989471274891276,-0.08404669260700404,0.4129091325246055
1658789520293579,0.6109102006561375,-0.05645838101777656,0.5152056153200579
1658789520309571,0.626413366903182,-0.048157473105973736,0.6192111085679404
1658789520325564,0.6496070801861604,-0.08941786831464116,0.6834210727092396
1658789520341557,0.6406958113984897,-0.12457465476462959,0.6741435873960482
1658789520357549,0.6077363241016247,-0.11139085984588393,0.6021210040436404
1658789520373542,0.5714808880750741,-0.13446250095368883,0.6865949492637524
1658789520389535,0.5364461738002593,-0.14459449149309522,0.7551995117112993
1658789520405527,0.525703822384985,-0.18146028839551365,0.8185549706263826
1658789520421520,0.5167925535973144,-0.23028915846494247,0.8367437247272447
1658789520437512,0.5319295033188371,-0.14630350194552522,0.7575188830395971
1658789520453505,0.5225299458304722,-0.1870756084534979,0.8693369954985881
1658789520469498,0.5117875944151979,-0.278507667658503,0.9275654230563823
1658789520485490,0.5188677805752651,-0.2506752117189288,0.9110856794079503
1658789520501483,0.5120317387655451,-0.18524452582589435,0.9209735255970095
1658789520517476,0.4874952315556573,-0.19012741283283763,0.9823758297093157
1658789520533468,0.45929655909056244,-0.2418860151064317,1.0208285648889905
1658789520549461,0.4308537422751204,-0.23761348897535672,0.9711451895933472
1658789520565454,0.38410009918364274,-0.25897611963073164,0.9275654230563823
1658789520581446,0.3272144655527578,-0.310368505378805,0.9735866330968186
1658789520597439,0.3367360952162963,-0.32123292896925326,1.012161440451667
1658789520613403,0.36481269550621764,-0.29755092698558006,1.0037384603646906
1658789520629396,0.38190280003051846,-0.3711604486152438,1.0161898222323948
1658789520645388,0.353337911039902,-0.4080262455176622,0.9917753871976807
1658789520661381,0.3325856412603949,-0.3944762340733958,1.0006866559853513
1658789520677374,0.3057297627222093,-0.44782177462424677,1.1176317998016323
1658789520693366,0.35382619974059626,-0.39191271839475084,1.1369192034790574
1658789520709359,0.3985046158541241,-0.356878004119936,1.1221484702830544
1658789520725351,0.40631723506523265,-0.45831998168917387,1.160357061112383
1658789520741344,0.3826352330815599,-0.5751430533302817,1.3409018081940944
1658789520757337,0.34723430228122343,-0.6261692225528344,1.493492027161059
1658789520773329,0.3267261768520635,-0.6135957885099566,1.5314564736400396
1658789520789322,0.31390859845883856,-0.6896467536430917,1.5113145647364004
1658789520805315,0.30890363927672215,-0.7431143663691158,1.550988021667811
1658789520821307,0.31097886625467286,-0.7434805828946365,1.6422980086976429
1658789520837300,0.31732661936369855,-0.6934309910734724,1.64254215304799
1658789520853293,0.3134203097581443,-0.7757076371404592,1.6463263904783707
1658789520869285,0.3229419394216828,-0.8214847028305488,1.573449301899748
1658789520885278,0.34723430228122343,-0.8106202792401005,1.546715495536736
1658789520901270,0.349919890135042,-0.7698481727321278,1.5041123064011597
1658789520917263,0.3444266422522313,-0.7631342030975814,1.463340199893187
1658789520933227,0.3272144655527578,-0.8112306401159683,1.4395361257343406
1658789520949220,0.33319600213626277,-0.7991454947737848,1.4215915159838257
1658789520965212,0.3518730449378191,-0.7149156939040209,1.357259479667353
1658789520981205,0.32318608377202995,-0.6818341344319827,1.2854810406652932
1658789520997198,0.3074387731746393,-0.638498512245365,1.19819943541619
1658789521013190,0.3014572365911343,-0.6157930876630808,1.207843137254902
1658789521029183,0.30609597924773,-0.5641565575646603,1.19990844586862
1658789521045176,0.32574959945067494,-0.49250019073777374,1.1343556878004124
1658789521061168,0.3230640115968564,-0.47394522011139095,1.007888914320592
1658789521077161,0.3040207522697793,-0.49250019073777374,0.9507591363393608
1658789521093154,0.27862973983367656,-0.45551232166018174,0.8800793469138632
1658789521109146,0.2952315556572822,-0.3651789120317388,0.7847409781033035
1658789521125139,0.31439688715953285,-0.3314869916838332,0.6861066605630581
1658789521141132,0.34711223010604986,-0.33051041428244465,0.5230182345311665
1658789521157124,0.3805600061036092,-0.3169604028381783,0.46601052872510884
1658789521173117,0.4031433585107198,-0.23797970550087744,0.3936217288471813
1658789521189109,0.4402532997634854,-0.18268101014724936,0.32574959945067494
1658789521205102,0.4948195620660716,-0.20099183642328544,0.25763332570382236
1658789521221095,0.5543907835507742,-0.18744182497901862,0.15106431677729493
1658789521237087,0.591989013504234,-0.11505302510109106,0.09503318837262498
1658789521253051,0.6076142519264511,-0.025574120698863112,0.05108720531013944
1658789521269044,0.602243076218814,-0.03546196688792236,0.06353856717784367
1658789521285037,0.6085908293278397,-0.046570534828717314,-0.006775005722133187
1658789521301029,0.649729152361334,-0.04693675135423803,0.03472953383688093
1658789521317022,0.6977035172045474,0.031311512932020946,-0.0018921187151903496
1658789521333015,0.7544670786602579,0.09845120927748496,-0.05938811322194226
1658789521349007,0.7854734111543449,0.03546196688792236,-0.12530708781567101
1658789521365000,0.7791256580453192,-0.02410925459678026,-0.09698634317540256
1658789521380993,0.7884031433585106,-0.0394903486686502,-0.003112840466926059
1658789521396985,0.8062256809338519,-0.024963759822995257,0.01605249103532458
1658789521412978,0.827832455939574,-0.055848020141908705,-0.06207370107576082
1658789521428970,0.8428473334859232,-0.07940794995040834,-0.13568322270542454
1658789521444963,0.832959487296864,-0.08355840390630975,-0.059754329747462975
1658789521460956,0.8181887541008619,-0.07391470206759765,-0.04376287479972518
1658789521476948,0.8405279621576254,-0.027038986800945963,-0.10150301365682468
1658789521492941,0.8784924086366068,5.493247882810692E-4,-0.17389181353475225
1658789521508934,0.8887464713511868,0.03582818341344307,-0.21820401312275894
1658789521524926,0.8904554818036168,0.053406576638437286,-0.26141756313420306
1658789521540919,0.9000991836423289,0.07000839246204293,-0.2766765850308994
1658789521556912,0.9057145037003131,0.05999847409781012,-0.27606622415503157
1658789521572906,0.9333028152895402,0.08282597085526788,-0.315617608911269
1658789521588899,0.9690699626153965,0.0776989394979779,-0.36871900511177236
1658789521604891,0.9682154573891815,0.05023270008392444,-0.4614938582436867
1658789521620884,0.9507591363393608,0.023376821545738835,-0.5060502021820401
1658789521636877,0.928786144808118,0.03558403906309593,-0.49030289158464946
1658789521652869,0.8866712443732361,0.03216601815823594,-0.4976272220950637
1658789521668862,0.8773937590600447,0.02386511024643312,-0.6157930876630808
1658789521684855,0.883863584344244,-0.02008087281605242,-0.7113756008239873
1658789521700847,0.9079118028534374,-0.014587624933241727,-0.7072251468680859
1658789521716840,0.9284199282825973,0.012756542305638163,-0.6999008163576717
1658789521732833,0.9358663309681852,0.020935378042267416,-0.716868848706798
1658789521748825,0.9225604638742659,-0.027161058976119534,-0.7113756008239873
1658789521764818,0.9289082169832916,-0.03460746166170736,-0.6873273823147934
1658789521780810,0.9323262378881516,-0.0252079041733424,-0.6758525978484777
1658789521796803,0.9408712901503016,-0.04522774090180803,-0.6295872434576943
1658789521812796,0.9250019073777374,-0.08087281605249119,-0.5894254978255895
1658789521828788,0.9049820706492717,-0.08319218738078904,-0.5409628442816814
1658789521844781,0.8811779964904254,-0.07879758907454049,-0.5104448004882887
1658789521860774,0.8386968795300218,-0.0858777752346076,-0.4707713435568781
1658789521876766,0.8240482185091933,-0.09735255970092327,-0.4130312046997786
1658789521892700,0.8177004654001676,-0.12018005645838103,-0.35529106584267955
1658789521908692,0.8356450751506825,-0.15484855420767518,-0.2931563286793315
1658789521924684,0.8538338292515446,-0.11273365377279321,-0.2818036163881894
1658789521940676,0.8526131074998089,-0.10846112764171822,-0.23285267414358746
1658789521956668,0.8371099412527654,-0.15777828641184088,-0.18829633020523406
1658789521972661,0.8256351567864497,-0.17926298924238937,-0.18634317540245648
1658789521988653,0.8012207217517355,-0.17682154573891795,-0.14349584191653308
1658789522004645,0.795971618219272,-0.12225528343633174,-0.10260166323338682
1658789522020637,0.7884031433585106,-0.12262149996185245,-0.014221408407721015
1658789522036629,0.7551995117112993,-0.16791027695124727,0.0020141908903639205
1658789522052621,0.7484855420767529,-0.16546883344777585,0.002868696116578917
1658789522068614,0.7395742732890822,-0.12762645914396886,0.08514534218356573
1658789522084606,0.7235828183413444,-0.12848096437018386,0.18329137102311766
1658789522100598,0.7147936217288473,-0.12530708781567101,0.22601663233386748
1658789522116590,0.7017318989852752,-0.11456473640039677,0.2263828488593882
1658789522132582,0.6660868238345925,-0.11053635461966893,0.2957198443579765
1658789522148574,0.6151827267872125,-0.07110704203860552,0.37982757305256776
1658789522164567,0.6074921797512776,-0.08746471351186402,0.5283894102388036
1658789522180559,0.6004119935912104,-0.13861295490959025,0.5766079194323641
1658789522196551,0.6172579537651632,-0.11432059205004963,0.52997634851606
1658789522212524,0.6120088502326997,-0.08685435263599617,0.5803921568627448
1658789522228516,0.5938200961318376,-0.052918287937743,0.6968490119783324
1658789522244508,0.6074921797512776,-0.03717097734035235,0.8153810940718698
1658789522260501,0.626413366903182,-0.05951018539711583,0.7890135042343784
1658789522276493,0.6040741588464176,-0.10919356069275965,0.7759517814908063
1658789522292485,0.5490196078431371,-0.17108415350576012,0.8349126420996411
1658789522308477,0.46894026092927454,-0.21698329137102323,0.8661631189440753
1658789522324469,0.4539253833829253,-0.2121004043640804,0.9125505455100331
1658789522340461,0.4872510872053102,-0.20819409475852613,0.9251239795529109
1658789522356454,0.5216754406042572,-0.16913099870298298,0.8313725490196076
1658789522372446,0.5097123674372472,-0.15948729686427088,0.780590524147402
1658789522388438,0.43280689707789755,-0.25592431525139236,0.8256351567864497
1658789522404430,0.3690852216372926,-0.2747234302281223,0.8858167391470211
1658789522420422,0.34454871442740487,-0.2747234302281223,0.9036392767223624
1658789522436414,0.34161898222323916,-0.22149996185244536,0.8306401159685661
1658789522452407,0.3676203555352098,-0.2229648279545282,0.8782482642862597
1658789522468399,0.3356374456397342,-0.31537346456092186,0.9494163424124515
1658789522484391,0.3270923933775842,-0.31280994888227687,0.9425803006027316
1658789522500383,0.3268482490272371,-0.33722438391699106,0.9872587167162585
1658789522516375,0.344792858777752,-0.32257572289616254,0.9613794155794615
1658789522532379,0.32452887769893923,-0.3261158159761961,0.9842069123369193
1658789522548371,0.26654459449149304,-0.37848477912565803,1.0883344777599753
1658789522564363,0.24408331425955598,-0.40106813153276866,1.1551079575799195
1658789522580355,0.25641260395208665,-0.3787289234760052,1.1607232776379037
1658789522596347,0.24139772640573742,-0.34699015793087673,1.119707026779583
1658789522612340,0.23443961242084388,-0.3958190280003051,1.1835507743953615
1658789522628332,0.22040131227588322,-0.502388036926833,1.2588693064774548
1658789522644324,0.21063553826199755,-0.5429159990844585,1.3749599450675207
1658789522660316,0.21869230182345323,-0.5432822156099792,1.4312352178225378
1658789522676308,0.21429770351720467,-0.5828336003662167,1.4706645304036012
1658789522692300,0.20892652780956755,-0.6463111314564736,1.455649652857252
1658789522708293,0.23285267414358746,-0.6548561837186235,1.5651483939879451
1658789522724285,0.25140764476997024,-0.6013885709925995,1.589074540321965
1658789522740277,0.24921034561684596,-0.6275120164797436,1.595910582131685
1658789522756269,0.23614862287327387,-0.6803692683298999,1.5242542153047989
1658789522772261,0.23504997329671173,-0.758129243915465,1.5929808499275193
1658789522788253,0.2394445716029603,-0.7329823758297094,1.5634393835355151
1658789522804246,0.2138094148165104,-0.7449454489967193,1.5107042038605325
1658789522820238,0.1923247119859619,-0.7798580910963606,1.4629739833676663
1658789522836230,0.20025940337224402,-0.7738765545128556,1.4984969863431754
1658789522852203,0.20257877470054186,-0.7073472190432595,1.4099946593423365
1658789522868195,0.20294499122606258,-0.7129625391012437,1.3607995727473865
1658789522884187,0.18951705195696977,-0.7205310139620051,1.2881666285191118
1658789522900179,0.21429770351720467,-0.7207751583123523,1.2840161745632104
1658789522916172,0.23907835507743957,-0.6671854734111542,1.3085526817730981
1658789522932164,0.24164187075608456,-0.6106660563057908,1.22554360265507
1658789522948156,0.24982070649271382,-0.5634241245136189,1.122270542458228
1658789522964148,0.2586099031052109,-0.5656214236667432,1.0695353627832453
1658789522980140,0.2647135118638895,-0.5537804226749063,1.0805218585488667
1658789522996132,0.27655451285572585,-0.49323262378881516,1.0944380865186538
1658789523012125,0.30060273136491933,-0.4332951857785914,0.9839627679865721
1658789523028117,0.3263599603265428,-0.4102235446707865,0.8429694056610968
1658789523044109,0.3469901579308763,-0.4376897840848404,0.8108644235904476
1658789523060101,0.3372243839169906,-0.4113221942473486,0.8437018387121382
1658789523076093,0.33453879606317205,-0.3244068055237661,0.8043945983062484
1658789523092085,0.3402761882963299,-0.3202563515678647,0.731395437552453
1658789523108078,0.36395819028000265,-0.2914473182269015,0.5552452887769892
1658789523124070,0.41266498817425834,-0.26654459449149304,0.4846875715266652
1658789523140062,0.42645914396887186,-0.22418554970626392,0.5138628213931486
1658789523156054,0.4463569085221639,-0.16998550392919798,0.5296101319905393
1658789523172027,0.4564888990615703,-0.1290913252460517,0.34918745708400056
1658789523188019,0.54193942168307,-0.09100480659189758,0.12481879911497629
1658789523204012,0.6035858701457233,-0.12005798428320746,0.14264133669031853
1658789523220004,0.6160372320134275,-0.08636606393530188,0.19684138246738403
1658789523235996,0.6078583962767983,-0.07135118638895266,0.2661783779659723
1658789523251988,0.6110322728313111,-0.08453498130769832,0.14728007934691423
1658789523267980,0.6736552986953539,-0.042786297398336615,-0.03546196688792236
1658789523283972,0.7080796520943009,-0.03851377126726163,-0.0012817578393224949
1658789523299965,0.7149156939040209,-0.011902037079423167,0.010315098802166744
1658789523315957,0.7078355077439538,-0.024963759822995257,0.048035400930800165
1658789523331949,0.7384756237125201,-0.05352864881361086,-0.022156099794003126
1658789523347941,0.8172121766994733,0.018371862363622427,-0.1438620584420538
1658789523363933,0.8473640039673453,0.036438544289310926,-0.15875486381322945
1658789523379925,0.8421149004348818,0.013122758831158876,-0.18976119630731692
1658789523395918,0.8405279621576254,-4.272526131074983E-4,-0.1795071335927365
1658789523411910,0.850293736171511,-0.011779964904249596,-0.15838864728770874
1658789523427902,0.8797131303883425,0.03973449301899734,-0.20477607385366614
1658789523443894,0.8927748531319146,0.05426108186465228,-0.26898603799496446
1658789523459886,0.9201190203707945,0.055725947966735134,-0.3223315785458154
1658789523475878,0.9361104753185323,0.07574578469520077,-0.33636987869077606
1658789523491851,0.9315938048371102,0.1100480659189742,-0.35455863279163813
1658789523507844,0.917433432516976,0.11737239642938846,-0.4083924620431829
1658789523523836,0.9151140611886781,0.14874494544899708,-0.5203326466773479
1658789523539828,0.9232928969253074,0.21051346608682397,-0.6297093156328679
1658789523555820,0.8998550392919817,0.17999542229343124,-0.6127412832837416
1658789523571812,0.903761348897536,0.1969634546425576,-0.7328603036545358
1658789523587804,0.9241474021515224,0.21564049744411395,-0.7990234225986113
1658789523603797,0.9230487525749602,0.17694361791409197,-0.7819333180743113
1658789523619789,0.9042496375982303,0.17499046311131483,-0.7902342259861141
1658789523635781,0.8871595330739304,0.15313954375524563,-0.7948729686427098
1658789523651773,0.8902113374532696,0.12262149996185201,-0.7755855649652856
1658789523667765,0.8889906157015339,0.10321202410925423,-0.7637445639734493
1658789523683757,0.8788586251621275,0.09918364232852639,-0.7273670557717251
1658789523699750,0.8719005111772331,0.11041428244449492,-0.6659647516594185
1658789523715742,0.877882047760739,0.15460440985732848,-0.6128633554589151
1658789523731734,0.8638437476157774,0.1914702067597469,-0.6067597467002366
1658789523747726,0.8266117341878383,0.1334859235523007,-0.5611047531853206
1658789523763718,0.7785152971694513,0.06866559853513365,-0.4826123445487145
1658789523779710,0.7370107576104372,0.04486152437628732,-0.40692759594110006
1658789523795703,0.7144274052033266,0.010559243152513886,-0.28925001907377723
1658789523811676,0.7128404669260702,9.15541313801782E-4,-0.22577248798352034
1658789523827668,0.7171129930571452,0.039124132143129486,-0.16473640039673443
1658789523843660,0.6868390936140996,0.025085831998168828,-0.0963759822995347
1658789523859652,0.659983215075914,-0.03546196688792236,-0.05413900968947871
1658789523875644,0.6707255664911882,-0.02667277027542525,-0.01886015106431671
1658789523891636,0.6748760204470896,0.008972304875257464,0.0928358892195007
1658789523907629,0.6653543907835511,-0.01873807888914314,0.27069504844739445
1658789523923621,0.6380102235446712,-0.06854352635996053,0.32452887769893923
1658789523939613,0.6170138094148161,-0.07293812466620908,0.3554131380178527
1658789523955605,0.5878385595483326,-0.04718089570458517,0.3734798199435412
1658789523971597,0.5431601434348057,-0.08990615701533544,0.504097047379263
1658789523987589,0.5148393987945372,-0.10882734416723894,0.6380102235446712
1658789524003582,0.5185015640497443,-0.15924315251392374,0.658274204623484
1658789524019574,0.557564660105287,-0.17560082398718224,0.6714579995422296
1658789524035566,0.5497520408941785,-0.08624399176012831,0.6543678950179297
1658789524051558,0.4984817273212787,-0.1135881589990082,0.8300297550926983
1658789524067550,0.4566109712367439,-0.15997558556496516,0.934767681391623
1658789524083542,0.46259250782024885,-0.093446250095369,0.8089112687876705
1658789524099535,0.467963683527886,-0.05926604104676869,0.7930418860151063
1658789524115527,0.44330510414282465,-0.094300755321584,0.9206073090714888
1658789524131500,0.4079041733424891,-0.1366598001068131,1.0418249790188447
1658789524147492,0.37897306782635276,-0.17145037003128083,1.0523231860837718
1658789524163484,0.3609063859006634,-0.21112382696269183,1.0240024414435034
1658789524179476,0.3566338597695884,-0.18988326848249049,1.0332799267566948
1658789524195469,0.3367360952162963,-0.237247272449836,1.113725490196078
1658789524211461,0.2995040817883572,-0.2562905317769131,1.1142137788967723
1658789524227453,0.277653162432288,-0.23065537499046318,1.0834515907530324
1658789524243445,0.281925688563363,-0.24042114900434886,1.0430457007705805
1658789524259437,0.2713054093232623,-0.21869230182345323,1.0000762951094835
1658789524275429,0.2523842221713588,-0.25592431525139236,1.0956588082703895
1658789524291422,0.25470359349965666,-0.31830319676508756,1.1363088426031895
1658789524307414,0.26898603799496446,-0.4185244525825893,1.1974670023651486
1658789524323406,0.26898603799496446,-0.43781185626001395,1.171465629053178
1658789524339398,0.23883421072709243,-0.45502403295948746,1.1852597848477915
1658789524355390,0.22919050888838033,-0.5182574196993972,1.2210269321736478
1658789524371382,0.2578774700541695,-0.5678187228198674,1.3208819714656288
1658789524387375,0.3162279697871364,-0.5885709925993745,1.398764019226368
1658789524403367,0.31903562981612854,-0.5840543221179524,1.3891203173876558
1658789524419359,0.29010452429999223,-0.6576638437476157,1.4252536812390328
1658789524435351,0.26019684138246735,-0.7178454261081866,1.4850690470740826
1658789524451324,0.2747234302281223,-0.7534905012588693,1.5551384756237123
1658789524467316,0.28448920424200796,-0.7280994888227665,1.5513542381933316
1658789524483308,0.28290226596475154,-0.7715571831845578,1.5679560540169373
1658789524499301,0.27240405889982444,-0.839063096055543,1.578820477607385
1658789524515293,0.2709391927977416,-0.8419928282597087,1.5968871595330736
1658789524531285,0.2700846875715266,-0.7926756694895856,1.5214465552758067
1658789524547277,0.2620279240100709,-0.76411078049897,1.465903715571832
1658789524563269,0.2533607995727474,-0.7510490577553979,1.407309071488518
1658789524579261,0.2645914396887159,-0.7415274280918593,1.3948577096208137
1658789524595254,0.2700846875715266,-0.726268406195163,1.358113984893568
1658789524611246,0.2670328831921873,-0.6955062180514231,1.3319905394064238
1658789524627238,0.2621499961852445,-0.6873273823147934,1.2779125658045318
1658789524643230,0.2575112535286488,-0.6795147631036849,1.1779354543373772
1658789524659222,0.27228198672465087,-0.65473411154345,1.1433890287632567
1658789524675214,0.26727702754253446,-0.6055390249485009,1.1324025329976353
1658789524691207,0.2965743495841915,-0.5571984435797663,1.1252002746623946
1658789524707199,0.3209887846189057,-0.5182574196993972,1.0006866559853513
1658789524723191,0.32990005340657635,-0.5300984206912336,0.9926298924238957
1658789524739183,0.3157396810864421,-0.5103227283131151,1.0407263294422826
1658789524755175,0.308659494926375,-0.4109559777218279,0.9931181811245899
1658789524771179,0.3259937438010221,-0.3529716945143817,0.8388189517051954
1658789524787171,0.34259555962462773,-0.3598077363241017,0.7768062867170213
1658789524803163,0.36102845807583694,-0.35663385976958883,0.7370107576104372
1658789524819155,0.3930113679713134,-0.3302662699320975,0.7914549477378499
1658789524835147,0.3842221713588163,-0.3202563515678647,0.7437247272449836
1658789524851140,0.39411001754787556,-0.2877851529716944,0.6046845197222854
1658789524867132,0.39996948195620696,-0.2645914396887159,0.4612497138933396
1658789524883124,0.4401312275883118,-0.2709391927977416,0.43060959792477327
1658789524899116,0.4531929503318839,-0.21564049744411395,0.4896925307087816
1658789524915108,0.5051956969558251,-0.13311970702677955,0.44281681544213036
1658789524931100,0.5329060807202257,-0.08807507438773188,0.26642252231631947
1658789524947093,0.6023651483939876,-0.03167772945754166,0.08966201266498786
1658789524963085,0.6425268940260933,-0.04510566872663446,0.09405661097123641
1658789524979077,0.6392309452964069,-0.06634622720683625,0.1494773785000385
1658789524995069,0.6441138323033497,-0.04596017395284946,0.1310444800488293
1658789525011061,0.6709697108415353,-0.032410162508583085,0.048157473105973736
1658789525027053,0.6958724345769438,-0.006897077897306758,-0.019470511940184565
1658789525043046,0.6997787441824981,-6.713969634546402E-4,-0.052063782711528006
1658789525059038,0.7040512703135731,-0.016906996261539575,-0.04522774090180803
1658789525075030,0.7293202105745022,-0.031067368581673804,-0.10736247806515609
1658789525091003,0.7953612573434041,-0.008606088349736751,-0.11676203555352105
1658789525106995,0.871656366826886,0.04693675135423803,-0.1858548867017622
1658789525122986,0.8841077286945911,0.030212863355458808,-0.23749141680018315
1658789525138978,0.8587167162584874,-0.06854352635996053,-0.25763332570382236
1658789525154970,0.8584725719081403,-0.06012054627298369,-0.21612878614480824
1658789525170961,0.8758068207827883,-0.019104295414663852,-0.1914702067597469
1658789525186953,0.9031509880216682,-0.01739528496223386,-0.25311665522240023
1658789525202945,0.9311055161364159,-0.014099336232547444,-0.356878004119936
1658789525218937,0.9536888685435265,0.004333562218661768,-0.3815365835049973
1658789525234928,0.9878690775921264,0.03985656519417091,-0.4109559777218279
1658789525250920,0.97431906614786,0.10089265278095638,-0.5314412146181429
1658789525266912,0.9280537117570766,0.1406881818875414,-0.6013885709925995
1658789525282903,0.8532234683756768,0.12066834515907487,-0.586739909971771
1658789525298895,0.8144045166704812,0.10016021972991496,-0.5960173952849623
1658789525314887,0.8474860761425189,0.08831921873807858,-0.6554665445944914
1658789525330878,0.8944838635843446,0.07501335164415934,-0.7289539940489815
1658789525346870,0.9445334554055087,0.07843137254901933,-0.7715571831845578
1658789525362862,0.9586938277256429,0.10272373540855995,-0.8064698252841991
1658789525378853,0.9684596017395286,0.10528725108720494,-0.7859616998550392
1658789525394845,0.9505149919890137,0.08722056916151644,-0.7587396047913328
1658789525410827,0.9302510109102009,0.08001831082627575,-0.7293202105745022
1658789525426819,0.9164568551155874,0.09613183794918712,-0.7146715495536737
1658789525442811,0.8843518730449382,0.06024261844815726,-0.6770733196002134
1658789525458802,0.8638437476157774,0.02801556420233453,-0.5884489204242009
1658789525474794,0.8534676127260239,0.03204394598306237,-0.5189898527504386
1658789525490786,0.8369878690775918,0.03179980163271523,-0.4876173037308309
1658789525506777,0.8003662165255205,0.03448538948653379,-0.4451361867704282
1658789525522769,0.7749752040894178,-0.0016479743648432077,-0.385320820935378
1658789525538761,0.7895017929350727,-0.03411917296101308,-0.2990157930876629
1658789525554752,0.7888914320592049,-0.048035400930800165,-0.1837796597238115
1658789525570744,0.7892576485847256,-0.037781338216220206,-0.08624399176012831
1658789525586736,0.7689936675059128,-0.03582818341344307,-0.014709697108415298
1658789525602728,0.7603265430685893,-0.07208361943999408,0.039002059967955915
1658789525618719,0.7387197680628672,-0.10870527199206537,0.05743495841916513
1658789525634711,0.7121080338750287,-0.09369039444571614,0.1284809643701843
1658789525650703,0.7121080338750287,-0.10260166323338682,0.2158846417944611
1658789525666694,0.725413900968948,-0.0783093003738462,0.2609292744335088
1658789525682686,0.7445792324711986,-0.055970092317082276,0.2814373998626687
1658789525698678,0.7239490348668651,-0.07855344472419334,0.3875181200885027
1658789525714669,0.678171969176776,-0.13788052185854882,0.4136415655756469
1658789525730682,0.6665751125352868,-0.1911039902342262,0.43903257801174966
1658789525746674,0.6745098039215689,-0.20550850690470757,0.4796826123445488
1658789525762666,0.6580300602731368,-0.1173723964293889,0.4652780956740674
1658789525778658,0.6290989547570005,-0.12066834515907532,0.5790493629358355
1658789525794651,0.6016327153429462,-0.18255893797207579,0.6728007934691389
1658789525810643,0.5811245899137862,-0.20965896086060898,0.6765850308995196
1658789525826635,0.5663538567177842,-0.1881742580300605,0.6631570916304268
1658789525842627,0.5490196078431371,-0.12689402609292744,0.6503395132372018
1658789525858619,0.5309529259174486,-0.09942778667887398,0.7140611886778059
1658789525874611,0.5147173266193636,-0.15790035858701446,0.7674067292286564
1658789525890604,0.5263141832608529,-0.19208056763561476,0.7655756466010528
1658789525906596,0.5103227283131151,-0.2074616617074847,0.7550774395361257
1658789525922588,0.4633249408712903,-0.2074616617074847,0.746166170748455
1658789525938580,0.42145418478675545,-0.2628824292362859,0.8542000457770653
1658789525954572,0.40497444113832337,-0.3302662699320975,0.9380636301213094
1658789525970564,0.4177920195315483,-0.316472114137484,0.9429465171282523
1658789525986557,0.4447699702449075,-0.2377355611505303,0.8784924086366068
1658789526002549,0.40839246204318336,-0.20428778515297186,0.7744869153887235
1658789526018541,0.3666437781338212,-0.22882429236285962,0.856275272755016
1658789526034533,0.3263599603265428,-0.31830319676508756,0.9812771801327536
1658789526050506,0.3229419394216828,-0.3345387960631725,1.0020294499122606
1658789526066498,0.312077515831235,-0.32220950637064183,0.9170672159914552
1658789526082490,0.29425497825589364,-0.33392843518730464,0.9074235141527431
1658789526098481,0.26227206836041805,-0.419745174334325,1.038895246814679
1658789526114473,0.23614862287327387,-0.4385442893110554,1.0805218585488667
1658789526130465,0.2310215915159839,-0.4140077821011672,1.1054245822842752
1658789526146456,0.24762340733958954,-0.37848477912565803,1.0832074464026853
1658789526162448,0.26361486228732733,-0.34430457007705817,1.037186236362249
1658789526178440,0.2351720454718853,-0.4492866407263296,1.1837949187457086
1658789526194431,0.21185626001373326,-0.5304646372167543,1.2731517509727626
1658789526210423,0.2293125810635539,-0.5459678034637978,1.3388265812161437
1658789526226415,0.25421530479896237,-0.5464560921644921,1.3926604104676894
1658789526242406,0.26068513008316163,-0.5856412603952088,1.4065766384374765
1658789526258398,0.21649500267032895,-0.7425040054932479,1.5050888838025482
1658789526274390,0.20257877470054186,-0.7728999771114671,1.6079957274738685
1658789526290382,0.2057526512550547,-0.7505607690547036,1.6588998245212485
1658789526306373,0.21991302357518894,-0.7482413977264057,1.7016250858319983
1658789526322365,0.2213778896772718,-0.802807660028992,1.6364385442893115
1658789526338357,0.2124666208896011,-0.7936522468909741,1.6203250171663992
1658789526354348,0.20965896086060898,-0.7509269855802243,1.6272831311512936
1658789526370330,0.1931792172121769,-0.7235828183413444,1.5992065308613714
1658789526386322,0.18084992751964624,-0.7389639124132144,1.5468375677119095
1658789526402314,0.1893949797817962,-0.7570305943389029,1.5325551232166017
1658789526418305,0.1818265049210348,-0.7268787670710308,1.4705424582284277
1658789526434297,0.15728999771114704,-0.7404287785152972,1.4268406195162893
1658789526450289,0.1515526054779892,-0.7240711070420387,1.3708094911116193
1658789526466281,0.170962081330587,-0.7165026321812773,1.3467612726024258
1658789526482272,0.19842832074464045,-0.6659647516594185,1.35579461356527
1658789526498264,0.18719768062867193,-0.5855191882200352,1.296101319905394
1658789526514256,0.18255893797207623,-0.5613488975356677,1.2267643244068056
1658789526530247,0.19549858854047475,-0.5286335545891507,1.123125047684443
1658789526546239,0.2263828488593882,-0.5509727626459142,1.1367971313038838
1658789526562231,0.2485999847409781,-0.4950637064164187,1.0944380865186538
1658789526578222,0.27447928587777515,-0.41449607080186146,1.0114290074006256
1658789526594214,0.2528725108720531,-0.4068055237659265,0.9291523613336388
1658789526610206,0.2435950255588617,-0.36627756160830094,0.787426565957122
1658789526626197,0.2612954909590295,-0.3302662699320975,0.6122529945830468
1658789526642189,0.2918135347524222,-0.3369802395666439,0.6033417257953761
1658789526658181,0.3225757228961621,-0.32806897077897323,0.6780498970016025
1658789526674173,0.34088654917219774,-0.2633707179369802,0.5774624246585791
1658789526690155,0.38959334706645343,-0.1560692759594109,0.3267261768520635
1658789526706146,0.4446478980697339,-0.1409323262378881,0.22186617837796607
1658789526722138,0.4776073853665981,-0.16205081254291587,0.20599679560540185
1658789526738130,0.504097047379263,-0.20477607385366614,0.34467078660257844
1658789526754121,0.5331502250705729,-0.16815442130159441,0.36102845807583694
1658789526770113,0.5934538796063169,-0.030945296406500233,0.1465476462958728
1658789526786105,0.6139620050354768,-0.007385366598001042,-0.006530861371786045
1658789526802096,0.6355687800411998,-0.06536964980544768,0.024719615472648115
1658789526818088,0.6384985122453655,-0.06329442282749698,0.1771877622644391
1658789526834080,0.6415503166247047,0.0023804074158846333,0.23553826199740602
1658789526850072,0.710032806897078,0.06903181506065437,0.009948882276646032
1658789526866063,0.7622796978713664,0.046814679179064456,-0.1001602197299154
1658789526882055,0.7664301518272678,-0.0039673456931410556,-0.059754329747462975
1658789526898047,0.7361562523842222,-0.03155565728236809,-0.03717097734035235
1658789526914038,0.7362783245593958,0.001159685664148924,-0.059632257572289404
1658789526930030,0.7619134813458457,-0.007751583123521755,-0.09662012664988184
1658789526946022,0.8187991149767297,0.01495384145876244,-0.14752422369726093
1658789526962013,0.8754406042572676,0.05682459754329727,-0.26141756313420306
1658789526978005,0.8849622339208061,0.03704890516517878,-0.3082932784008543
1658789526993997,0.8740978103303574,-0.032288090333409514,-0.2864423590447851
1658789527009979,0.9066910811017017,0.05499351491569371,-0.28155947203784226
1658789527025971,0.9418478675516901,0.11126878767070991,-0.3718928816662852
1658789527041962,0.9607690547035936,0.14373998626688067,-0.4917677576867323
1658789527057954,0.9110856794079503,0.09723048752574925,-0.48688487067978947
1658789527073946,0.8775158312352183,0.09356832227054213,-0.5054398413061723
1658789527089937,0.8988784618905932,0.10028229190508853,-0.4993362325474937
1658789527105929,0.9021744106202796,0.08392462043183002,-0.5532921339742121
1658789527121921,0.8999771114671553,0.09515526054779855,-0.6657206073090713
1658789527137912,0.883009079118029,0.09503318837262498,-0.6922102693217367
1658789527153904,0.8745860990310517,0.0672007324330508,-0.7009994659342338
1658789527169896,0.8991226062409403,0.06366063935301725,-0.7374990463111315
1658789527185887,0.918287937743191,0.03326466773479808,-0.7311512932021058
1658789527201879,0.9196307316701002,0.03289845120927737,-0.7722896162355992
1658789527217871,0.9428244449530787,0.040344853894865196,-0.7650873579003585
1658789527233863,0.9389181353475244,0.05743495841916513,-0.7315175097276265
1658789527249854,0.9401388570992602,0.033875028610665936,-0.7025864042114902
1658789527265846,0.9326924544136723,0.05535973144121442,-0.689280537117571
1658789527281838,0.9035172045471889,0.057068741893644415,-0.6591287098496985
1658789527297829,0.8740978103303574,0.06683451590753009,-0.6237277790493629
1658789527313821,0.8600595101853967,0.09417868314640998,-0.578194857709621
1658789527329803,0.8463874265659568,0.0776989394979779,-0.5094682230869001
1658789527345795,0.8307621881437397,0.030823224231326662,-0.4652780956740674
1658789527361786,0.817578393224994,0.003112840466926059,-0.41205462729839004
1658789527377778,0.7888914320592049,-0.015075913633936011,-0.3781185626001373
1658789527393770,0.756420233463035,-0.01239032578011745,-0.3429617761501489
1658789527409762,0.7403067063401236,0.02532997634851597,-0.2957198443579765
1658789527425753,0.7460440985732815,0.04083314259555948,-0.22748149843595034
1658789527441745,0.7377431906614786,0.017029068436713146,-0.19073777370870548
1658789527457737,0.7042954146639202,-0.020447089341573133,-0.1299458304722667
1658789527473728,0.6902571145189595,-0.0020141908903639205,-0.08685435263599617
1658789527489720,0.6586404211490047,-0.01641870756084529,-0.02288853284504455
1658789527505712,0.640329594872969,-0.03436331731136022,0.04608224612802303
1658789527521703,0.6415503166247047,-0.054627298390172996,0.11114671549553634
1658789527537695,0.6301976043335626,-0.08429083695735118,0.19855039291981402
1658789527553687,0.6304417486839098,-0.02288853284504455,0.26141756313420306
1658789527569678,0.6112764171816583,-0.0462043183031966,0.38068207827878275
1658789527585670,0.5645227740901806,-0.12982375829709314,0.4581979095140003
1658789527601662,0.5418173495078964,-0.1404440375371938,0.4769970244907302
1658789527617653,0.5331502250705729,-0.08648813611047546,0.5144731822690165
1658789527633645,0.5141069657434958,-0.03582818341344307,0.5741664759288927
1658789527649627,0.47724116884107737,-0.07794308384832549,0.730540932326238
1658789527665619,0.44574654764629607,-0.09283588921950114,0.7810788128480963
1658789527681611,0.4337834744792861,-0.08734264133669045,0.766674296177615
1658789527697602,0.424139772640574,-0.05914396887159512,0.8340581368734261
1658789527713594,0.3864194705119406,-0.10003814755474183,0.9607690547035936
1658789527729586,0.3822690165560392,-0.1400778210116731,1.0402380407415883
1658789527745577,0.383733882658122,-0.14190890363927666,0.9876249332417792
1658789527761569,0.3867856870374613,-0.1380025940337224,0.9561303120469979
1658789527777561,0.35724422064545625,-0.17084000915541298,1.008743419546807
1658789527793553,0.310368505378805,-0.1829251544975965,1.0944380865186538
1658789527809544,0.29254596780346365,-0.19842832074464045,1.1255664911879153
1658789527825536,0.27704280155642014,-0.23956664377813386,1.0735637445639732
1658789527841528,0.26446936751354233,-0.18146028839551365,0.9695582513160907
1658789527857519,0.26446936751354233,-0.16009765774013873,0.9391622796978716
1658789527873511,0.20904859998474112,-0.24542610818646526,0.9831082627603571
1658789527889503,0.16693369954985915,-0.3197680628671704,1.0236362249179827
1658789527905494,0.14789044022278208,-0.3436942092011903,1.0358434424353398
1658789527921486,0.15228503852903064,-0.3159838254367897,1.0041046768902113
1658789527937478,0.14789044022278208,-0.3135423819333183,1.0132600900282291
1658789527953469,0.12298771648737272,-0.38690775921263443,1.0899214160372317
1658789527969482,0.09332417792019498,-0.43305104142824424,1.2014953841458764
1658789527985474,0.12469672693980272,-0.4160830090791179,1.3178301670862895
1658789528001465,0.10809491111619707,-0.41547264820325003,1.351277943083848
1658789528017457,0.12176699473563701,-0.42121004043640786,1.3974212252994587
1658789528033449,0.10443274586098994,-0.5440146486610207,1.5309681849393453
1658789528049440,0.12664988174258074,-0.6122529945830473,1.6021362630655371
1658789528065432,0.17694361791409197,-0.6209201190203708,1.682948043030442
1658789528081424,0.2146639200427254,-0.6967269398031588,1.7339742122529946
1658789528097416,0.20355535210193043,-0.8135500114442666,1.7832913710231173
1658789528113407,0.17962920576791053,-0.9042496375982298,1.82577248798352
1658789528129399,0.1687647821774627,-0.8759288929579614,1.7762111848630502
1658789528145391,0.17035172045471914,-0.7998779278248263,1.7332417792019532
1658789528161382,0.17877470054169553,-0.7669184405279621,1.6608529793240256
1658789528177374,0.16070801861600703,-0.7396963454642558,1.6490119783321893
1658789528193366,0.13409628442816857,-0.6518043793392843,1.5647821774624244
1658789528209357,0.09271381704432713,-0.6463111314564736,1.4980086976424811
1658789528225349,0.07367055771725006,-0.7169909208819716,1.449668116273747
1658789528241341,0.07794308384832505,-0.7743648432135499,1.5036240177004654
1658789528257332,0.11053635461966849,-0.7515373464560922,1.5386587319752802
1658789528273324,0.14007782101167354,-0.6693827725642785,1.459922178988327
1658789528289306,0.13788052185854927,-0.6323949034866865,1.3130693522545203
1658789528305298,0.13714808880750784,-0.6088349736781873,1.2376287479972534
1658789528321290,0.12335393301289344,-0.5839322499427788,1.218097199969482
1658789528337281,0.12335393301289344,-0.49237811856260016,1.1909971770809493
1658789528353273,0.14923323414969136,-0.4306095979247728,1.1651178759441523
1658789528369265,0.18341344319829123,-0.4230411230640114,1.022659647516594
1658789528385256,0.20611886778057542,-0.41962310215915144,0.966628519111925
1658789528401248,0.19342336156252404,-0.357732509346151,0.9363546196688795
1658789528417240,0.14972152285038565,-0.38605325398641943,0.9372091248950944
1658789528433231,0.16021972991531275,-0.33014419775692394,0.826123445487144
1658789528449223,0.20502021820401328,-0.3003585870145722,0.7096665903715573
1658789528465215,0.24042114900434886,-0.2800946059357594,0.648874647135119
1658789528481207,0.2821698329137101,-0.22235446707866036,0.5656214236667427
1658789528497198,0.2986495765621422,-0.17694361791409152,0.4055848020141912
1658789528513190,0.36017395284962195,-0.15277332722972448,0.3406424048218506
1658789528529182,0.39874876020447125,-0.21234454871442754,0.3451590753032727
1658789528545173,0.45209430075532175,-0.20941481651026184,0.30084687571526647
1658789528561165,0.5269245441367207,-0.18023956664377794,0.1961089494163426
1658789528577157,0.5983367666132597,-0.1077286945906768,0.04132143129625376
1658789528593148,0.6236057068741889,-0.07098496986343195,0.01605249103532458
1658789528609100,0.6062714579995419,-0.11871519035629818,0.0432745860990309
1658789528625092,0.609933623254749,-0.09893949797817969,0.031311512932020946
1658789528641083,0.6228732738231475,-0.07635614557106907,0.058289463645380124
1658789528657075,0.6822003509575039,0.004821850919356052,-0.050598916609445155
1658789528673067,0.7350576028076601,0.10028229190508853,-0.20392156862745114
1658789528689058,0.7667963683527885,0.05474937056534657,-0.274235141527428
1658789528705050,0.7743648432135499,0.030212863355458808,-0.1741359578850994
1658789528721042,0.7802243076218813,0.06414892805371153,-0.11517509727626463
1658789528737033,0.7918211642633706,0.05999847409781012,-0.09942778667887398
1658789528753025,0.8014648661020827,0.03729304951552592,-0.16925307087815655
1658789528769017,0.8446784161135268,0.03070115205615309,-0.2562905317769131
1658789528785009,0.8806897077897311,-0.011902037079423167,-0.18561074235141506
1658789528801000,0.9107194628824296,0.0567025253681237,-0.17962920576791008
1658789528816992,0.9086442359044788,0.11493095292591704,-0.2545815213244831
1658789528832984,0.9094987411306938,0.11444266422522276,-0.32379644464789825
1658789528848975,0.9152361333638517,0.060852979324025114,-0.3757991912718395
1658789528864967,0.9226825360494395,0.09027237354085571,-0.35272755016403456
1658789528880959,0.9379415579461359,0.11432059205004919,-0.3428397039749753
1658789528896950,0.955275806820783,0.13910124361028497,-0.4164492256046386
1658789528912942,0.9624780651560236,0.130556191348135,-0.4845654993514916
1658789528928955,0.9521019302662701,0.1251850156404979,-0.52826733806363
1658789528944946,0.9406271457999544,0.10455481803616351,-0.501533531700618
1658789528960938,0.9269550621805145,0.11358815899900776,-0.5493858243686578
1658789528976930,0.9013199053940646,0.07745479514763076,-0.6087129015030137
1658789528992921,0.8839856565194175,0.05499351491569371,-0.6647440299076828
1658789529008913,0.8893568322270546,0.03936827649347663,-0.6558327611200121
1658789529024905,0.9079118028534374,0.05133134966048658,-0.6237277790493629
1658789529040897,0.9357442587930116,0.08599984740978073,-0.6261692225528344
1658789529056888,0.9412375066758223,0.08160524910353217,-0.6426489662012664
1658789529072880,0.9355001144426645,0.0739147020675972,-0.6641336690318149
1658789529088872,0.9335469596398873,0.09832913710231139,-0.6568093385214007
1658789529104863,0.9243915465018695,0.10321202410925423,-0.6051728084229802
1658789529120855,0.9269550621805145,0.11432059205004919,-0.5552452887769892
1658789529136847,0.9055924315251396,0.11578545815213204,-0.5302204928664072
1658789529152838,0.8900892652780961,0.11944762340733917,-0.5060502021820401
1658789529168830,0.8687266346227203,0.12616159304188646,-0.4984817273212787
1658789529184822,0.8324711985961697,0.06817730983443937,-0.4269474326695657
1658789529200813,0.8264896620126647,0.05658045319295013,-0.3648126955062181
1658789529216805,0.8148928053711755,0.04132143129625376,-0.3028000305180436
1658789529232797,0.8123292896925305,0.055848020141908705,-0.28790722514686795
1658789529248779,0.8140383001449605,0.08953994048981428,-0.29498741130693507
1658789529264771,0.7892576485847256,0.08050659952697004,-0.24164187075608456
1658789529280762,0.7714351110093842,0.050598916609445155,-0.1593652246890973
1658789529296754,0.768383306630045,0.015930418860151008,-0.04339665827420447
1658789529312746,0.7490959029526207,0.028259708552681673,-0.0060425726710917615
1658789529328737,0.7367666132600901,0.029968719005111666,0.0060425726710917615
1658789529344729,0.697825589379721,-0.042908369573510186,0.0634164950026701
1658789529360721,0.682444495307851,-0.07415884641794479,0.16620126649881772
1658789529376712,0.6822003509575039,-0.05780117494468584,0.2583657587548638
1658789529392704,0.694407568474861,-0.08416876478217761,0.3600518806744484
1658789529408696,0.6876935988403146,-0.1480125123979552,0.35175097276264555
1658789529424687,0.6802471961547267,-0.1569237811856259,0.34039826047150346
1658789529440679,0.6588845654993518,-0.11578545815213248,0.4674753948271917
1658789529456671,0.6444800488288704,-0.1497215228503852,0.580636301213092
1658789529472663,0.6389868009460598,-0.1569237811856259,0.5800259403372241
1658789529488654,0.6398413061722747,-0.15326161593041876,0.5581750209811549
1658789529504646,0.5938200961318376,-0.1923247119859619,0.6718242160677503
1658789529520638,0.5663538567177842,-0.1928130006866562,0.8297856107423511
1658789529536629,0.5623254749370563,-0.1893949797817962,0.8833752956435497
1658789529552621,0.5681849393453877,-0.18744182497901862,0.8229495689326312
1658789529568603,0.5568322270542456,-0.13910124361028453,0.711741817349508
1658789529584595,0.5327840085450521,-0.09686427100022899,0.7364003967345694
1658789529600587,0.48017090104524307,-0.18634317540245648,0.8786144808117804
1658789529616578,0.4461127641718168,-0.2737468528267337,0.9402609292744337
1658789529632570,0.4867627985046159,-0.2225986114290075,0.8947280079346918
1658789529648562,0.5189898527504386,-0.16351567864499872,0.8065918974593727
1658789529664553,0.49286640726329445,-0.202822919050889,0.8197756923781183
1658789529680545,0.4489204242008089,-0.2764324406805523,0.8668955519951167
1658789529696537,0.41596093690394476,-0.30597390707255645,0.938185702296483
1658789529712528,0.427557793545434,-0.28632028686961153,0.9579613946746015
1658789529728520,0.4103456168459605,-0.24811169604028382,0.8280766002899211
1658789529744512,0.3917906462195777,-0.2246738384069582,0.9099870298313881
1658789529760503,0.3342946517128249,-0.3353933012893875,1.0392614633401998
1658789529776495,0.31134508278019357,-0.39520866712443725,1.0908979934386203
1658789529792487,0.3258716716258485,-0.3522392614633403,1.0816205081254289
1658789529808478,0.32062256809338496,-0.3333180743114368,1.0271763179980162
1658789529824470,0.3037766079194322,-0.32880140383001466,1.0071564812695506
1658789529840462,0.2571450370031281,-0.3915465018692301,1.0811322194247346
1658789529856454,0.22858014801251247,-0.4164492256046386,1.1670710307469294
1658789529872445,0.2435950255588617,-0.3854428931105516,1.1510795757991916
1658789529888427,0.27106126497291516,-0.39984740978103295,1.1155565728236816
1658789529904419,0.26898603799496446,-0.4573434042877853,1.0863813229571981
1658789529920411,0.23907835507743957,-0.5073929961089494,1.178301670862898
1658789529936402,0.22784771496147105,-0.48065918974593735,1.2495918211642634
1658789529952394,0.24213015945677885,-0.4917677576867323,1.2853589684901197
1658789529968386,0.24249637598229956,-0.596383611810483,1.2356755931944763
1658789529984377,0.2318760967421989,-0.648752574959945,1.258258945601587
1658789530000369,0.22308690012970178,-0.6157930876630808,1.2743724727244983
1658789530016361,0.20733958953231113,-0.5761196307316703,1.311726558327611
1658789530032353,0.18951705195696977,-0.5949187457084002,1.3278400854505223
1658789530048344,0.20025940337224402,-0.6491187914854657,1.3406576638437473
1658789530064336,0.2511635004196231,-0.6565651941710535,1.3312581063553823
1658789530080328,0.27325856412603944,-0.6626688029297321,1.296955825131609
1658789530096319,0.2562905317769131,-0.6968490119783324,1.3122148470283053
1658789530112311,0.22308690012970178,-0.7250476844434273,1.3105058365758753
1658789530128303,0.21832608529793252,-0.7038071259632259,1.3191729610131988
1658789530144294,0.23443961242084388,-0.6956282902265967,1.3457846952010373
1658789530160286,0.24591439688715955,-0.6598611429007399,1.3144121461814295
1658789530176278,0.23736934462500958,-0.6526588845654993,1.2741283283741511
1658789530192269,0.2229648279545282,-0.638498512245365,1.2188296330205235
1658789530208252,0.2229648279545282,-0.622018768596933,1.2055237659266043
1658789530224243,0.2313878080415046,-0.5951628900587473,1.221515220874342
1658789530240235,0.25140764476997024,-0.5911345082780195,1.1988097962920579
1658789530256227,0.2781414511329823,-0.5835660334172581,1.1243457694361787
1658789530272218,0.3079270618753336,-0.557564660105287,1.0960250247959102
1658789530288210,0.313786526283665,-0.5375448233768214,1.1018844892042416
1658789530304202,0.29718471046005934,-0.5469443808651864,1.112870984969863
1658789530320193,0.31561760891126855,-0.5169146257724879,1.067093919279774
1658789530336185,0.3411306935225449,-0.5156939040207522,1.0927290760662238
1658789530352177,0.3527275501640341,-0.45722133211261173,1.0581826504921032
1658789530368168,0.3640802624551762,-0.37555504692149233,0.9773708705271993
1658789530384160,0.36346990157930836,-0.38263523308155944,0.8920424200808732
1658789530400152,0.3850766765850313,-0.4151064316777293,0.976882581826505
1658789530416144,0.3967956054016941,-0.38312352178225373,0.9514915693904022
1658789530432135,0.4184023804074162,-0.3295338368810561,0.8524910353246353
1658789530448127,0.42304112306401187,-0.347478446631571,0.7587396047913328
1658789530464119,0.4330510414282447,-0.39179064621957727,0.7005111772335395
1658789530480110,0.4359807736324104,-0.3772640573739223,0.779736018921187
1658789530496102,0.47064927138170454,-0.27496757457846943,0.7705806057831692
1658789530512094,0.49152361333638517,-0.2453040360112917,0.7009994659342338
1658789530528076,0.5226520180056458,-0.1923247119859619,0.4784618905928131
1658789530544067,0.5452353704127564,-0.19598687724116903,0.41058976119630763
1658789530560059,0.5589074540321963,-0.23590447852292673,0.47016098268101025
1658789530576051,0.5821011673151748,-0.2310215915159839,0.6239719233997096
1658789530592043,0.5910124361028455,-0.16510261692225514,0.5440146486610207
1658789530608034,0.6251926451514462,-0.12359807736324102,0.32538338292515423
1658789530624026,0.6518043793392847,-0.12018005645838103,0.21734950789654395
1658789530640018,0.6435034714274819,-0.15484855420767518,0.21100175478751826
1658789530656009,0.6598611429007404,-0.12945754177157243,0.3360036621652549
1658789530672001,0.6551003280689711,-0.07598992904554835,0.35809872587167124
1658789530687993,0.6842755779354546,-0.00970473792629889,0.201113908598459
1658789530703984,0.723704890516518,0.049378194857709445,-0.04962233920805659
1658789530719976,0.7656977187762264,-0.0025024795910582043,-0.03289845120927737
1658789530735968,0.7721675440604256,-0.028259708552681673,0.10064850843060924
1658789530751959,0.7737544823376821,0.03680476081483164,0.12494087129014986
1658789530767951,0.7970702677958341,0.054505226214999425,0.0470588235294116
1658789530783943,0.8360112916762032,0.06732280460822437,-0.127870603494316
1658789530799934,0.8455329213397418,0.012634470130464592,-0.10675211718928823
1658789530815926,0.8405279621576254,-0.005920500495918191,-0.1098039215686275
1658789530831918,0.8468757152666511,0.045471885252155175,-0.0888075074387733
1658789530847900,0.8719005111772331,0.05609216449225585,-0.08258182650492119
1658789530863892,0.9000991836423289,0.07061875333791079,-0.21844815747310609
1658789530879883,0.9506370641641873,0.13507286182955713,-0.35358205539024956
1658789530895875,0.9474631876096744,0.05780117494468584,-0.3441824979018846
1658789530911867,0.9284199282825973,0.05096513313496587,-0.29254596780346365
1658789530927858,0.9109636072327767,0.07257190814068792,-0.29034866865033937
1658789530943850,0.8963149462119482,0.06402685587853796,-0.2869306477454794
1658789530959842,0.9212176699473567,0.0672007324330508,-0.37555504692149233
1658789530975834,0.948439765011063,0.06378271152819082,-0.39105821316853584
1658789530991825,0.9762722209506371,0.05914396887159512,-0.3845883878843366
1658789531007817,0.9873807888914321,0.09076066224155,-0.41657129777981217
1658789531023809,0.9796902418554971,0.12774853131914288,-0.46210421911955457
1658789531039800,0.9606469825284201,0.1289692530708786,-0.49286640726329445
1658789531055792,0.931349660486763,0.09320210574502141,-0.5031204699778744
1658789531071784,0.9091325246051731,0.07403677424277078,-0.5025101091020066
1658789531087775,0.8983901731898989,0.04693675135423803,-0.5034866865033951
1658789531103767,0.9027847714961474,0.04437323567559304,-0.5093461509117265
1658789531119759,0.909742885481041,0.03289845120927737,-0.5080033569848172
1658789531135750,0.919142442969406,0.024963759822995257,-0.5174029144731822
1658789531151742,0.9370870527199209,0.031189440756847375,-0.5319295033188371
1658789531167755,0.9481956206607158,0.017883573662928143,-0.5171587701228351
1658789531183746,0.9529564354924851,0.033875028610665936,-0.523994811932555
1658789531199738,0.955275806820783,0.036438544289310926,-0.5089799343862058
1658789531215730,0.9499046311131458,0.04473945220111375,-0.5027542534523537
1658789531231722,0.9469748989089801,0.03668268863965807,-0.47138170443274596
1658789531247713,0.9363546196688795,0.0462043183031966,-0.468818188754101
1658789531263705,0.9179217212176702,0.035095750362401645,-0.4375677119096668
1658789531279697,0.899488822766461,0.010070954451819603,-0.42047760738536644
1658789531295688,0.8911879148546582,-0.023376821545738835,-0.3987487602044708
1658789531311680,0.896070801861601,-0.006775005722133187,-0.3739681086442359
1658789531327672,0.8854505226215004,0.005310139620050336,-0.3362478065156025
1658789531343663,0.8544441901274125,0.005188067444876765,-0.312077515831235
1658789531359655,0.826123445487144,0.003356984817273201,-0.29034866865033937
1658789531375647,0.8102540627145798,-0.008239871824216038,-0.25055313954375524
1658789531391638,0.8111085679407948,-0.03216601815823594,-0.20697337300679042
1658789531407630,0.8111085679407948,-0.01751735713740743,-0.17218280308232226
1658789531423622,0.7881589990081634,-0.015442130159456724,-0.1359273670557717
1658789531439613,0.7566643778133821,-0.01886015106431671,-0.09613183794918756
1658789531455605,0.7545891508354314,-0.0432745860990309,-0.025574120698863112
1658789531471597,0.7473868925001907,-0.06451514457923269,0.06463721675440581
1658789531487579,0.74702067597467,-0.03399710078583951,0.07208361943999364
1658789531503571,0.7223620965896087,-0.029846646829938095,0.11615167467765275
1658789531519562,0.680735484855421,-0.08978408484016187,0.17694361791409197
1658789531535554,0.6515602349889376,-0.1497215228503852,0.27399099717708086
1658789531551546,0.6504615854123754,-0.12310978866254674,0.35260547798886055
1658789531567537,0.6623025864042118,-0.09857328145265898,0.4065613794155798
1658789531583529,0.6325169756618605,-0.09784084840161755,0.45807583733882673
1658789531599521,0.6078583962767983,-0.10077058060578326,0.4910353246356909
1658789531615512,0.5844205386434727,-0.12774853131914243,0.5211871519035629
1658789531631504,0.5751430533302813,-0.14288548104066523,0.5590295262073699
1658789531647496,0.5829556725413898,-0.1412985427634088,0.6551003280689711
1658789531663488,0.5685511558709084,-0.11688410772869462,0.6984359502555888
1658789531679479,0.5560997940032042,-0.10589761196307323,0.6610818646524761
1658789531695471,0.5250934615091172,-0.1123674372472725,0.5855191882200348
1658789531711463,0.49445334554055087,-0.14532692454413665,0.6980697337300681
1658789531727454,0.43707942320897253,-0.22211032272831321,0.8457770656900889
1658789531743446,0.41901274128328403,-0.2735027084763866,0.949294270237278
1658789531759438,0.44415960936903964,-0.24335088120851456,0.9004654001678496
1658789531775429,0.4358587014572368,-0.21551842526894038,0.8350347142748147
1658789531791421,0.3884946974898913,-0.24383916990920884,0.8719005111772331
1658789531807373,0.33954375524528846,-0.2704509040970473,0.9807888914320593
1658789531823364,0.3314869916838328,-0.275944151979858,1.0778362706950482
1658789531839356,0.32782482642862565,-0.32050049591821184,1.093217364766918
1658789531855348,0.31354238193331785,-0.2944991226062408,1.0157015335317006
1658789531871339,0.28912794689860366,-0.2537270160982681,0.9917753871976807
1658789531887331,0.24457160296025027,-0.3151293202105747,1.096635385671778
1658789531903323,0.21576256961928753,-0.3074387731746393,1.125078202487221
1658789531919314,0.2305333028152896,-0.32587167162584896,1.123125047684443
1658789531935306,0.22772564278629748,-0.3218432898451211,1.0988326848249024
1658789531951298,0.24701304646372169,-0.2680094605935759,1.074784466315709
1658789531967290,0.1981841763942933,-0.35028610666056315,1.106034943160143
1658789531983281,0.16473640039673487,-0.39862668802929724,1.1546196688792252
1658789531999273,0.17865262836652196,-0.4198672465094986,1.2440985732814527
1658789532015265,0.1981841763942933,-0.4209658960860607,1.285236896314946
1658789532031256,0.21368734264133682,-0.3920347905699244,1.220660715648127
1658789532047248,0.18829633020523406,-0.386175326161593,1.1172655832761116
1658789532063240,0.1625391012436106,-0.4442816815442132,1.217242694743267
1658789532079231,0.13543907835507785,-0.503242542153048,1.3184405279621574
1658789532095223,0.1453269245441371,-0.4774853131914245,1.3327229724574652
1658789532111215,0.1637598229953463,-0.5484092469672692,1.3389486533913173
1658789532127197,0.16107423514152774,-0.6273899443045701,1.2992751964599067
1658789532143189,0.1633936064698256,-0.6804913405050734,1.4184176394293129
1658789532159180,0.17840848401617482,-0.6636453803311206,1.5462272068360416
1658789532175172,0.1931792172121769,-0.6503395132372014,1.6055542839703971
1658789532191164,0.17242694743266984,-0.6413061722743572,1.484702830548562
1658789532207155,0.17120622568093413,-0.6560769054703592,1.4887312123292897
1658789532223147,0.16473640039673487,-0.6625467307545585,1.508873121232929
1658789532239139,0.1742580300602734,-0.6323949034866865,1.4944686045624476
1658789532255130,0.16278324559395774,-0.6541237506675821,1.4461280231937135
1658789532271122,0.16119630731670131,-0.678904402227817,1.4324559395742735
1658789532287114,0.1558251316090642,-0.6658426794842449,1.4012054627298394
1658789532303105,0.14471656366826924,-0.640207522697795,1.3406576638437473
1658789532319097,0.14251926451514496,-0.6255588616769665,1.3109941252765696
1658789532335089,0.16034180209048632,-0.6248264286259251,1.240314335851072
1658789532351081,0.21527428091859324,-0.5884489204242009,1.2245670252536813
1658789532367072,0.2318760967421989,-0.5515831235217821,1.1897764553292136
1658789532383064,0.22784771496147105,-0.5045853360799573,1.1220263981078809
1658789532399056,0.22284275577935464,-0.4796826123445488,1.0772259098191803
1658789532415047,0.24176394293125814,-0.4682078278782331,1.103471427481498
1658789532431039,0.27740901808194085,-0.42218661783779643,1.0783245593957425
1658789532447052,0.32147707331959996,-0.3331960021362632,1.0159456778820477
1658789532463043,0.3297779812314028,-0.308659494926375,0.9372091248950944
1658789532479035,0.33795681696803204,-0.2781414511329823,0.839795529106584
1658789532495027,0.36261539635309337,-0.30096894789044004,0.915724422064546
1658789532511018,0.3486991683833063,-0.27203784237430373,0.8744640268558781
1658789532527010,0.3759212634470135,-0.2091706721599147,0.8051270313572898
1658789532543002,0.3757991912718399,-0.22247653925383393,0.7196765087357901
1658789532558993,0.4041199359121084,-0.21783779659723823,0.6699931334401468
1658789532574985,0.4511177233539332,-0.23920042725261315,0.697825589379721
1658789532590977,0.4926222629129473,-0.2276035706111239,0.6959945067521174
1658789532606969,0.5102006561379415,-0.1371480888075074,0.5443808651865414
1658789532622960,0.5479209582665749,-0.11956969558251318,0.48688487067978947
1658789532638952,0.5630579079880977,-0.19513237201495404,0.51972228580148
1658789532654944,0.6051728084229797,-0.20209048599984758,0.5031204699778744
1658789532670935,0.6503395132372018,-0.16766613260090013,0.5053177691309987
1658789532686927,0.6558327611200125,-0.16034180209048587,0.468818188754101
1658789532702919,0.6509498741130697,-0.14874494544899663,0.3402761882963299
1658789532718910,0.6579079880979632,-0.19000534065766406,0.3297779812314028
1658789532734902,0.6831769283588924,-0.1890287632562755,0.4055848020141912
1658789532750894,0.7018539711604488,-0.1135881589990082,0.3872739757381556
1658789532766876,0.7287098496986344,-0.07684443427176335,0.37274738689249975
1658789532782868,0.7361562523842222,-0.0613412680247194,0.19452201113908618
1658789532798859,0.7587396047913328,-0.04608224612802303,0.13592736705577213
1658789532814851,0.7639887083237964,-0.014465552758068156,0.15680170901045276
1658789532830843,0.7724116884107728,0.0014038300144960658,0.25885404745555807
1658789532846834,0.7749752040894178,-0.04205386434729519,0.31024643320363143
1658789532862826,0.8179446097505148,-0.07269398031586194,0.205386434729534
1658789532878818,0.8576180666819253,-0.08551155870908689,0.14178683146410354
1658789532894809,0.8651865415426867,-0.042664225223163044,0.10150301365682424
1658789532910801,0.8555428397039746,-0.03033493553063238,0.10113679713130352
1658789532926793,0.8518806744487675,-0.033630884260318794,0.09430075532158355
1658789532942784,0.8418707560845347,-0.05658045319295013,0.088197146562905
1658789532958776,0.8533455405508503,-0.046570534828717314,0.06451514457923224
1658789532974768,0.8668955519951167,-0.029968719005111666,-0.023132677195391693
1658789532990759,0.869947356374456,-0.06292820630197626,-0.10162508583199825
1658789533006751,0.8701915007248031,-0.08441290913252475,-0.13519493400473026
1658789533022743,0.863965819790951,-0.08490119783321903,-0.11663996337834748
1658789533038735,0.898634317540246,-0.04180971999694805,-0.09039444571602973
1658789533054726,0.9219501029983981,-0.015930418860151008,-0.1732814526588844
1658789533070718,0.931349660486763,-0.045349813076981604,-0.27582207980468443
1658789533086700,0.9138933394369424,-0.09088273441672401,-0.2632486457618066
1658789533102692,0.9159685664148931,-0.1039444571602961,-0.22687113756008248
1658789533118683,0.9636987869077593,-0.03314259555962451,-0.2520180056458381
1658789533134675,0.9842069123369193,0.0022583352407110624,-0.308659494926375
1658789533150667,0.9738307774471657,0.0014038300144960658,-0.3714045929655909
1658789533166659,0.9517357137407494,-0.011413748378728883,-0.3875181200885023
1658789533182650,0.9480735484855423,-0.021179522392614558,-0.35187304493781957
1658789533198642,0.9737087052719922,-0.010070954451819603,-0.33514915693904035
1658789533214634,0.9844510566872664,-0.0038452735179674846,-0.3944762340733958
1658789533230625,0.9901884489204242,-0.0016479743648432077,-0.45831998168917387
1658789533246617,0.9895780880445564,-0.005188067444876765,-0.4926222629129473
1658789533262609,0.9980010681315328,0.004821850919356052,-0.46930647745479526
1658789533278600,0.97773708705272,0.009948882276646032,-0.5153276874952315
1658789533294592,0.9384298466468302,-0.023743038071259548,-0.5246051728084229
1658789533310584,0.9092545967803467,-0.028870069428549527,-0.5138628213931486
1658789533326575,0.897779812314031,-0.04376287479972518,-0.4871290150301366
1658789533342567,0.9208514534218359,-0.02288853284504455,-0.5128862439917601
1658789533358559,0.9363546196688795,-0.003479056992446772,-0.5029983978027008
1658789533374550,0.9355001144426645,-0.014709697108415298,-0.5132524605172808
1658789533390542,0.9394064240482187,-0.004943923094529623,-0.5012893873502708
1658789533406524,0.9389181353475244,0.0037232013427939137,-0.4719920653086138
1658789533422516,0.9405050736247809,0.011902037079423167,-0.4519722285801482
1658789533438508,0.9276874952315559,0.0014038300144960658,-0.42633707179369784
1658789533454499,0.9060807202258339,-0.015686274509803866,-0.3751888303959716
1658789533470491,0.8936293583581296,-0.001037613488975353,-0.3395437552452889
1658789533486483,0.8772716868848711,-0.0252079041733424,-0.2969405661097122
1658789533502474,0.8809338521400782,-0.007629510948348184,-0.28070496681162727
1658789533518466,0.8769054703593504,0.03582818341344307,-0.28839551384756223
1658789533534458,0.8496833752956432,0.02935835812924381,-0.21356527046616325
1658789533550449,0.8404058899824518,-0.00579842832074462,-0.09283588921950114
1658789533566441,0.8548104066529332,-0.0289921416037231,-0.0020141908903639205
1658789533582433,0.8661631189440753,-0.015197985809109582,-0.011535820553902454
1658789533598425,0.8539559014267182,0.024963759822995257,-0.03533989471274879
1658789533614416,0.8118410009918362,-0.004333562218661768,0.040100709544518054
1658789533630408,0.7984130617227434,-0.036316472114137355,0.13263141832608571
1658789533646400,0.7989013504234377,-0.054627298390172996,0.1570458533607999
1658789533662391,0.7943846799420156,-0.0963759822995347,0.1814602883955141
1658789533678383,0.7954833295185777,-0.06768902113374553,0.24469367513542384
1658789533694375,0.780590524147402,-0.08526741435873975,0.3489433127336534
1658789533710366,0.7438467994201572,-0.13409628442816812,0.3688410772869455
1658789533726349,0.7426260776684215,-0.1359273670557717,0.36932936598763977
1658789533742340,0.7621576256961928,-0.13055619134813456,0.44489204242008107
1658789533758332,0.7622796978713664,-0.0631723506523234,0.40924696726939835
1658789533774324,0.7534905012588693,-0.020569161516746703,0.47186999313344025
1658789533790315,0.7263904783703365,-0.06756694895857196,0.5243610284580758
1658789533806307,0.7103990234225988,-0.10846112764171822,0.5110551613641565
1658789533822299,0.6984359502555888,-0.11419851987487606,0.532539864194705
1658789533838290,0.651438162813764,-0.12103456168459603,0.5871061264972912
1658789533854282,0.6325169756618605,-0.13788052185854882,0.6614480811779968
1658789533870274,0.6271457999542234,-0.13739223315785454,0.6293430991073476
1658789533886265,0.6496070801861604,-0.08392462043183047,0.6016327153429462
1658789533902257,0.6282444495307855,-0.11322194247348749,0.6609597924773025
1658789533918249,0.581490806439307,-0.1514305333028152,0.6951400015259024
1658789533934240,0.5481651026169221,-0.14789044022278164,0.6865949492637524
1658789533950232,0.5381551842526893,-0.16510261692225514,0.6800030518043796
1658789533966224,0.53339436942092,-0.14837872892347592,0.6572976272220954
1658789533982216,0.5131303883421072,-0.16046387426565945,0.7404287785152972
1658789533998207,0.47650873579003594,-0.24115358205539028,0.877027542534524
1658789534014199,0.46002899214160387,-0.25262836652170595,0.8350347142748147
1658789534030191,0.47479972533760595,-0.2150301365682461,0.8067139696345462
1658789534046173,0.4800488288700695,-0.15887693598840302,0.7971923399710077
1658789534062164,0.45502403295948746,-0.19330128938735047,0.8762951094834825
1658789534078156,0.42560463874265686,-0.2124666208896011,0.9064469367513546
1658789534094148,0.4122987716487376,-0.20050354772259116,0.8820325017166404
1658789534110139,0.3800717174029149,-0.21637293049515538,0.879591058213169
1658789534126131,0.3457694361791406,-0.19452201113908618,0.897779812314031
1658789534142123,0.30597390707255645,-0.27692072938124657,1.0119172961013199
1658789534158115,0.26691081101701375,-0.3214770733196004,0.9663843747615779
1658789534174106,0.2594644083314259,-0.3331960021362632,0.9920195315480278
1658789534190098,0.24579232471198598,-0.32623788815136967,0.9756618600747693
1658789534206090,0.2658121614404516,-0.27118333714808873,0.9672388799877929
1658789534222081,0.24432745860990313,-0.2940108339055465,1.0183871213855191
1658789534238073,0.20416571297779829,-0.3180590524147404,1.035477225909819
1658789534254065,0.17486839093614126,-0.3028000305180436,0.9989776455329213
1658789534270056,0.17608911268787697,-0.27655451285572585,0.9838406958113985
1658789534286048,0.16034180209048632,-0.3007248035400929,1.0445105668726633
1658789534302040,0.13287556267643286,-0.3696955825131609,1.137895780880446
1658789534318031,0.10443274586098994,-0.3875181200885023,1.1012741283283738
1658789534334023,0.10577553978789922,-0.3975280384527351,1.154375524528878
1658789534350015,0.12018005645838059,-0.38556496528572515,1.236041809719997
1658789534366027,0.09539940489814569,-0.42462806134126785,1.3068436713206681
1658789534382019,0.06524757763027367,-0.48688487067978947,1.3272297245746545
1658789534398011,0.052063782711528006,-0.566231784542611,1.4420996414129856
1658789534414003,0.055970092317082276,-0.5322957198443579,1.4346532387273978
1658789534429994,0.06610208285648866,-0.47614251926451523,1.4579690241855499
1658789534445986,0.059632257572289404,-0.555855649652857,1.5644159609369037
1658789534461978,0.06939803158617508,-0.6004119935912109,1.5923704890516515
1658789534477969,0.09173723964293856,-0.6027313649195087,1.6194705119401842
1658789534493961,0.10272373540855995,-0.5525597009231706,1.582238498512245
1658789534509953,0.09784084840161711,-0.5570763714045928,1.5791866941329058
1658789534525944,0.06988632028686936,-0.6079804684519723,1.558068207827878
1658789534541936,0.05609216449225585,-0.6193331807431144,1.571740291447318
1658789534557928,0.04840161745632088,-0.5808804455634395,1.5252307927061874
1658789534573919,0.053772793163958,-0.5853971160448617,1.5089951934081025
1658789534589911,0.062195773250934394,-0.6056610971236744,1.4191500724803543
1658789534605903,0.09259174486915356,-0.6122529945830473,1.4001068131532772
1658789534621894,0.10272373540855995,-0.5714808880750746,1.3739833676661322
1658789534637886,0.10028229190508853,-0.5423056382085907,1.3518883039597158
1658789534653878,0.08538948653391287,-0.5537804226749063,1.3069657434958417
1658789534669870,0.07660028992141577,-0.5379110399023421,1.2029602502479593
1658789534685821,0.08746471351186358,-0.5454795147631035,1.1994201571679257
1658789534701813,0.11444266422522276,-0.5188677805752651,1.2342107270923934
1658789534717805,0.13995574883649997,-0.45795376516365316,1.1402151522087438
1658789534733796,0.18084992751964624,-0.43683527885862494,1.0760051880674446
1658789534749788,0.2153963530937668,-0.4236514839398793,1.0701457236591132
1658789534765780,0.22357518883039607,-0.42755779354543355,1.074174105439841
1658789534781771,0.22198825055313964,-0.4186465247577629,0.9737087052719922
1658789534797763,0.23639276722362101,-0.3787289234760052,0.8697032120241088
1658789534813755,0.2628824292362859,-0.3920347905699244,0.878736552986954
1658789534829746,0.30853742275120144,-0.30170138094148147,0.8738536659800102
1658789534845738,0.3628595407034405,-0.25311665522240023,0.8260013733119704
1658789534861730,0.36932936598763977,-0.23871213855191886,0.7188220035095751
1658789534877721,0.388006408789197,-0.2439612420843824,0.6449683375295647
1658789534893713,0.3988708323796448,-0.3024338139925229,0.660837720302129
1658789534909705,0.42316319523918544,-0.2931563286793315,0.6868390936140996
1658789534925696,0.4480659189745939,-0.19891660944533474,0.5999237048905162
1658789534941688,0.45136186770428033,-0.22528419928282606,0.6138399328603033
1658789534957680,0.45709925993743816,-0.22235446707866036,0.5238727397573815
1658789534973672,0.5320515754940107,-0.17352559700923154,0.46894026092927454
1658789534989663,0.5830777447165634,-0.1497215228503852,0.4644235904478524
1658789535005645,0.6148165102616918,-0.08099488822766476,0.4236514839398797
1658789535021637,0.6331273365377283,-0.06427100022888554,0.4057068741893648
1658789535037629,0.6475318532082097,-0.07965209430075548,0.30084687571526647
1658789535053620,0.6717021438925768,-0.08014038300144977,0.25799954222934307
1658789535069612,0.690989547570001,-0.10211337453269254,0.3191577019913021
1658789535085604,0.7105210955977723,-0.05938811322194226,0.35345998321507555
1658789535101596,0.6925764858472574,-0.07147325856412623,0.2977950713359272
1658789535117587,0.6696269169146261,-0.05267414358739586,0.19171435111009405
1658789535133579,0.6811017013809417,-0.07342641336690336,0.20648508430609613
1658789535149571,0.721995880064088,-0.0040894178683146265,0.17157244220645484
1658789535165562,0.7964599069199663,0.10540932326237851,0.05511558709086728
1658789535181554,0.8258793011367969,0.12567330434119217,0.006775005722133187
1658789535197546,0.8185549706263826,0.062195773250934394,-0.029846646829938095
1658789535213537,0.8090333409628441,0.019714656290531707,-0.029724574654764524
1658789535229529,0.8362554360265504,0.034973678187228074,0.009216449225604606
1658789535245521,0.8701915007248031,0.023620965896085977,0.007385366598001042
1658789535261512,0.8589608606088346,-0.01739528496223386,-0.07562371252002764
1658789535277504,0.8720225833524067,3.0518043793392735E-4,-0.15790035858701446
1658789535293496,0.8814221408407725,-0.020569161516746703,-0.14459449149309522
1658789535309487,0.8921644922560468,0.0327763790341038,-0.11566338597695891
1658789535325470,0.8927748531319146,0.07501335164415934,-0.19562066071564832
1658789535341461,0.9186541542687117,0.10614175631341993,-0.2991378652628365
1658789535357453,0.9142595559624631,0.08599984740978073,-0.30768291752498644
1658789535373445,0.8987563897154196,0.05157549401083372,-0.2721599145494773
1658789535389436,0.9254901960784316,0.048035400930800165,-0.29217975127794293
1658789535405428,0.9497825589379723,0.03826962691691449,-0.3277027542534525
1658789535421420,0.9613794155794615,-0.0037232013427939137,-0.35236133363851385
1658789535437411,0.9750514991989014,-0.007629510948348184,-0.3711604486152438
1658789535453403,0.9940947585259785,0.030823224231326662,-0.4236514839398793
1658789535469395,0.9939726863508049,0.05877775234607441,-0.5275349050125886
1658789535485386,0.9695582513160907,0.038879987792782345,-0.5421835660334171
1658789535501378,0.9456321049820708,0.06439307240405867,-0.5581750209811549
1658789535517370,0.9185320820935381,0.08184939345387932,-0.5442587930113678
1658789535533362,0.8775158312352183,0.07049668116273722,-0.581612878614481
1658789535549353,0.8505378805218582,0.022034027618829555,-0.5842984664682995
1658789535565345,0.8679942015716788,6.103608758678547E-5,-0.6038300144960709
1658789535581337,0.9268329900053409,0.024597543297474544,-0.566231784542611
1658789535597328,0.9723659113450829,0.05523765926604085,-0.5910124361028459
1658789535613320,0.980300602731365,0.07342641336690292,-0.577340352483406
1658789535629312,0.9584496833752958,0.09210345616845927,-0.5716029602502481
1658789535645324,0.9325703822384988,0.07489127946898577,-0.52314030670634
1658789535661316,0.919996948195621,0.0680552376592658,-0.5045853360799573
1658789535677308,0.9175555046921495,0.06060883497367797,-0.47357900358587024
1658789535693299,0.9156023498893724,0.0634164950026701,-0.42169832913710215
1658789535709291,0.9135271229114217,0.11322194247348705,-0.39349965667200726
1658789535725283,0.8970473792629896,0.11871519035629774,-0.36627756160830094
1658789535741274,0.8811779964904254,0.09967193102922067,-0.35199511711299314
1658789535757266,0.8898451209277489,0.07489127946898577,-0.32721446555275824
1658789535773258,0.8889906157015339,0.05865568017090084,-0.26984054322117945
1658789535789250,0.8784924086366068,0.06683451590753009,-0.23273060196841389
1658789535805241,0.8625009536888681,0.07330434119172935,-0.19330128938735047
1658789535821233,0.849439230945296,0.043030441748683756,-0.13910124361028453
1658789535837225,0.8521248187991146,0.02288853284504455,-0.08343633173113618
1658789535853216,0.855420767528801,-3.0518043793392735E-4,-0.07061875333791123
1658789535869208,0.8407721065079725,-0.003479056992446772,-0.07660028992141621
1658789535885200,0.8264896620126647,-0.01861600671396957,-0.02252231631952384
1658789535901191,0.8271000228885326,-0.022400244144350268,0.02288853284504455
1658789535917183,0.8417486839093611,-0.012024109254596738,0.06024261844815726
1658789535933175,0.8369878690775918,-0.012878614480811734,0.0919813839932857
1658789535949166,0.8156252384222169,-0.04522774090180803,0.1587548638132299
1658789535965149,0.7862058442053863,-0.08990615701533544,0.19427786678873904
1658789535981140,0.7611810482948043,-0.08856336308842616,0.23126573586633103
1658789535997132,0.7497062638284886,-0.055970092317082276,0.27496757457846943
1658789536013124,0.7387197680628672,-0.08917372396429402,0.33698023956664347
1658789536029115,0.7246814679179066,-0.1455710688944838,0.391424429694057
1658789536045107,0.7321278706034944,-0.13519493400473026,0.461127641718166
1658789536061099,0.7395742732890822,-0.05609216449225585,0.4755321583886474
1658789536077090,0.7233386739909973,-0.06060883497367797,0.501533531700618
1658789536093082,0.7025864042114902,-0.10382238498512253,0.47138170443274596
1658789536109074,0.6929427023727781,-0.1257953765163653,0.5314412146181429
1658789536125065,0.6662088960097661,-0.15387197680628661,0.6063935301747154
1658789536141057,0.6657206073090718,-0.13092240787365528,0.7003891050583659
1658789536157049,0.6551003280689711,-0.11859311818112461,0.7191882200350959
1658789536173040,0.6378881513694976,-0.13702601663233382,0.6254367895017934
1658789536189032,0.6210421911955439,-0.15460440985732804,0.5890592813000683
1658789536205024,0.5648889906157013,-0.19391165026321833,0.6682841229877168
1658789536221016,0.5185015640497443,-0.20379949645227757,0.8063477531090255
1658789536237007,0.5244831006332493,-0.2229648279545282,0.8339360646982525
1658789536252999,0.5379110399023421,-0.22796978713664462,0.76411078049897
1658789536268991,0.5386434729533836,-0.1906157015335319,0.7112535286488137
1658789536284942,0.530830853742275,-0.1644922560463873,0.7339589532310979
1658789536300934,0.4691844052796217,-0.2258945601586939,0.764965285725185
1658789536316926,0.4376897840848404,-0.1736476691844051,0.7804684519722285
1658789536332917,0.4212100404364083,-0.17694361791409152,0.7948729686427098
1658789536348909,0.3817807278553449,-0.15948729686427088,0.7349355306324865
1658789536364901,0.39960326543068625,-0.16095216296635373,0.8103761348897534
1658789536380892,0.34467078660257844,-0.27240405889982444,0.8905775539787903
1658789536396884,0.3356374456397342,-0.2910811017013808,0.869092851148241
1658789536412876,0.34760051880674414,-0.32806897077897323,0.9156023498893724
1658789536428867,0.34723430228122343,-0.28448920424200796,0.9224383916990924
1658789536444859,0.3229419394216828,-0.2003814755474176,0.901197833218891
1658789536460851,0.28912794689860366,-0.2800946059357594,1.0197299153124284
1658789536476843,0.23199816891737246,-0.3589532310978867,1.0247348744945448
1658789536492834,0.22613870450904106,-0.30841535057602787,1.0149691004806591
1658789536508826,0.22662699320973534,-0.2948653391317615,1.0187533379110398
1658789536524818,0.2083161669336997,-0.32245365072098897,1.1123826962691687
1658789536540809,0.1663233386739913,-0.3634699015793088,1.1640192263675901
1658789536556801,0.15472648203250206,-0.39691767757686724,1.177447165636683
1658789536572793,0.1503318837262535,-0.4236514839398793,1.1892881666285193
1658789536588784,0.1608300907911806,-0.3996032654306858,1.2167544060425728
1658789536604797,0.16534676127260273,-0.4784618905928131,1.3283283741512166
1658789536620789,0.14117647058823568,-0.5243610284580758,1.2881666285191118
1658789536636780,0.1284809643701843,-0.5219195849546043,1.318806744487678
1658789536652772,0.11688410772869418,-0.506660563057908,1.4002288853284508
1658789536668764,0.12884718089570502,-0.5033646143282215,1.4449073014419778
1658789536684755,0.1214007782101163,-0.5375448233768214,1.4043793392843522
1658789536700747,0.12079041733424845,-0.5941863126573588,1.4649271381704434
1658789536716739,0.13788052185854927,-0.616891737239643,1.5437857633325702
1658789536732730,0.13543907835507785,-0.5855191882200352,1.5573357747768366
1658789536748722,0.1301899748226143,-0.63935301747158,1.5362172884718088
1658789536764714,0.12164492256046344,-0.6697489890897992,1.5113145647364004
1658789536780706,0.14373998626688067,-0.6524147402151521,1.5002059967956054
1658789536796697,0.14081025406271497,-0.6255588616769665,1.441977569237812
1658789536812689,0.13788052185854927,-0.6361791409170672,1.3924162661173423
1658789536828681,0.11505302510109061,-0.6623025864042114,1.3357747768368045
1658789536844672,0.13080033569848215,-0.6563210498207064,1.3334554055085066
1658789536860664,0.13714808880750784,-0.6187228198672465,1.3015945677882046
1658789536876656,0.15521477073319634,-0.5513389791714349,1.2359197375448234
1658789536892647,0.16351567864499916,-0.5570763714045928,1.1944151979858093
1658789536908639,0.18487830930037408,-0.532539864194705,1.1762264438849472
1658789536924621,0.2024567025253683,-0.4905470359349966,1.1820859082932786
1658789536940613,0.20550850690470757,-0.44403753719386607,1.1220263981078809
1658789536956605,0.21112382696269183,-0.4846875715266652,1.1020065613794152
1658789536972596,0.21197833218890683,-0.5051956969558251,1.0694132906080718
1658789536988588,0.2263828488593882,-0.49494163424124515,1.096635385671778
1658789537004580,0.24835584039063097,-0.4603952086671246,1.1165331502250702
1658789537020571,0.2661783779659723,-0.41876859693293644,1.063920042725261
1658789537036563,0.2918135347524222,-0.40119020370794223,0.9430685893034259
1658789537052555,0.313786526283665,-0.3744563973449302,0.9387960631723509
1658789537068546,0.32953383688105564,-0.3396658274204625,0.9276874952315559
1658789537084538,0.3485770962081327,-0.2647135118638895,0.8816662851911197
1658789537100530,0.34796673533226485,-0.2746013580529487,0.8731212329289688
1658789537116521,0.3804379339284356,-0.24725719081406883,0.7964599069199663
1658789537132513,0.4170595864805069,-0.2683756771190966,0.7670405127031357
1658789537148505,0.4368352788586254,-0.276798657206073,0.7700923170824749
1658789537164497,0.44245059891660965,-0.24054322117952243,0.8139162279697869
1658789537180488,0.45587853818570245,-0.2528725108720531,0.8300297550926983
1658789537196480,0.4746776531624324,-0.21832608529793252,0.6533913176165411
1658789537212472,0.520576791027695,-0.1736476691844051,0.5086137178606851
1658789537228463,0.5416952773327228,-0.20221255817502115,0.6074921797512776
1658789537244445,0.5554894331273363,-0.17694361791409152,0.6409399557488369
1658789537260437,0.5878385595483326,-0.10296787975890753,0.5287556267643243
1658789537276429,0.6131074998092618,-0.11932555123216604,0.4279240100709547
1658789537292420,0.6464332036316476,-0.13275349050125884,0.37311360341802047
1658789537308412,0.6602273594262611,-0.1342183566033417,0.4187685969329369
1658789537324404,0.6585183489738311,-0.12640573739223315,0.4664988174258031
1658789537340396,0.677317463950561,-0.08905165178912045,0.3859311818112463
1658789537356387,0.688426031891356,-0.042664225223163044,0.25299458304722666
1658789537372379,0.7018539711604488,-0.06915388723582838,0.26727702754253446
1658789537388371,0.7129625391012437,-0.07061875333791123,0.31232166018158214
1658789537404362,0.7360341802090486,-0.03680476081483164,0.38068207827878275
1658789537420354,0.7473868925001907,-0.025818265049210254,0.3229419394216828
1658789537436346,0.796826123445487,0.03997863736934448,0.12042420080872773
1658789537452337,0.8219729915312426,0.01226825360494388,0.12188906691081058
