Timestamp (microseconds),Accel X (g),Accel Y (g),Accel Z (g)
1658789505316528,-0.14984359502555877,0.96406500343328,0.2805828946364537
1658789505332525,-0.14019989318684667,0.9748073548485543,0.27240405889982444
1658789505348522,-0.13067826352330814,0.9746852826733807,0.2713054093232623
1658789505364519,-0.13604943923094526,0.9677271686884872,0.2704509040970473
1658789505380516,-0.1455710688944838,0.9727321278706036,0.28070496681162727
1658789505396513,-0.14325169756618594,0.9848172732127871,0.2743572137026016
1658789505412510,-0.13690394445716025,0.9846952010376135,0.27447928587777515
1658789505428506,-0.13568322270542454,0.9668726634622722,0.27789730678263513
1658789505444503,-0.1383688105592431,0.9438010223544673,0.273380636301213
1658789505460500,-0.14483863584344236,0.9568627450980394,0.26691081101701375
1658789505476497,-0.14081025406271452,0.9823758297093157,0.26642252231631947
1658789505492494,-0.1359273670557717,0.9838406958113985,0.2623941405355916
1658789505508491,-0.1362935835812924,0.9669947356374458,0.2754558632791637
1658789505524488,-0.14117647058823524,0.9555199511711301,0.2809491111619744
1658789505540485,-0.1442282749675745,0.9615014877546351,0.2730144197756923
1658789505556482,-0.1359273670557717,0.9829861905851836,0.27740901808194085
1658789505572479,-0.13653772793163954,0.9624780651560236,0.2752117189288166
1658789505588476,-0.13934538796063167,0.9523460746166172,0.2797283894102387
1658789505604473,-0.14081025406271452,0.9600366216525522,0.269962615396353
1658789505620470,-0.13604943923094526,0.9672388799877929,0.2666666666666666
1658789505636474,-0.14068818188754095,0.9629663538567179,0.2763103685053787
1658789505652471,-0.13311970702677955,0.9568627450980394,0.2842450598916608
1658789505668468,-0.1409323262378881,0.9517357137407494,0.2789959563591973
1658789505684465,-0.1383688105592431,0.970901045243,0.270817120622568
1658789505700462,-0.13568322270542454,0.9774929427023729,0.26849774929427017
1658789505716459,-0.1400778210116731,0.9602807660028994,0.2780193789578087
1658789505732456,-0.13397421225299455,0.9473411154345008,0.27777523460746156
1658789505748453,-0.13580529488059812,0.9512474250400551,0.27277027542534515
1658789505764450,-0.1342183566033417,0.970901045243,0.26483558403906304
1658789505780447,-0.13495078965438312,0.9737087052719922,0.2671549553673609
1658789505796444,-0.1371480888075074,0.9702906843671322,0.2792401007095444
1658789505812440,-0.13849088273441668,0.9593041886015108,0.27997253376058584
1658789505828437,-0.13397421225299455,0.9654077973601893,0.27203784237430373
1658789505844434,-0.1380025940337224,0.9613794155794615,0.2641031509880216
1658789505860431,-0.13702601663233382,0.9621118486305029,0.2728923476005187
1658789505876428,-0.14154268711375595,0.9571068894483865,0.27692072938124657
1658789505892425,-0.13641565575646597,0.96919203479057,0.27191577019913016
1658789505908422,-0.13995574883649953,0.9586938277256429,0.2675211718928816
1658789505924419,-0.13519493400473026,0.9617456321049822,0.27362478065156015
1658789505940416,-0.1366598001068131,0.9596704051270315,0.2687418936446173
1658789505956421,-0.14105439841306167,0.9721217669947357,0.27191577019913016
1658789505972417,-0.1480125123979552,0.9739528496223393,0.2838788433661401
1658789505988414,-0.1438620584420538,0.9643091477836272,0.2843671320668344
1658789506004411,-0.1400778210116731,0.9630884260318915,0.274235141527428
1658789506020408,-0.14630350194552522,0.9755397878995957,0.27447928587777515
1658789506036405,-0.14019989318684667,0.9623559929808501,0.27777523460746156
1658789506052402,-0.13775844968337525,0.9511253528648815,0.26849774929427017
1658789506068399,-0.13824673838406953,0.9698023956664379,0.2565346761272602
1658789506084396,-0.13690394445716025,0.9810330357824064,0.2653238727397573
1658789506100393,-0.13849088273441668,0.9701686121919586,0.26691081101701375
1658789506116390,-0.13763637750820168,0.9547875181200887,0.27191577019913016
1658789506132387,-0.14789044022278164,0.9694361791409172,0.2796063172350651
1658789506148384,-0.14410620279240094,0.988845654993515,0.27606622415503157
1658789506164381,-0.14019989318684667,0.9767605096513314,0.2728923476005187
1658789506180378,-0.13788052185854882,0.9549095902952622,0.279362172884718
1658789506196375,-0.1450827801937895,0.9466086823834594,0.281071183337148
1658789506212371,-0.15033188372625306,0.9771267261768521,0.280216678110933
1658789506228368,-0.14435034714274808,0.9937285420004578,0.2864423590447851
1658789506244365,-0.12713817044327458,0.9617456321049822,0.29669642175936506
1658789506260362,-0.13446250095368883,0.9170672159914552,0.3136644541084914
1658789506276245,-0.14923323414969092,0.9502708476386665,0.3048752574959943
1658789506292241,-0.1467917906462195,0.9956816968032349,0.30304417486839075
1658789506308238,-0.1447165636682688,0.9903105210955978,0.281071183337148
1658789506324234,-0.13238727397573813,0.9663843747615779,0.28583199816891725
1658789506340231,-0.13031204699778742,0.9428244449530787,0.29633020523384435
1658789506356227,-0.14166475928892952,0.9451438162813766,0.2886396581979094
1658789506372223,-0.1359273670557717,0.9474631876096744,0.2772869459067673
1658789506388220,-0.12860303654535743,0.9306172274357216,0.27362478065156015
1658789506404216,-0.13556115053025097,0.9495384145876251,0.280216678110933
1658789506420213,-0.14288548104066523,0.9923857480735485,0.29425497825589364
1658789506436209,-0.13763637750820168,0.9983672846570535,0.3070725566491186
1658789506452206,-0.14435034714274808,0.9936064698252842,0.30853742275120144
1658789506468202,-0.12530708781567101,0.9842069123369193,0.3075608453498129
1658789506484199,-0.11712825207904176,0.9532005798428322,0.3119554436560614
1658789506500195,-0.13116655222400242,0.9436789501792937,0.3191577019913021
1658789506516192,-0.11773861295490962,0.9435568780041201,0.28290226596475154
1658789506532188,-0.11639581902800034,0.9409933623254751,0.2594644083314259
1658789506548184,-0.12384222171358816,0.9431906614785994,0.2565346761272602
1658789506564181,-0.11883726253147175,0.9553978789959565,0.2625162127107652
1658789506580177,-0.11688410772869462,0.9469748989089801,0.27704280155642014
1658789506596008,-0.12298771648737317,0.9270771343556881,0.2796063172350651
1658789506612004,-0.13092240787365528,0.9383077744716566,0.3003585870145722
1658789506628000,-0.14373998626688023,0.9655298695353629,0.31232166018158214
1658789506643996,-0.12628366521705958,0.9835965514610514,0.3255054551003278
1658789506659992,-0.11285572594796678,0.9600366216525522,0.30048065918974576
1658789506675988,-0.12640573739223315,0.9519798580910965,0.2772869459067673
1658789506691984,-0.1388570992599374,0.9732204165712979,0.28534370946822296
1658789506707980,-0.12970168612191957,0.9781033035782407,0.29217975127794293
1658789506723976,-0.11004806591897465,0.9359884031433587,0.2973067826352329
1658789506739972,-0.11468680857557034,0.8979018844892046,0.29877164873731576
1658789506755968,-0.14581521324483093,0.9419699397268637,0.29217975127794293
1658789506771964,-0.14813458457312878,1.0185091935606927,0.2981612878614479
1658789506787960,-0.12066834515907532,1.001907377737087,0.30182345311665504
1658789506803956,-0.11017013809414822,0.9197528038452738,0.30084687571526647
1658789506819952,-0.12433051041428245,0.9021744106202796,0.29925993743801005
1658789506835948,-0.13824673838406953,0.9647974364843215,0.30475318532082074
1658789506851944,-0.14032196536202024,0.9886015106431678,0.29498741130693507
1658789506867940,-0.13275349050125884,0.971755550469215,0.28925001907377723
1658789506883936,-0.1275043869687953,0.9451438162813766,0.2877851529716944
1658789506899932,-0.12762645914396886,0.96577401388571,0.2915693904020751
1658789506915741,-0.12652780956740672,0.9634546425574122,0.2894941634241244
1658789506931736,-0.1417868314641031,0.9556420233463037,0.29925993743801005
1658789506947731,-0.13702601663233382,0.966628519111925,0.3012130922407872
1658789506963726,-0.13202105745021742,0.9532005798428322,0.2991378652628365
1658789506979721,-0.13641565575646597,0.9533226520180058,0.28998245212481866
1658789506995716,-0.1450827801937895,0.9746852826733807,0.2877851529716944
1658789507011711,-0.13873502708476382,0.9781033035782407,0.2973067826352329
1658789507027706,-0.13104448004882885,0.947585259784848,0.2927901121538108
1658789507043701,-0.12738231479362172,0.9427023727779051,0.2804608224612801
1658789507059696,-0.13568322270542454,0.9586938277256429,0.27154955367360945
1658789507075691,-0.14691386282139307,0.9824979018844893,0.2910811017013808
1658789507091686,-0.13739223315785454,0.9655298695353629,0.29510948348210864
1658789507107681,-0.13263141832608527,0.949294270237278,0.2905928130006865
1658789507123676,-0.1371480888075074,0.952712291142138,0.2833905546654458
1658789507139671,-0.14532692454413665,0.9667505912870986,0.29010452429999223
1658789507155666,-0.14947737850003806,0.9788357366292821,0.29047074082551294
1658789507171661,-0.13311970702677955,0.9762722209506371,0.29547570000762935
1658789507187656,-0.12628366521705958,0.9420920119020373,0.281071183337148
1658789507203651,-0.14032196536202024,0.941603723201343,0.2792401007095444
1658789507219646,-0.14373998626688023,0.9638208590829329,0.28412298771648725
1658789507235534,-0.14349584191653308,0.9771267261768521,0.2813153276874951
1658789507251529,-0.132143129625391,0.9676050965133136,0.2888838025482565
1658789507267523,-0.1412985427634088,0.9560082398718244,0.2859540703440908
1658789507283518,-0.14703593499656664,0.9859159227893493,0.29584191653315006
1658789507299512,-0.14019989318684667,0.9784695201037614,0.2955977721828029
1658789507315507,-0.13434042877851526,0.9607690547035936,0.27997253376058584
1658789507331502,-0.12774853131914243,0.9499046311131458,0.2743572137026016
1658789507347496,-0.13983367666132596,0.9582055390249486,0.281925688563363
1658789507363491,-0.14349584191653308,0.9629663538567179,0.2859540703440908
1658789507379485,-0.13311970702677955,0.9690699626153965,0.2855878538185701
1658789507395480,-0.13702601663233382,0.9472190432593273,0.28033875028610655
1658789507411474,-0.13775844968337525,0.9445334554055087,0.2789959563591973
1658789507427469,-0.14569314106965736,0.9763942931258107,0.2927901121538108
1658789507443463,-0.14166475928892952,0.9998321507591363,0.2692301823453116
1658789507459458,-0.130434119172961,0.9849393453879607,0.2763103685053787
1658789507475453,-0.13519493400473026,0.9485618371862365,0.2909590295262072
1658789507491447,-0.14618142977035165,0.949294270237278,0.28741893644617367
1658789507507442,-0.1400778210116731,0.9607690547035936,0.2713054093232623
1658789507523436,-0.129579613946746,0.9420920119020373,0.25311665522240023
1658789507539431,-0.12530708781567101,0.9355001144426645,0.25384908827344166
1658789507555267,-0.1308003356984817,0.943312733653773,0.26935225452048517
1658789507571261,-0.1464255741206988,0.9660181582360572,0.26605630579079875
1658789507587255,-0.1417868314641031,0.9851834897383078,0.2847333485923551
1658789507603249,-0.13983367666132596,0.9582055390249486,0.29291218432898436
1658789507619243,-0.13226520180056456,0.942458228427558,0.2907148851758601
1658789507635237,-0.1404440375371938,0.9463645380331123,0.29925993743801005
1658789507651231,-0.1417868314641031,0.9744411383230336,0.2948653391317615
1658789507667225,-0.14532692454413665,0.9716334782940415,0.28082703898680084
1658789507683220,-0.13971160448615239,0.9719996948195622,0.2737468528267337
1658789507699214,-0.13995574883649953,0.9630884260318915,0.2737468528267337
1658789507715208,-0.1459372854200045,0.9635767147325858,0.27789730678263513
1658789507731202,-0.1471580071717402,0.9788357366292821,0.27484550240329586
1658789507747196,-0.13897917143511096,0.9759060044251164,0.2804608224612801
1658789507763190,-0.13690394445716025,0.9583276112001222,0.28253604943923083
1658789507779184,-0.14032196536202024,0.9688258182650493,0.2632486457618066
1658789507795178,-0.14361791409170666,0.9903105210955978,0.26483558403906304
1658789507811172,-0.14410620279240094,0.982009613183795,0.2663004501411459
1658789507827166,-0.1400778210116731,0.9680933852140079,0.27118333714808873
1658789507843160,-0.1371480888075074,0.9579613946746015,0.2697184710460059
1658789507859154,-0.13775844968337525,0.9658960860608836,0.26861982146944374
1658789507875030,-0.1388570992599374,0.9754177157244222,0.26068513008316163
1658789507891024,-0.14435034714274808,0.9754177157244222,0.26483558403906304
1658789507907017,-0.15545891508354304,0.9842069123369193,0.2804608224612801
1658789507923011,-0.1531395437552452,0.9713893339436943,0.29047074082551294
1658789507939005,-0.14312962539101237,0.9516136415655758,0.2880292973220415
1658789507954998,-0.131288624399176,0.936476691844053,0.2700846875715266
1658789507970992,-0.14691386282139307,0.9568627450980394,0.26349279011215376
1658789507986985,-0.15069810025177377,0.9949492637521935,0.2730144197756923
1658789508002979,-0.14117647058823524,0.9817654688334478,0.2737468528267337
1658789508018972,-0.13263141832608527,0.9572289616235601,0.27069504844739445
1658789508034966,-0.13482871747920955,0.9491721980621044,0.2809491111619744
1658789508050960,-0.1375143053330281,0.9521019302662701,0.28278019378957797
1658789508066953,-0.13324177920195313,0.9578393224994279,0.2737468528267337
1658789508082947,-0.127870603494316,0.9595483329518579,0.27704280155642014
1658789508098940,-0.1299458304722667,0.9479514763103687,0.27655451285572585
1658789508114934,-0.1450827801937895,0.9840848401617457,0.2728923476005187
1658789508130928,-0.13861295490959025,0.9990997177080949,0.2783855954833294
1658789508146921,-0.11834897383077747,0.9831082627603571,0.271671625848783
1658789508162915,-0.11261158159761964,0.9606469825284201,0.2747234302281223
1658789508178908,-0.10382238498512253,0.9470969710841537,0.26141756313420306
1658789508194793,-0.1337300679026474,0.9590600442511636,0.2540932326237888
1658789508210786,-0.1471580071717402,0.9939726863508049,0.2582436865796902
1658789508226780,-0.1342183566033417,0.9868925001907378,0.2528725108720531
1658789508242773,-0.12591744869153887,0.939894712748913,0.241519798580911
1658789508258766,-0.12018005645838103,0.9413595788509959,0.24286259250782027
1658789508274759,-0.13385214007782098,0.9583276112001222,0.2558022430762188
1658789508290752,-0.1345845731288624,0.9690699626153965,0.25299458304722666
1658789508306745,-0.12848096437018386,0.9739528496223393,0.26556801709010447
1658789508322738,-0.12298771648737317,0.973464560921645,0.26984054322117945
1658789508338731,-0.12628366521705958,0.9658960860608836,0.26947432669565874
1658789508354725,-0.12652780956740672,0.9629663538567179,0.2783855954833294
1658789508370718,-0.131288624399176,0.9645532921339743,0.26776531624322875
1658789508386711,-0.12945754177157243,0.9568627450980394,0.24982070649271382
1658789508402704,-0.12677195391775387,0.9595483329518579,0.26569008926527804
1658789508418697,-0.13055619134813456,0.9639429312581065,0.27606622415503157
1658789508434690,-0.13409628442816812,0.9738307774471657,0.28326848249027226
1658789508450683,-0.12921339742122528,0.9629663538567179,0.27118333714808873
1658789508466676,-0.11932555123216604,0.9612573434042879,0.26153963530937663
1658789508482669,-0.127870603494316,0.9663843747615779,0.27484550240329586
1658789508498663,-0.13824673838406953,0.9774929427023729,0.28534370946822296
1658789508514557,-0.13116655222400242,0.9857938506141757,0.275944151979858
1658789508530549,-0.1220111390859846,0.9741969939726864,0.26483558403906304
1658789508546542,-0.11700617990386819,0.9693141069657436,0.2553139543755245
1658789508562534,-0.12384222171358816,0.9596704051270315,0.2766765850308994
1658789508578527,-0.13812466620889596,0.9617456321049822,0.26739909971770803
1658789508594520,-0.1275043869687953,0.9806668192568857,0.26105134660868234
1658789508610512,-0.11468680857557034,0.9629663538567179,0.2603189135576409
1658789508626505,-0.12127870603494317,0.947585259784848,0.2600747692072938
1658789508642498,-0.14032196536202024,0.9645532921339743,0.27789730678263513
1658789508658490,-0.1275043869687953,0.9805447470817121,0.272526131074998
1658789508674483,-0.12384222171358816,0.9735866330968186,0.2594644083314259
1658789508690476,-0.1190814068818189,0.9551537346456094,0.27069504844739445
1658789508706468,-0.12445258258945602,0.9530785076676587,0.26984054322117945
1658789508722461,-0.15497062638284875,0.9887235828183414,0.29510948348210864
1658789508738453,-0.16705577172503228,0.9835965514610514,0.3024338139925229
1658789508754446,-0.12359807736324102,0.9739528496223393,0.2453040360112917
1658789508770439,-0.12103456168459603,0.9591821164263372,0.24249637598229956
1658789508786431,-0.13531700617990383,0.9496604867627987,0.2503089951934081
1658789508802424,-0.14776836804760807,0.9783474479285879,0.2066071564812697
1658789508818417,-0.1257953765163653,1.0031280994888228,0.20721751735713756
1658789508834289,-0.11297779812314035,0.9386739909971773,0.18756389715419264
1658789508850281,-0.1228656443121996,0.9201190203707945,0.20209048599984758
1658789508866274,-0.1404440375371938,0.9474631876096744,0.2318760967421989
1658789508882266,-0.14447241931792165,0.9933623254749371,0.24347295338368813
1658789508898258,-0.13104448004882885,1.032913710231174,0.2633707179369802
1658789508914250,-0.11944762340733961,1.0038605325398642,0.27203784237430373
1658789508930242,-0.14447241931792165,0.987136644541085,0.3029221026932172
1658789508946234,-0.14605935759517807,0.9961699855039292,0.2864423590447851
1658789508962226,-0.12860303654535743,0.9954375524528878,0.2625162127107652
1658789508978219,-0.12640573739223315,0.9713893339436943,0.24786755168993668
1658789508994211,-0.1228656443121996,0.9472190432593273,0.24408331425955598
1658789509010203,-0.13995574883649953,0.9453879606317237,0.2225986114290075
1658789509026195,-0.13995574883649953,0.98286411841001,0.21478599221789896
1658789509042187,-0.12225528343633174,0.9911650263218128,0.21026932173647683
1658789509058179,-0.12005798428320746,0.96577401388571,0.2318760967421989
1658789509074172,-0.14447241931792165,0.9571068894483865,0.25690089265278093
1658789509090164,-0.13873502708476382,0.9975127794308385,0.2545815213244831
1658789509106156,-0.12591744869153887,1.0105745021744106,0.2516517891203174
1658789509122148,-0.12518501564049744,0.98628213931487,0.2506752117189288
1658789509138140,-0.13189898527504385,0.9513694972152287,0.25763332570382236
1658789509154052,-0.1459372854200045,0.9572289616235601,0.2511635004196231
1658789509170045,-0.14166475928892952,0.9983672846570535,0.24347295338368813
1658789509186037,-0.12127870603494317,0.9833524071107043,0.24029907682917528
1658789509202029,-0.1161516746776532,0.9346456092164495,0.24689097428854812
1658789509218021,-0.12921339742122528,0.9306172274357216,0.2612954909590295
1658789509234013,-0.1362935835812924,0.9624780651560236,0.2537270160982681
1658789509250005,-0.1400778210116731,0.9859159227893493,0.2507972838941024
1658789509265998,-0.12433051041428245,0.9878690775921264,0.2537270160982681
1658789509281990,-0.12225528343633174,0.9663843747615779,0.2562905317769131
1658789509297982,-0.13116655222400242,0.9668726634622722,0.25690089265278093
1658789509313974,-0.127870603494316,0.9633325703822386,0.25470359349965666
1658789509329966,-0.11712825207904176,0.9713893339436943,0.23785763332570387
1658789509345958,-0.11578545815213248,0.9633325703822386,0.2571450370031281
1658789509361950,-0.1299458304722667,0.9698023956664379,0.26691081101701375
1658789509377943,-0.12140077821011674,0.9762722209506371,0.2549477378500038
1658789509393935,-0.11578545815213248,0.9612573434042879,0.2456702525368124
1658789509409927,-0.12225528343633174,0.9462424658579387,0.24762340733958954
1658789509425919,-0.13006790264744028,0.9602807660028994,0.2670328831921873
1658789509441911,-0.13739223315785454,0.98457312886244,0.27692072938124657
1658789509457903,-0.12860303654535743,0.9789578088044557,0.2510414282444495
1658789509473816,-0.132143129625391,0.9762722209506371,0.2453040360112917
1658789509489807,-0.13092240787365528,0.99140917067216,0.24298466468299385
1658789509505799,-0.13104448004882885,0.9860379949645228,0.25934233615625235
1658789509521791,-0.12628366521705958,0.9572289616235601,0.26105134660868234
1658789509537782,-0.12555123216601816,0.9331807431143666,0.25848783093003735
1658789509553774,-0.13348592355230027,0.9499046311131458,0.2582436865796902
1658789509569766,-0.14068818188754095,0.983718623636225,0.24921034561684596
1658789509585757,-0.13067826352330814,1.000198367284657,0.25091935606927596
1658789509601749,-0.12079041733424889,0.9762722209506371,0.25262836652170595
1658789509617741,-0.1299458304722667,0.9478294041351951,0.25983062485694663
1658789509633732,-0.14398413061722737,0.9586938277256429,0.2721599145494773
1658789509649724,-0.13604943923094526,0.9763942931258107,0.2676432440680552
1658789509665716,-0.13153276874952313,0.9822537575341421,0.25775539787899593
1658789509681707,-0.13348592355230027,0.9672388799877929,0.2666666666666666
1658789509697699,-0.13189898527504385,0.9585717555504694,0.27411306935225443
1658789509713691,-0.13763637750820168,0.9583276112001222,0.2573891813534752
1658789509729683,-0.14532692454413665,0.9788357366292821,0.2671549553673609
1658789509745674,-0.13617151140611883,0.9759060044251164,0.2661783779659723
1658789509761666,-0.13604943923094526,0.9586938277256429,0.2709391927977416
1658789509777658,-0.13690394445716025,0.978591592278935,0.26569008926527804
1658789509793579,-0.12677195391775387,0.9867704280155642,0.24554818036163883
1658789509809570,-0.1345845731288624,0.9870145723659114,0.24957656214236668
1658789509825561,-0.12884718089570457,0.9662623025864043,0.2566567483024338
1658789509841552,-0.13006790264744028,0.9571068894483865,0.26605630579079875
1658789509857544,-0.1328755626764324,0.9525902189669644,0.26825360494392303
1658789509873535,-0.14239719233997095,0.9497825589379723,0.2533607995727474
1658789509889526,-0.13971160448615239,0.9685816739147022,0.2608072022583352
1658789509905517,-0.13531700617990383,0.9875028610666057,0.25812161440451664
1658789509921508,-0.13299763485160598,1.0014190890363928,0.26654459449149304
1658789509937500,-0.12933546959639886,0.9776150148775464,0.25897611963073164
1658789509953491,-0.1316548409246967,0.9536888685435265,0.2604409857328145
1658789509969482,-0.13641565575646597,0.9521019302662701,0.2562905317769131
1658789509985473,-0.13910124361028453,0.968337529564355,0.2641031509880216
1658789510001464,-0.13348592355230027,0.9626001373311972,0.2553139543755245
1658789510017456,-0.13031204699778742,0.9483176928358894,0.24969863431754025
1658789510033447,-0.131288624399176,0.9455100328068973,0.2562905317769131
1658789510049438,-0.15497062638284875,0.9774929427023729,0.2641031509880216
1658789510065429,-0.14142061493858238,1.0111848630502784,0.28070496681162727
1658789510081421,-0.132143129625391,0.9818875410086214,0.2728923476005187
1658789510097412,-0.128725108720531,0.9422140840772109,0.2566567483024338
1658789510113311,-0.14581521324483093,0.9523460746166172,0.27411306935225443
1658789510129303,-0.15277332722972448,0.9798123140306707,0.26068513008316163
1658789510145294,-0.1316548409246967,1.00337224383917,0.24872205691615168
1658789510161285,-0.12762645914396886,0.9702906843671322,0.2625162127107652
1658789510177276,-0.13727016098268097,0.9422140840772109,0.26947432669565874
1658789510193267,-0.14154268711375595,0.9673609521629665,0.2583657587548638
1658789510209259,-0.1345845731288624,0.988845654993515,0.24139772640573742
1658789510225250,-0.12677195391775387,0.9807888914320593,0.24750133516441597
1658789510241241,-0.13849088273441668,0.9732204165712979,0.2663004501411459
1658789510257232,-0.1421530479896238,0.9690699626153965,0.2697184710460059
1658789510273224,-0.1342183566033417,0.9651636530098422,0.2587319752803845
1658789510289215,-0.13116655222400242,0.9480735484855423,0.2548256656748302
1658789510305206,-0.1400778210116731,0.9573510337987337,0.26141756313420306
1658789510321197,-0.13897917143511096,0.9835965514610514,0.27154955367360945
1658789510337188,-0.1290913252460517,0.982009613183795,0.2671549553673609
1658789510353180,-0.12591744869153887,0.9466086823834594,0.25677882047760736
1658789510369171,-0.1493553063248645,0.931349660486763,0.26056305790798806
1658789510385162,-0.15167467765316234,0.978591592278935,0.280216678110933
1658789510401153,-0.13556115053025097,0.9988555733577478,0.27948424505989156
1658789510417144,-0.127016098268101,0.9689478904402229,0.27154955367360945
1658789510433075,-0.1426413366903181,0.952712291142138,0.2709391927977416
1658789510449065,-0.1502098115510795,0.9595483329518579,0.2726482032501716
1658789510465056,-0.1354390783550774,0.96406500343328,0.25885404745555807
1658789510481047,-0.13470664530403598,0.9529564354924851,0.2587319752803845
1658789510497038,-0.1417868314641031,0.9729762722209507,0.2721599145494773
1658789510513028,-0.13897917143511096,0.9815213244831007,0.2737468528267337
1658789510529019,-0.12921339742122528,0.9795681696803236,0.2623941405355916
1658789510545010,-0.13153276874952313,0.9519798580910965,0.2548256656748302
1658789510561000,-0.14312962539101237,0.9618677042801558,0.27069504844739445
1658789510576991,-0.14618142977035165,0.9784695201037614,0.280216678110933
1658789510592982,-0.13763637750820168,0.9887235828183414,0.2730144197756923
1658789510608973,-0.12860303654535743,0.9770046540016786,0.26434729533836876
1658789510624963,-0.12982375829709314,0.945021744106203,0.2616617074845502
1658789510640954,-0.14813458457312878,0.9334248874647137,0.2735027084763866
1658789510656945,-0.14984359502555877,0.9607690547035936,0.27228198672465087
1658789510672936,-0.13727016098268097,0.9838406958113985,0.2671549553673609
1658789510688926,-0.13263141832608527,0.9824979018844893,0.26019684138246735
1658789510704917,-0.13617151140611883,0.9634546425574122,0.274235141527428
1658789510720908,-0.15277332722972448,0.9372091248950944,0.2890058747234301
1658789510736899,-0.1505760280766002,0.9584496833752958,0.2822919050888837
1658789510752807,-0.1417868314641031,0.9741969939726864,0.26898603799496446
1658789510768798,-0.13031204699778742,0.9702906843671322,0.2623941405355916
1658789510784789,-0.1342183566033417,0.9650415808346686,0.2721599145494773
1658789510800779,-0.13995574883649953,0.9533226520180058,0.27496757457846943
1658789510816770,-0.14483863584344236,0.9566186007476922,0.27692072938124657
1658789510832761,-0.14019989318684667,0.96406500343328,0.2697184710460059
1658789510848752,-0.13788052185854882,0.9662623025864043,0.2755779354543373
1658789510864742,-0.14581521324483093,0.9783474479285879,0.2944991226062408
1658789510880733,-0.1417868314641031,0.9884794384679942,0.28668650339513224
1658789510896724,-0.127016098268101,0.9629663538567179,0.2642252231631952
1658789510912715,-0.13727016098268097,0.9457541771572444,0.2620279240100709
1658789510928705,-0.13946746013580524,0.9689478904402229,0.27154955367360945
1658789510944696,-0.14569314106965736,0.9744411383230336,0.27875181200885013
1658789510960687,-0.14203097581445023,0.975173571374075,0.27692072938124657
1658789510976678,-0.13385214007782098,0.9613794155794615,0.2688639658197909
1658789510992668,-0.14154268711375595,0.9485618371862365,0.27069504844739445
1658789511008659,-0.14532692454413665,0.9660181582360572,0.2814373998626687
1658789511024650,-0.1400778210116731,0.9668726634622722,0.2775310902571144
1658789511040640,-0.1417868314641031,0.9612573434042879,0.27106126497291516
1658789511056631,-0.14789044022278164,0.9623559929808501,0.27228198672465087
1658789511072570,-0.14728007934691378,0.968337529564355,0.2840009155413137
1658789511088561,-0.14325169756618594,0.9583276112001222,0.2850995651178758
1658789511104551,-0.13971160448615239,0.9529564354924851,0.27948424505989156
1658789511120541,-0.1383688105592431,0.955275806820783,0.2654459449149309
1658789511136531,-0.14532692454413665,0.971755550469215,0.27789730678263513
1658789511152522,-0.14825665674830235,0.9778591592278936,0.276798657206073
1658789511168512,-0.14019989318684667,0.9680933852140079,0.2797283894102387
1658789511184502,-0.13275349050125884,0.9512474250400551,0.27106126497291516
1658789511200492,-0.14203097581445023,0.9580834668497751,0.2717936980239566
1658789511216483,-0.14691386282139307,0.9730983443961243,0.279362172884718
1658789511232473,-0.14019989318684667,0.9788357366292821,0.27032883192187374
1658789511248463,-0.12811474784466315,0.9577172503242544,0.26349279011215376
1658789511264454,-0.13397421225299455,0.9331807431143666,0.2641031509880216
1658789511280444,-0.14947737850003806,0.951857785915923,0.2809491111619744
1658789511296434,-0.14532692454413665,0.9784695201037614,0.2842450598916608
1658789511312424,-0.13641565575646597,0.9757839322499429,0.27447928587777515
1658789511328415,-0.1392233157854581,0.9628442816815443,0.27106126497291516
1658789511344405,-0.14288548104066523,0.9676050965133136,0.28290226596475154
1658789511360395,-0.14691386282139307,0.973464560921645,0.28961623559929794
1658789511376385,-0.14288548104066523,0.9594262607766844,0.27997253376058584
1658789511392334,-0.1433737697413595,0.9561303120469979,0.27106126497291516
1658789511408324,-0.1485008010986495,0.9678492408636608,0.27985046158541227
1658789511424314,-0.14410620279240094,0.9738307774471657,0.27985046158541227
1658789511440304,-0.13934538796063167,0.9658960860608836,0.27704280155642014
1658789511456295,-0.13641565575646597,0.9557640955214772,0.26642252231631947
1658789511472285,-0.14447241931792165,0.9618677042801558,0.2800946059357594
1658789511488275,-0.1485008010986495,0.9729762722209507,0.28632028686961153
1658789511504265,-0.1430075532158388,0.9716334782940415,0.281071183337148
1658789511520256,-0.1383688105592431,0.9547875181200887,0.274235141527428
1658789511536246,-0.14166475928892952,0.9429465171282523,0.2780193789578087
1658789511552236,-0.14447241931792165,0.9647974364843215,0.2822919050888837
1658789511568226,-0.1421530479896238,0.98286411841001,0.2872968642710001
1658789511584217,-0.14276340886549166,0.9798123140306707,0.2797283894102387
1658789511600207,-0.14581521324483093,0.9564965285725187,0.2893720912489508
1658789511616197,-0.14874494544899663,0.9419699397268637,0.2944991226062408
1658789511632187,-0.14398413061722737,0.9627222095063708,0.29510948348210864
1658789511648178,-0.1366598001068131,0.9656519417105365,0.2831464103150987
1658789511664168,-0.13495078965438312,0.9480735484855423,0.26642252231631947
1658789511680158,-0.14496070801861594,0.9494163424124515,0.27826352330815585
1658789511696148,-0.14959945067521163,0.9644312199588008,0.28241397726405726
1658789511712066,-0.1522850385290302,0.9740749217975129,0.2931563286793315
1658789511728056,-0.13727016098268097,0.9695582513160907,0.2909590295262072
1658789511744046,-0.13055619134813456,0.9516136415655758,0.2822919050888837
1658789511760036,-0.13141069657434956,0.9386739909971773,0.2855878538185701
1658789511776025,-0.14483863584344236,0.9539330128938737,0.2831464103150987
1658789511792015,-0.14569314106965736,0.9668726634622722,0.2766765850308994
1658789511808005,-0.14447241931792165,0.9615014877546351,0.280216678110933
1658789511823995,-0.14056610971236738,0.966628519111925,0.2991378652628365
1658789511839985,-0.13849088273441668,0.96577401388571,0.29925993743801005
1658789511855974,-0.13348592355230027,0.9638208590829329,0.28253604943923083
1658789511871964,-0.1392233157854581,0.9656519417105365,0.2780193789578087
1658789511887954,-0.1438620584420538,0.9644312199588008,0.27655451285572585
1658789511903944,-0.14581521324483093,0.9705348287174793,0.28534370946822296
1658789511919933,-0.13983367666132596,0.9594262607766844,0.2775310902571144
1658789511935923,-0.13568322270542454,0.9562523842221715,0.276798657206073
1658789511951913,-0.14068818188754095,0.9569848172732129,0.28876173037308295
1658789511967903,-0.14056610971236738,0.9729762722209507,0.2931563286793315
1658789511983893,-0.14142061493858238,0.97431906614786,0.2990157930876629
1658789511999882,-0.13177691309987027,0.9665064469367515,0.27496757457846943
1658789512015872,-0.14349584191653308,0.96577401388571,0.27362478065156015
1658789512031829,-0.15240711070420376,0.9556420233463037,0.2871747920958265
1658789512047819,-0.14959945067521163,0.9503929198138401,0.28925001907377723
1658789512063809,-0.14349584191653308,0.9567406729228658,0.28241397726405726
1658789512079799,-0.1426413366903181,0.9517357137407494,0.2821698329137101
1658789512095789,-0.15045395590142663,0.9563744563973451,0.3031662470435643
1658789512111778,-0.14703593499656664,0.9749294270237279,0.30255588616769646
1658789512127768,-0.13580529488059812,0.9523460746166172,0.2955977721828029
1658789512143758,-0.14056610971236738,0.9263447013046466,0.2909590295262072
1658789512159748,-0.14728007934691378,0.9523460746166172,0.2918135347524222
1658789512175737,-0.1480125123979552,0.9823758297093157,0.2927901121538108
1658789512191727,-0.13971160448615239,0.985427634088655,0.29681849393453863
1658789512207717,-0.13177691309987027,0.9555199511711301,0.29169146257724865
1658789512223707,-0.13311970702677955,0.9329365987640195,0.2796063172350651
1658789512239697,-0.14312962539101237,0.9463645380331123,0.2877851529716944
1658789512255686,-0.14410620279240094,0.9561303120469979,0.2995040817883572
1658789512271676,-0.14019989318684667,0.9613794155794615,0.29974822613870433
1658789512287666,-0.1266498817425803,0.9727321278706036,0.28290226596475154
1658789512303656,-0.13177691309987027,0.9773708705271993,0.27862973983367656
1658789512319646,-0.14569314106965736,0.96919203479057,0.28656443121995867
1658789512335635,-0.1502098115510795,0.954421301594568,0.29840543221179505
1658789512351562,-0.14325169756618594,0.9627222095063708,0.29303425650415793
1658789512367551,-0.13189898527504385,0.966628519111925,0.2893720912489508
1658789512383541,-0.1325093461509117,0.9385519188220037,0.27997253376058584
1658789512399530,-0.14410620279240094,0.9335469596398873,0.2890058747234301
1658789512415519,-0.15008773937590592,0.9590600442511636,0.2885175860227358
1658789512431509,-0.1459372854200045,0.9781033035782407,0.2830243381399251
1658789512447498,-0.13385214007782098,0.9705348287174793,0.2838788433661401
1658789512463487,-0.14190890363927666,0.9431906614785994,0.29510948348210864
1658789512479477,-0.1564354924849316,0.9618677042801558,0.31305409323262356
1658789512495466,-0.14203097581445023,0.9639429312581065,0.2964522774090179
1658789512511455,-0.13971160448615239,0.953566796368353,0.2766765850308994
1658789512527444,-0.14276340886549166,0.951003280689708,0.27875181200885013
1658789512543434,-0.14544899671931022,0.9628442816815443,0.29047074082551294
1658789512559423,-0.14154268711375595,0.9580834668497751,0.2897383077744715
1658789512575412,-0.1371480888075074,0.951003280689708,0.26825360494392303
1658789512591402,-0.13775844968337525,0.953566796368353,0.271671625848783
1658789512607391,-0.14862287327382306,0.9574731059739072,0.2909590295262072
1658789512623380,-0.1497215228503852,0.976882581826505,0.30304417486839075
1658789512639370,-0.14081025406271452,0.9740749217975129,0.29547570000762935
1658789512655359,-0.13727016098268097,0.9698023956664379,0.2804608224612801
1658789512671325,-0.14068818188754095,0.9506370641641873,0.2847333485923551
1658789512687315,-0.14862287327382306,0.9585717555504694,0.2897383077744715
1658789512703304,-0.14837872892347592,0.9735866330968186,0.29120317387655437
1658789512719293,-0.14032196536202024,0.9766384374761579,0.2755779354543373
1658789512735283,-0.13690394445716025,0.954421301594568,0.27777523460746156
1658789512751272,-0.13739223315785454,0.9423361562523844,0.2876630807965208
1658789512767261,-0.14837872892347592,0.9521019302662701,0.2897383077744715
1658789512783250,-0.15423819333180733,0.9890897993438621,0.2893720912489508
1658789512799240,-0.1493553063248645,0.9842069123369193,0.2890058747234301
1658789512815229,-0.14544899671931022,0.9561303120469979,0.29706263828488577
1658789512831218,-0.14752422369726093,0.928786144808118,0.2915693904020751
1658789512847208,-0.15460440985732804,0.9513694972152287,0.29047074082551294
1658789512863197,-0.14813458457312878,0.9718776226443886,0.28790722514686795
1658789512879186,-0.14239719233997095,0.9715114061188679,0.28155947203784226
1658789512895176,-0.13788052185854882,0.9606469825284201,0.28412298771648725
1658789512911165,-0.14947737850003806,0.9593041886015108,0.2936446173800258
1658789512927154,-0.1535057602807659,0.9580834668497751,0.29254596780346365
1658789512943143,-0.14142061493858238,0.9486839093614101,0.2847333485923551
1658789512959133,-0.13788052185854882,0.9261005569542995,0.28253604943923083
1658789512975122,-0.14544899671931022,0.9584496833752958,0.28876173037308295
1658789512991058,-0.14569314106965736,0.985427634088655,0.2877851529716944
1658789513007047,-0.14496070801861594,0.9859159227893493,0.2818036163881894
1658789513023037,-0.1354390783550774,0.9525902189669644,0.28741893644617367
1658789513039026,-0.1480125123979552,0.9232928969253074,0.2919356069275958
1658789513055015,-0.1576562142366673,0.9459983215075916,0.30096894789044004
1658789513071004,-0.14654764629587236,0.9733424887464714,0.29791714351110077
1658789513086994,-0.1383688105592431,0.9677271686884872,0.28119325551232155
1658789513102983,-0.14361791409170666,0.952712291142138,0.28839551384756223
1658789513118972,-0.14496070801861594,0.9585717555504694,0.29791714351110077
1658789513134962,-0.1471580071717402,0.9423361562523844,0.2860761425192644
1658789513150951,-0.14410620279240094,0.9420920119020373,0.29413290608072007
1658789513166940,-0.14703593499656664,0.9435568780041201,0.29083695735103365
1658789513182930,-0.15045395590142663,0.9632104982070651,0.29877164873731576
1658789513198919,-0.1464255741206988,0.9652857251850158,0.2936446173800258
1658789513214908,-0.1438620584420538,0.9669947356374458,0.2888838025482565
1658789513230898,-0.14496070801861594,0.9604028381780729,0.28839551384756223
1658789513246887,-0.15545891508354304,0.9693141069657436,0.29706263828488577
1658789513262876,-0.15191882200350948,0.9801785305561914,0.29425497825589364
1658789513278865,-0.14862287327382306,0.9810330357824064,0.2952315556572822
1658789513294855,-0.14691386282139307,0.9452658884565501,0.2872968642710001
1658789513310821,-0.15252918287937733,0.9440451667048144,0.2902265964751658
1658789513326810,-0.162294956893263,0.9611352712291144,0.2888838025482565
1658789513342799,-0.15741206988632017,0.9782253757534143,0.29669642175936506
1658789513358788,-0.15033188372625306,0.9826199740596628,0.2881513694972151
1658789513374776,-0.14605935759517807,0.9541771572442208,0.29547570000762935
1658789513390765,-0.14691386282139307,0.9395284962233923,0.2931563286793315
1658789513406754,-0.15484855420767518,0.9412375066758223,0.2868085755703058
1658789513422743,-0.1589990081635766,0.955275806820783,0.27911802853437084
1658789513438732,-0.1517967498283359,0.9790798809796293,0.2796063172350651
1658789513454721,-0.1459372854200045,0.9800564583810178,0.2965743495841915
1658789513470709,-0.1480125123979552,0.9652857251850158,0.30341039139391146
1658789513486698,-0.14496070801861594,0.9345235370412759,0.2953536278324558
1658789513502687,-0.1543602655069809,0.9325703822384988,0.2927901121538108
1658789513518676,-0.15216296635385662,0.9627222095063708,0.2909590295262072
1658789513534665,-0.1447165636682688,0.9752956435492486,0.28668650339513224
1658789513550654,-0.1412985427634088,0.9633325703822386,0.28461127641718154
1658789513566642,-0.1543602655069809,0.9547875181200887,0.28375677119096654
1658789513582631,-0.15484855420767518,0.9459983215075916,0.29633020523384435
1658789513598620,-0.1480125123979552,0.939894712748913,0.2927901121538108
1658789513614609,-0.13788052185854882,0.9411154345006487,0.28033875028610655
1658789513630584,-0.1464255741206988,0.9801785305561914,0.27106126497291516
1658789513646573,-0.15216296635385662,0.9694361791409172,0.2860761425192644
1658789513662562,-0.1514305333028152,0.9325703822384988,0.308659494926375
1658789513678551,-0.1459372854200045,0.929640650034333,0.30255588616769646
1658789513694540,-0.14435034714274808,0.953566796368353,0.29254596780346365
1658789513710528,-0.15667963683527875,0.971755550469215,0.2944991226062408
1658789513726517,-0.15753414206149374,0.9660181582360572,0.2927901121538108
1658789513742506,-0.15033188372625306,0.9699244678416115,0.2927901121538108
1658789513758495,-0.14312962539101237,0.9574731059739072,0.2914473182269015
1658789513774484,-0.15594720378423732,0.9423361562523844,0.2957198443579765
1658789513790473,-0.1569237811856259,0.951003280689708,0.29205767910276936
1658789513806461,-0.1531395437552452,0.9688258182650493,0.28656443121995867
1658789513822450,-0.1502098115510795,0.987136644541085,0.28656443121995867
1658789513838439,-0.14898908979934378,0.9722438391699093,0.2872968642710001
1658789513854428,-0.1526512550545509,0.9560082398718244,0.2955977721828029
1658789513870417,-0.1576562142366673,0.9540550850690472,0.2923018234531165
1658789513886406,-0.15204089417868305,0.9612573434042879,0.2982833600366215
1658789513902394,-0.1535057602807659,0.9597924773022051,0.2852216372930494
1658789513918383,-0.15631342030975803,0.9610131990539408,0.28619821469443796
1658789513934372,-0.16266117341878372,0.9715114061188679,0.2902265964751658
1658789513950348,-0.1593652246890973,0.9798123140306707,0.29498741130693507
1658789513966336,-0.15008773937590592,0.9540550850690472,0.29340047302967864
1658789513982325,-0.14862287327382306,0.9344014648661023,0.29169146257724865
1658789513998314,-0.15570305943389018,0.9395284962233923,0.2977950713359272
1658789514014303,-0.16705577172503228,0.9658960860608836,0.2957198443579765
1658789514030292,-0.15582513160906375,0.9701686121919586,0.29132524605172794
1658789514046280,-0.14666971847104593,0.9488059815365837,0.2826581216144044
1658789514062269,-0.14862287327382306,0.9282978561074238,0.29291218432898436
1658789514078258,-0.1552147707331959,0.9413595788509959,0.29877164873731576
1658789514094247,-0.15826657511253517,0.9604028381780729,0.2973067826352329
1658789514110236,-0.1485008010986495,0.9610131990539408,0.2948653391317615
1658789514126225,-0.14544899671931022,0.949294270237278,0.3002365148393986
1658789514142213,-0.1493553063248645,0.9335469596398873,0.29547570000762935
1658789514158202,-0.1555809872587166,0.9568627450980394,0.2962081330586708
1658789514174191,-0.15509269855802232,0.9635767147325858,0.28668650339513224
1658789514190180,-0.1509422446021209,0.9796902418554971,0.27985046158541227
1658789514206169,-0.1392233157854581,0.9684596017395286,0.2881513694972151
1658789514222158,-0.14276340886549166,0.9341573205157552,0.2960860608834972
1658789514238146,-0.15277332722972448,0.9282978561074238,0.30133516441596075
1658789514254135,-0.1585107194628823,0.9490501258869308,0.2947432669565879
1658789514270111,-0.16437018387121372,0.9721217669947357,0.2914473182269015
1658789514286100,-0.15008773937590592,0.9759060044251164,0.28619821469443796
1658789514302088,-0.1505760280766002,0.9690699626153965,0.3041428244449529
1658789514318077,-0.15240711070420376,0.9600366216525522,0.29120317387655437
1658789514334066,-0.1593652246890973,0.9610131990539408,0.2947432669565879
1658789514350055,-0.165712977798123,0.9671168078126193,0.29413290608072007
1658789514366044,-0.1585107194628823,0.9621118486305029,0.2943770504310672
1658789514382032,-0.15289539940489805,0.9710231174181736,0.28461127641718154
1658789514398021,-0.15191882200350948,0.9604028381780729,0.28412298771648725
1658789514414010,-0.16253910124361015,0.9345235370412759,0.2869306477454794
1658789514429999,-0.16681162737468513,0.9556420233463037,0.28546578164339653
1658789514445988,-0.16168459601739515,0.9630884260318915,0.28741893644617367
1658789514461977,-0.15863279163805588,0.9571068894483865,0.2960860608834972
1658789514477965,-0.15655756466010518,0.9457541771572444,0.29376668955519936
1658789514493954,-0.16302738994430443,0.945876249332418,0.29291218432898436
1658789514509943,-0.1698634317540244,0.9630884260318915,0.3012130922407872
1658789514525932,-0.15301747158007162,0.9630884260318915,0.3020675974670022
1658789514541921,-0.1488670176241702,0.9636987869077593,0.29510948348210864
1658789514557910,-0.15033188372625306,0.9695582513160907,0.29010452429999223
1658789514573898,-0.1598535133897916,0.9651636530098422,0.3003585870145722
1658789514589843,-0.15887693598840302,0.9485618371862365,0.3157396810864421
1658789514605832,-0.1547264820325016,0.930495155260548,0.3037766079194322
1658789514621820,-0.15448233768215447,0.936476691844053,0.28632028686961153
1658789514637808,-0.15667963683527875,0.971755550469215,0.2877851529716944
1658789514653797,-0.15533684290836947,0.9799343862058443,0.2938887617303729
1658789514669785,-0.15301747158007162,0.9662623025864043,0.2919356069275958
1658789514685773,-0.15033188372625306,0.9513694972152287,0.28827344167238866
1658789514701762,-0.14911116197451735,0.9335469596398873,0.2905928130006865
1658789514717750,-0.1531395437552452,0.9536888685435265,0.2897383077744715
1658789514733739,-0.15301747158007162,0.9582055390249486,0.27740901808194085
1658789514749727,-0.15655756466010518,0.9556420233463037,0.28583199816891725
1658789514765715,-0.15240711070420376,0.9375753414206152,0.2775310902571144
1658789514781704,-0.1589990081635766,0.9279316395819031,0.2818036163881894
1658789514797692,-0.16437018387121372,0.9651636530098422,0.2860761425192644
1658789514813680,-0.15838864728770874,0.9948271915770199,0.2977950713359272
1658789514829669,-0.15289539940489805,0.9723659113450829,0.3019455252918286
1658789514845657,-0.15790035858701446,0.954421301594568,0.3020675974670022
1658789514861645,-0.16754406042572656,0.9568627450980394,0.2985275043869686
1658789514877634,-0.1660791943236437,0.9693141069657436,0.2986495765621422
1658789514893622,-0.16437018387121372,0.9621118486305029,0.2923018234531165
1658789514909607,-0.1598535133897916,0.9512474250400551,0.2938887617303729
1658789514925595,-0.16339360646982515,0.9507591363393608,0.28278019378957797
1658789514941583,-0.16034180209048587,0.9549095902952622,0.275944151979858
1658789514957572,-0.15912108033875016,0.9452658884565501,0.2860761425192644
1658789514973560,-0.16205081254291587,0.9412375066758223,0.29706263828488577
1658789514989548,-0.16253910124361015,0.9588158999008165,0.3048752574959943
1658789515005537,-0.15924315251392374,0.9716334782940415,0.29706263828488577
1658789515021525,-0.15594720378423732,0.9591821164263372,0.28155947203784226
1658789515037513,-0.1564354924849316,0.951857785915923,0.2948653391317615
1658789515053502,-0.1589990081635766,0.9486839093614101,0.2986495765621422
1658789515069490,-0.15399404898146019,0.952712291142138,0.28876173037308295
1658789515085478,-0.1560692759594109,0.9600366216525522,0.2847333485923551
1658789515101467,-0.16461432822156086,0.9638208590829329,0.2938887617303729
1658789515117455,-0.15997558556496516,0.9635767147325858,0.29803921568627434
1658789515133443,-0.14654764629587236,0.953566796368353,0.2955977721828029
1658789515149432,-0.15204089417868305,0.9409933623254751,0.2923018234531165
1658789515165420,-0.17084000915541298,0.9489280537117573,0.2938887617303729
1658789515181409,-0.1686427100022887,0.9718776226443886,0.2936446173800258
1658789515197397,-0.15875486381322945,0.980300602731365,0.2931563286793315
1658789515213385,-0.15130846112764162,0.9755397878995957,0.28827344167238866
1658789515229339,-0.15863279163805588,0.9573510337987337,0.2960860608834972
1658789515245328,-0.16266117341878372,0.9374532692454416,0.2914473182269015
1658789515261316,-0.1619287403677423,0.9248798352025638,0.2843671320668344
1658789515277304,-0.1652246890974287,0.9466086823834594,0.28082703898680084
1658789515293293,-0.161440451667048,0.9667505912870986,0.2969405661097122
1658789515309281,-0.15826657511253517,0.9668726634622722,0.2886396581979094
1658789515325269,-0.15631342030975803,0.9705348287174793,0.2897383077744715
1658789515341258,-0.15826657511253517,0.96577401388571,0.29083695735103365
1658789515357246,-0.16705577172503228,0.9444113832303351,0.3031662470435643
1658789515373234,-0.1660791943236437,0.9522240024414437,0.3057297627222093
1658789515389223,-0.15912108033875016,0.952712291142138,0.29889372091248934
1658789515405211,-0.15680170901045232,0.950148775463493,0.2905928130006865
1658789515421199,-0.1607080186160066,0.9497825589379723,0.2860761425192644
1658789515437188,-0.161440451667048,0.9517357137407494,0.27985046158541227
1658789515453176,-0.1576562142366673,0.9617456321049822,0.2821698329137101
1658789515469164,-0.15240711070420376,0.9689478904402229,0.29755092698558006
1658789515485153,-0.15374990463111304,0.9468528267338066,0.30011444266422505
1658789515501141,-0.15997558556496516,0.9428244449530787,0.2981612878614479
1658789515517130,-0.16620126649881728,0.9577172503242544,0.29462119478141435
1658789515533118,-0.16180666819256873,0.9701686121919586,0.2905928130006865
1658789515549102,-0.15826657511253517,0.9712672617685207,0.29669642175936506
1658789515565091,-0.15948729686427088,0.9530785076676587,0.2974288548104065
1658789515581079,-0.1598535133897916,0.9516136415655758,0.2848554207675287
1658789515597067,-0.15582513160906375,0.9628442816815443,0.28754100862134724
1658789515613056,-0.15582513160906375,0.9495384145876251,0.2869306477454794
1658789515629044,-0.15545891508354304,0.9411154345006487,0.28790722514686795
1658789515645033,-0.16095216296635373,0.951003280689708,0.2940108339055465
1658789515661021,-0.16925307087815655,0.96577401388571,0.29718471046005934
1658789515677009,-0.1636377508201723,0.983718623636225,0.29498741130693507
1658789515692998,-0.15631342030975803,0.96406500343328,0.29706263828488577
1658789515708986,-0.15619134813458446,0.9513694972152287,0.3003585870145722
1658789515724974,-0.163149462119478,0.9506370641641873,0.29706263828488577
1658789515740963,-0.16375982299534586,0.9562523842221715,0.2833905546654458
1658789515756951,-0.15826657511253517,0.955275806820783,0.2872968642710001
1658789515772939,-0.1593652246890973,0.9481956206607158,0.2910811017013808
1658789515788928,-0.15777828641184088,0.9585717555504694,0.2926680399786372
1658789515804916,-0.16156252384222158,0.9663843747615779,0.29462119478141435
1658789515820904,-0.15619134813458446,0.9591821164263372,0.29462119478141435
1658789515836893,-0.1572899977111466,0.9446555275806823,0.2962081330586708
1658789515852881,-0.16559090562294942,0.9586938277256429,0.29974822613870433
1658789515868835,-0.16131837949187444,0.9658960860608836,0.2981612878614479
1658789515884823,-0.15973144121461802,0.9617456321049822,0.2880292973220415
1658789515900812,-0.15240711070420376,0.9524681467917908,0.2894941634241244
1658789515916800,-0.15423819333180733,0.9506370641641873,0.2898603799496451
1658789515932788,-0.15460440985732804,0.9549095902952622,0.28754100862134724
1658789515948777,-0.15973144121461802,0.9547875181200887,0.29413290608072007
1658789515964765,-0.15533684290836947,0.9511253528648815,0.29132524605172794
1658789515980754,-0.15545891508354304,0.9619897764553293,0.2960860608834972
1658789515996742,-0.15387197680628661,0.9679713130388343,0.2926680399786372
1658789516012730,-0.15448233768215447,0.9524681467917908,0.2822919050888837
1658789516028719,-0.15570305943389018,0.9435568780041201,0.2953536278324558
1658789516044707,-0.15960936903944445,0.9452658884565501,0.2907148851758601
1658789516060695,-0.15863279163805588,0.971755550469215,0.29034866865033937
1658789516076684,-0.15582513160906375,0.9690699626153965,0.2953536278324558
1658789516092672,-0.15338368810559233,0.9462424658579387,0.2957198443579765
1658789516108660,-0.16095216296635373,0.9319600213626309,0.2923018234531165
1658789516124649,-0.16595712214847014,0.9662623025864043,0.2955977721828029
1658789516140637,-0.15374990463111304,0.9696803234912643,0.2835126268406194
1658789516156625,-0.14923323414969092,0.9616235599298086,0.28839551384756223
1658789516172614,-0.15912108033875016,0.9528343633173115,0.2931563286793315
1658789516188598,-0.16534676127260228,0.9499046311131458,0.2931563286793315
1658789516204587,-0.1572899977111466,0.9590600442511636,0.2847333485923551
1658789516220575,-0.15411612115663376,0.9488059815365837,0.27985046158541227
1658789516236563,-0.16180666819256873,0.9575951781490808,0.28961623559929794
1658789516252552,-0.16375982299534586,0.9839627679865721,0.30511940184634145
1658789516268540,-0.15667963683527875,0.985427634088655,0.2919356069275958
1658789516284528,-0.14911116197451735,0.9715114061188679,0.2885175860227358
1658789516300517,-0.14996566720073234,0.9315938048371102,0.28876173037308295
1658789516316505,-0.16290531776913086,0.9248798352025638,0.2857099259937437
1658789516332493,-0.17022964827954512,0.9588158999008165,0.2986495765621422
1658789516348482,-0.16168459601739515,0.96406500343328,0.2907148851758601
1658789516364470,-0.1552147707331959,0.9583276112001222,0.2746013580529487
1658789516380458,-0.15338368810559233,0.9529564354924851,0.2831464103150987
1658789516396447,-0.15619134813458446,0.9604028381780729,0.2936446173800258
1658789516412435,-0.15826657511253517,0.9704127565423057,0.2947432669565879
1658789516428424,-0.1610742351415273,0.9558861676966508,0.2923018234531165
1658789516444412,-0.162294956893263,0.9298847943846802,0.2974288548104065
1658789516460400,-0.17218280308232226,0.9435568780041201,0.30353246356908503
1658789516476389,-0.16266117341878372,0.9745632104982072,0.29510948348210864
1658789516492377,-0.1505760280766002,0.9776150148775464,0.2843671320668344
1658789516508331,-0.15069810025177377,0.9495384145876251,0.2788738841840237
1658789516524319,-0.1569237811856259,0.9494163424124515,0.2869306477454794
1658789516540307,-0.16205081254291587,0.9579613946746015,0.2964522774090179
1658789516556295,-0.16327153429465158,0.9693141069657436,0.29510948348210864
1658789516572282,-0.14911116197451735,0.9586938277256429,0.2857099259937437
1658789516588270,-0.15130846112764162,0.9444113832303351,0.2926680399786372
1658789516604258,-0.15912108033875016,0.9633325703822386,0.28925001907377723
1658789516620246,-0.15997558556496516,0.9599145494773786,0.2977950713359272
1658789516636234,-0.15924315251392374,0.9405050736247809,0.28546578164339653
1658789516652222,-0.16217288471808944,0.9358663309681852,0.28412298771648725
1658789516668210,-0.15790035858701446,0.9615014877546351,0.29217975127794293
1658789516684198,-0.15887693598840302,0.9787136644541086,0.30060273136491933
1658789516700185,-0.16156252384222158,0.9678492408636608,0.2962081330586708
1658789516716173,-0.1686427100022887,0.9464866102082858,0.3045090409704736
1658789516732161,-0.16290531776913086,0.9376974135957887,0.2960860608834972
1658789516748149,-0.16205081254291587,0.9532005798428322,0.2919356069275958
1658789516764137,-0.16009765774013873,0.9715114061188679,0.28583199816891725
1658789516780125,-0.1607080186160066,0.9556420233463037,0.29547570000762935
1658789516796113,-0.16510261692225514,0.9351338979171437,0.2982833600366215
1658789516812101,-0.164003967345693,0.9572289616235601,0.2897383077744715
1658789516828064,-0.1581445029373616,0.9627222095063708,0.2855878538185701
1658789516844051,-0.15155260547798877,0.9575951781490808,0.29291218432898436
1658789516860039,-0.16351567864499872,0.9469748989089801,0.2962081330586708
1658789516876027,-0.166567483024338,0.9615014877546351,0.2965743495841915
1658789516892015,-0.1543602655069809,0.9749294270237279,0.29010452429999223
1658789516908003,-0.1485008010986495,0.9636987869077593,0.28448920424200796
1658789516923991,-0.15277332722972448,0.9419699397268637,0.28461127641718154
1658789516939979,-0.16815442130159441,0.9561303120469979,0.30096894789044004
1658789516955967,-0.16852063782711513,0.9499046311131458,0.3075608453498129
1658789516971954,-0.16559090562294942,0.9438010223544673,0.2943770504310672
1658789516987942,-0.15680170901045232,0.9457541771572444,0.2894941634241244
1658789517003930,-0.16852063782711513,0.952712291142138,0.30182345311665504
1658789517019918,-0.16876478217746227,0.9860379949645228,0.30341039139391146
1658789517035906,-0.15912108033875016,0.9713893339436943,0.29340047302967864
1658789517051894,-0.15777828641184088,0.9387960631723509,0.2848554207675287
1658789517067882,-0.16119630731670087,0.9329365987640195,0.2962081330586708
1658789517083870,-0.17376974135957868,0.9534447241931794,0.29925993743801005
1658789517099857,-0.17059586480506583,0.973464560921645,0.3012130922407872
1658789517115845,-0.16253910124361015,0.9469748989089801,0.2893720912489508
1658789517131833,-0.1526512550545509,0.9489280537117573,0.2923018234531165
1658789517147827,-0.1572899977111466,0.971755550469215,0.28741893644617367
1658789517163815,-0.16168459601739515,0.9774929427023729,0.28412298771648725
1658789517179803,-0.16473640039673443,0.9652857251850158,0.2871747920958265
1658789517195790,-0.165712977798123,0.9524681467917908,0.30304417486839075
1658789517211778,-0.16729991607537942,0.9386739909971773,0.30267795834287003
1658789517227766,-0.16534676127260228,0.942458228427558,0.2909590295262072
1658789517243754,-0.16729991607537942,0.9701686121919586,0.2898603799496451
1658789517259742,-0.16180666819256873,0.978591592278935,0.28839551384756223
1658789517275730,-0.15240711070420376,0.9601586938277258,0.2897383077744715
1658789517291718,-0.15252918287937733,0.9357442587930116,0.2927901121538108
1658789517307706,-0.16461432822156086,0.938185702296483,0.2888838025482565
1658789517323693,-0.17218280308232226,0.9638208590829329,0.29669642175936506
1658789517339681,-0.163149462119478,0.9568627450980394,0.2926680399786372
1658789517355669,-0.16046387426565945,0.9485618371862365,0.2932784008545051
1658789517371657,-0.1581445029373616,0.931349660486763,0.30267795834287003
1658789517387645,-0.17047379262989226,0.9512474250400551,0.3090257114518957
1658789517403633,-0.16412603952086657,0.9588158999008165,0.2964522774090179
1658789517419621,-0.1619287403677423,0.9663843747615779,0.29010452429999223
1658789517435608,-0.15680170901045232,0.9572289616235601,0.29681849393453863
1658789517451596,-0.17047379262989226,0.9606469825284201,0.30682841229877145
1658789517467559,-0.16559090562294942,0.9755397878995957,0.2960860608834972
1658789517483547,-0.1576562142366673,0.9453879606317237,0.29010452429999223
1658789517499535,-0.15753414206149374,0.9333028152895402,0.2957198443579765
1658789517515523,-0.16461432822156086,0.9536888685435265,0.2944991226062408
1658789517531511,-0.16559090562294942,0.9687037460898758,0.30267795834287003
1658789517547499,-0.16131837949187444,0.9623559929808501,0.2940108339055465
1658789517563487,-0.15997558556496516,0.9402609292744337,0.29303425650415793
1658789517579475,-0.16632333867399085,0.9558861676966508,0.29034866865033937
1658789517595462,-0.16510261692225514,0.9809109636072328,0.29498741130693507
1658789517611450,-0.15912108033875016,0.96748302433814,0.29510948348210864
1658789517627438,-0.16595712214847014,0.943312733653773,0.29803921568627434
1658789517643426,-0.16412603952086657,0.9385519188220037,0.30048065918974576
1658789517659414,-0.16510261692225514,0.9319600213626309,0.2914473182269015
1658789517675402,-0.1627832455939573,0.9462424658579387,0.2935225452048522
1658789517691390,-0.1593652246890973,0.9612573434042879,0.2818036163881894
1658789517707378,-0.16620126649881728,0.9575951781490808,0.2931563286793315
1658789517723365,-0.16974135957885084,0.9707789730678265,0.2935225452048522
1658789517739353,-0.1593652246890973,0.9571068894483865,0.29877164873731576
1658789517755341,-0.15777828641184088,0.9251239795529109,0.2952315556572822
1658789517771329,-0.16302738994430443,0.9253681239032581,0.2888838025482565
1658789517787323,-0.1703517204547187,0.9561303120469979,0.2944991226062408
1658789517803310,-0.16241702906843658,0.976882581826505,0.2947432669565879
1658789517819298,-0.15838864728770874,0.9571068894483865,0.2876630807965208
1658789517835286,-0.15704585336079946,0.9370870527199209,0.29669642175936506
1658789517851274,-0.17230487525749583,0.9278095674067295,0.3090257114518957
1658789517867262,-0.17462424658579367,0.9500267032883194,0.30182345311665504
1658789517883250,-0.16803234912642084,0.9748073548485543,0.29254596780346365
1658789517899238,-0.1669336995498587,0.97944609750515,0.2935225452048522
1658789517915226,-0.17230487525749583,0.9732204165712979,0.30719462882429216
1658789517931213,-0.17840848401617437,0.9502708476386665,0.3023117418173493
1658789517947201,-0.1719386587319751,0.9582055390249486,0.30426489662012646
1658789517963189,-0.163149462119478,0.9464866102082858,0.2957198443579765
1658789517979177,-0.15826657511253517,0.9505149919890137,0.2924238956282901
1658789517995165,-0.17340352483405796,0.9577172503242544,0.29205767910276936
1658789518011153,-0.17547875181200867,0.9781033035782407,0.2871747920958265
1658789518027141,-0.17108415350576012,0.9757839322499429,0.2982833600366215
1658789518043129,-0.16473640039673443,0.9557640955214772,0.30267795834287003
1658789518059116,-0.16595712214847014,0.9550316624704358,0.3028000305180436
1658789518075104,-0.17523460746166153,0.9452658884565501,0.30548561837186217
1658789518091092,-0.17303730830853725,0.9442893110551616,0.2940108339055465
1658789518107055,-0.1707179369802394,0.9463645380331123,0.3002365148393986
1658789518123043,-0.17840848401617437,0.9636987869077593,0.2842450598916608
1658789518139031,-0.1770656900892651,0.9860379949645228,0.3014572365911343
1658789518155019,-0.17096208133058655,0.949294270237278,0.3167162584878307
1658789518171007,-0.16156252384222158,0.9127946898603803,0.31293202105745
1658789518186995,-0.1703517204547187,0.9357442587930116,0.2897383077744715
1658789518202983,-0.17303730830853725,0.9737087052719922,0.2840009155413137
1658789518218970,-0.16083009079118016,0.9730983443961243,0.2927901121538108
1658789518234958,-0.15167467765316234,0.9422140840772109,0.2962081330586708
1658789518250946,-0.16180666819256873,0.937331197070268,0.29633020523384435
1658789518266934,-0.1712062256809337,0.9626001373311972,0.29925993743801005
1658789518282922,-0.16461432822156086,0.9673609521629665,0.2964522774090179
1658789518298910,-0.16009765774013873,0.9521019302662701,0.29498741130693507
1658789518314898,-0.15680170901045232,0.9606469825284201,0.3031662470435643
1658789518330886,-0.1589990081635766,0.9500267032883194,0.29047074082551294
1658789518346873,-0.15582513160906375,0.9474631876096744,0.29010452429999223
1658789518362861,-0.15594720378423732,0.9361104753185323,0.29376668955519936
1658789518378849,-0.1686427100022887,0.9533226520180058,0.29962615396353076
1658789518394837,-0.17486839093614082,0.9767605096513314,0.30170138094148147
1658789518410825,-0.16644541084916442,0.9672388799877929,0.3053635461966886
1658789518426818,-0.15777828641184088,0.9456321049820708,0.3048752574959943
1658789518442806,-0.16119630731670087,0.9383077744716566,0.30011444266422505
1658789518458794,-0.16302738994430443,0.9425803006027316,0.29217975127794293
1658789518474782,-0.1774319066147858,0.9574731059739072,0.2998702983138779
1658789518490770,-0.1724269474326694,0.9558861676966508,0.30438696879530003
1658789518506758,-0.16424811169604014,0.9466086823834594,0.2952315556572822
1658789518522746,-0.16437018387121372,0.9488059815365837,0.2938887617303729
1658789518538734,-0.16473640039673443,0.9596704051270315,0.3115892271305407
1658789518554721,-0.16754406042572656,0.951857785915923,0.306950484473945
1658789518570709,-0.15655756466010518,0.9461203936827651,0.2909590295262072
1658789518586697,-0.162294956893263,0.9569848172732129,0.2877851529716944
1658789518602685,-0.16803234912642084,0.9623559929808501,0.2991378652628365
1658789518618673,-0.17145037003128083,0.9622339208056765,0.30438696879530003
1658789518634661,-0.16424811169604014,0.948439765011063,0.29803921568627434
1658789518650649,-0.1531395437552452,0.9452658884565501,0.29962615396353076
1658789518666637,-0.15826657511253517,0.9636987869077593,0.2960860608834972
1658789518682624,-0.16217288471808944,0.983718623636225,0.30060273136491933
1658789518698612,-0.16583504997329657,0.9677271686884872,0.3007248035400929
1658789518714600,-0.162294956893263,0.952712291142138,0.2986495765621422
1658789518730588,-0.1569237811856259,0.9369649805447473,0.2964522774090179
1658789518746551,-0.15838864728770874,0.9444113832303351,0.2991378652628365
1658789518762539,-0.16095216296635373,0.9483176928358894,0.29047074082551294
1658789518778527,-0.16046387426565945,0.945021744106203,0.2890058747234301
1658789518794515,-0.16974135957885084,0.950148775463493,0.3012130922407872
1658789518810503,-0.15838864728770874,0.948439765011063,0.2955977721828029
1658789518826491,-0.14984359502555877,0.941603723201343,0.2881513694972151
1658789518842478,-0.15533684290836947,0.945876249332418,0.2993820096131836
1658789518858466,-0.15863279163805588,0.9590600442511636,0.30719462882429216
1658789518874454,-0.1598535133897916,0.9523460746166172,0.29498741130693507
1658789518890442,-0.16705577172503228,0.9534447241931794,0.30353246356908503
1658789518906430,-0.15826657511253517,0.9616235599298086,0.3045090409704736
1658789518922418,-0.16632333867399085,0.9584496833752958,0.3079270618753336
1658789518938406,-0.15997558556496516,0.9605249103532465,0.30170138094148147
1658789518954393,-0.15216296635385662,0.9412375066758223,0.2910811017013808
1658789518970381,-0.16302738994430443,0.9368429083695737,0.29120317387655437
1658789518986369,-0.1952544441901276,1.0106965743495842,0.33453879606317205
1658789519002357,-0.21173418783855968,1.0782024872205689,0.37946135652704704
1658789519018345,-0.1488670176241702,1.1116502632181273,0.3104905775539786
1658789519034333,-0.09662012664988184,1.1315480277714203,0.2528725108720531
1658789519050321,-0.10614175631342038,1.0503700312809947,0.23700312809948887
1658789519066314,-0.15448233768215447,1.0059357595178149,0.26068513008316163
1658789519082302,-0.21185626001373326,1.0880903334096281,0.26727702754253446
1658789519098290,-0.21905851834897394,1.2202944991226063,0.2852216372930494
1658789519114278,-0.16766613260090013,1.2383611810482948,0.2600747692072938
1658789519130266,-0.1228656443121996,1.2034485389486536,0.2623941405355916
1658789519146254,-0.13446250095368883,1.1643854428931109,0.26776531624322875
1658789519162242,-0.1555809872587166,1.1916075379568172,0.27203784237430373
1658789519178229,-0.1412985427634088,1.224933241779202,0.2549477378500038
1658789519194217,-0.12042420080872818,1.2322575722896163,0.23871213855191886
1658789519210205,-0.1077286945906768,1.2228580148012513,0.25091935606927596
1658789519226193,-0.10052643625543611,1.2154116121156635,0.2532387273975738
1658789519242181,-0.07220569161516766,1.2353093766689556,0.25934233615625235
1658789519258169,-0.05523765926604085,1.2151674677653164,0.2647135118638895
1658789519274157,-0.023498893720912406,1.143022812237736,0.2857099259937437
1658789519290145,-0.021789883268482413,1.1359426260776688,0.2515297169451438
1658789519306132,0.0037232013427939137,1.1457084000915545,0.24029907682917528
1658789519322120,0.03851377126726163,1.0967574578469517,0.25470359349965666
1658789519338108,0.053406576638437286,1.1127489127946895,0.26556801709010447
1658789519354096,0.07708857862211005,1.0304722667277026,0.2953536278324558
1658789519370084,0.1738918135347527,0.907179369802396,0.25421530479896237
1658789519386047,0.23321889066910817,0.8660410467689017,0.23651483939879459
1658789519402034,0.2251621271076525,0.8410162508583197,0.25384908827344166
1658789519418022,0.1465476462958728,0.8793469138628218,0.2766765850308994
1658789519434009,0.16485847257190844,0.7898680094605934,0.2595864805065995
1658789519449997,0.340520332646677,0.6530251010910204,0.2116121156633861
1658789519465984,0.45624475471122317,0.6493629358358133,0.1957427328908219
1658789519481971,0.45831998168917387,0.6007782101167312,0.23541618982223245
1658789519497959,0.44452582589456036,0.6062714579995419,0.2788738841840237
1658789519513946,0.47016098268101025,0.5619592584115356,0.30939192797741644
1658789519529934,0.5850308995193405,0.47272449835965524,0.2575112535286488
1658789519545921,0.6862287327382317,0.4444037537193868,0.22601663233386748
1658789519561908,0.6629129472800797,0.431830319676509,0.2964522774090179
1658789519577896,0.6254367895017934,0.503242542153048,0.3737239642938883
1658789519593883,0.6692607003891053,0.5816128786144805,0.3632257572289612
1658789519609871,0.8035400930800334,0.4711375600823988,0.27704280155642014
1658789519625858,0.9026626993209739,0.2676432440680552,0.22772564278629748
1658789519641845,0.7937743190661477,0.14972152285038565,0.28278019378957797
1658789519657833,0.7064927138170445,0.23150988021667818,0.3670099946593419
1658789519673820,0.8219729915312426,0.35675593194476196,0.2857099259937437
1658789519689808,0.9522240024414437,0.2645914396887159,0.14288548104066567
1658789519705810,0.9789578088044557,0.07806515602349862,0.11480888075074347
1658789519721798,0.9204852368963152,0.00457770656900891,0.19330128938735047
1658789519737786,0.8886243991760132,0.06353856717784367,0.2504310673685817
1658789519753774,0.8170901045242998,0.20514229037918685,0.27777523460746156
1658789519769762,0.7875486381322956,0.2251621271076525,0.2503089951934081
1658789519785750,0.8771496147096975,0.11102464332036277,0.2490882734416724
1658789519801737,0.98115510795758,0.027038986800945963,0.2570229648279545
1658789519817725,1.0727092393377582,-0.015564202334630295,0.27862973983367656
1658789519833713,1.187090867475395,-0.002990768291752488,0.28754100862134724
1658789519849701,1.0110627908751049,0.1012588693064771,0.30341039139391146
1658789519865689,0.74189364461738,0.0945448996719307,0.313786526283665
1658789519881677,0.6834210727092396,-0.10614175631342038,0.33954375524528846
1658789519897665,0.8092774853131912,-0.35101853971160457,0.35968566414892766
1658789519913653,0.9215838864728774,-0.4624704356450753,0.36725413900968906
1658789519929640,0.9711451895933472,-0.40192263675898365,0.38239108873121275
1658789519945628,0.9999542229343099,-0.2663004501411459,0.3947203784237434
1658789519961616,0.9719996948195622,-0.14251926451514452,0.344792858777752
1658789519977604,0.9018081940947589,-0.0686655985351341,0.27496757457846943
1658789519993592,0.862256809338521,-0.039002059967955915,0.25348287174792095
1658789520009580,0.8655527580682074,-0.04229800869764233,0.2755779354543373
1658789520025573,0.9066910811017017,-0.08062867170214405,0.2926680399786372
1658789520041561,0.9414816510261694,-0.15252918287937733,0.3200122072175171
1658789520057549,0.9209735255970095,-0.1885404745555812,0.34918745708400056
1658789520073537,0.834668497749294,-0.14166475928892952,0.32562752727550137
1658789520089525,0.7978027008468755,-0.009094377050431035,0.21869230182345323
1658789520105513,0.794262607766842,0.10492103456168422,0.20440985732814543
1658789520121501,0.778881513694972,0.22308690012970178,0.19671931029221046
1658789520137488,0.7327382314793622,0.3998474097810334,0.2781414511329823
1658789520153476,0.6879377431906617,0.5950408178835733,0.3506523231860834
1658789520169464,0.7156481269550623,0.6414282444495312,0.3323414969100478
1658789520185452,0.8666514076447696,0.4578316929884796,0.25384908827344166
1658789520201440,0.8827649347676818,0.3079270618753336,0.17840848401617482
1658789520217428,0.7039291981383995,0.5452353704127564,0.15094224460212136
1658789520233416,0.54535744258793,0.7506828412298772,0.25726710917830165
1658789520249404,0.5303425650415807,0.709178301670863,0.2931563286793315
1658789520265391,0.6530251010910204,0.5383993286030364,0.24432745860990313
1658789520281379,0.7862058442053863,0.3913023575188834,0.08245975432974717
1658789520297367,0.7119859616998552,0.5800259403372241,0.01898222323949028
1658789520313355,0.5163042648966201,0.8794689860379954,0.15509269855802277
1658789520329343,0.45258258945601604,0.9490501258869308,0.20697337300679042
1658789520345306,0.5559777218280306,0.7963378347447927,0.14630350194552566
1658789520361293,0.6725566491187918,0.7089341573205159,0.11151293202105705
1658789520377281,0.5664759288929577,0.7862058442053863,0.11322194247348705
1658789520393268,0.352483405813687,0.928786144808118,0.19293507286182976
1658789520409256,0.26569008926527804,1.0083772030212863,0.2116121156633861
1658789520425243,0.3721370260166319,0.8386968795300218,0.12286564431219915
1658789520441230,0.4833447775997559,0.780590524147402,0.04718089570458517
1658789520457218,0.3591973754482334,1.0012970168612192,0.17535667963683554
1658789520473205,0.1881742580300605,1.1266651407644774,0.2637369344625009
1658789520489193,0.25214007782101167,1.1029831387808038,0.13580529488059856
1658789520505180,0.41937895780880474,1.0321812771801326,0.10211337453269209
1658789520521167,0.35931944762340695,0.9634546425574122,0.16314946211947845
1658789520537155,0.24078736552986957,0.9406271457999544,0.1957427328908219
1658789520553142,0.21344319829098968,0.949294270237278,0.1377584496833757
1658789520569130,0.22735942626077676,0.9947051194018464,0.12579537651636574
1658789520585117,0.1427634088654921,1.0514686808575568,0.11041428244449492
1658789520601104,0.08111696040283789,1.0977340352483402,0.09173723964293856
1658789520617092,0.14337376974135996,1.0779583428702217,0.09332417792019498
1658789520633079,0.2360265506981003,1.0459754329747462,0.07318226901655578
1658789520649067,0.21222247653925397,0.9823758297093157,0.07782101167315147
1658789520665069,0.10016021972991496,1.0646524757763025,0.16314946211947845
1658789520681057,-0.007019150072480329,1.0348668650339512,0.2016021972991533
1658789520697044,5.493247882810692E-4,1.059647516594186,0.17157244220645484
1658789520713031,0.054505226214999425,1.175738155184253,0.21319905394064254
1658789520729019,0.07000839246204293,1.3007400625619896,0.21661707484550252
1658789520745006,0.123476005188067,1.291218432898451,0.13824673838406998
1658789520760994,0.09112687876707071,1.1729304951552608,0.10565346761272565
1658789520776981,-0.03851377126726163,1.1906309605554286,0.16412603952086702
1658789520792968,-0.05474937056534657,1.2655832761120012,0.13885709925993783
1658789520808956,0.024475471122300974,1.2671702143892576,0.060852979324025114
1658789520824943,0.013855191882200302,1.2791332875562675,0.0357061112382695
1658789520840931,-0.05120927748531301,1.3139238574807353,0.10406652933546923
1658789520856918,-0.07428091859311836,1.3146562905317767,0.1456931410696578
1658789520872905,-0.023132677195391693,1.3036697947661553,0.12713817044327502
1658789520888893,0.014099336232547444,1.2876783398184175,0.15814450293736204
1658789520904880,-0.011413748378728883,1.2572823682001983,0.1768215457389184
1658789520920868,-0.046692607003890885,1.3052567330434117,0.19757381551842546
1658789520936855,-0.06512550545510054,1.35921263447013,0.20721751735713756
1658789520952842,-0.021057450217440987,1.3120927748531317,0.17792019531548053
1658789520968830,0.034851606012054503,1.226642252231632,0.1961089494163426
1658789520984802,0.05267414358739586,1.1912413214312965,0.19391165026321833
1658789521000789,0.0604867627985044,1.2013733119707029,0.18219272144655552
1658789521016777,0.03326466773479808,1.2442206454566263,0.18207064927138195
1658789521032764,0.030823224231326662,1.20161745632105,0.2146639200427254
1658789521048751,0.07965209430075504,1.138994430457008,0.23199816891737246
1658789521064739,0.15936522468909775,1.074174105439841,0.22027924010070965
1658789521080726,0.24493781948577098,0.9992217898832685,0.16595712214847058
1658789521096714,0.2852216372930494,0.9094987411306938,0.15545891508354348
1658789521112701,0.28632028686961153,0.8809338521400782,0.14435034714274853
1658789521128688,0.3090257114518957,0.8917982757305261,0.15082017242694779
1658789521144676,0.35004196231021556,0.8405279621576254,0.16217288471808988
1658789521160663,0.4282902265964754,0.7283436331731137,0.13910124361028497
1658789521176651,0.4859082932784009,0.6181124589913782,0.16498054474708201
1658789521192638,0.431830319676509,0.6406958113984897,0.24310673685816742
1658789521208625,0.383733882658122,0.7071030746929123,0.3150072480354007
1658789521224613,0.47479972533760595,0.675608453498131,0.2592202639810788
1658789521240600,0.6696269169146261,0.5156939040207522,0.17828641184100125
1658789521256588,0.7284657053482873,0.39081406881818914,0.18634317540245693
1658789521272575,0.6413061722743576,0.4552681773098346,0.2671549553673609
1658789521288562,0.5497520408941785,0.5493858243686578,0.34332799267566916
1658789521304565,0.5869840543221176,0.54023041123064,0.2857099259937437
1658789521320552,0.7114976729991609,0.34454871442740487,0.21356527046616325
1658789521336540,0.835523002975509,0.21905851834897394,0.21930266269932108
1658789521352527,0.8876478217746246,0.17938506141756339,0.24518196383611812
1658789521368515,0.8683604180971995,0.14715800717174066,0.278507667658503
1658789521384502,0.8156252384222169,0.13739223315785498,0.2909590295262072
1658789521400489,0.7981689173723963,0.18805218585488692,0.25397116044861523
1658789521416477,0.8563973449301896,0.20428778515297186,0.18463416495002694
1658789521432464,0.9660181582360572,0.15069810025177421,0.14435034714274853
1658789521448452,0.9082780193789581,0.15899900816357704,0.18170443274586123
1658789521464439,0.7895017929350727,0.20013733119707044,0.2284580758373389
1658789521480426,0.8393072404058897,0.17462424658579412,0.22711528191042962
1658789521496414,0.9729762722209507,0.08294804303044145,0.1914702067597469
1658789521512401,1.0209506370641641,-0.04852368963149445,0.17950713359273696
1658789521528389,0.987136644541085,-0.06585793850614197,0.2121004043640804
1658789521544376,0.9639429312581065,-0.01886015106431671,0.24505989166094455
1658789521560363,0.9516136415655758,0.018005645838101714,0.22784771496147105
1658789521576351,0.949294270237278,0.027283131151293105,0.241519798580911
1658789521592338,0.9798123140306707,0.015686274509803866,0.26141756313420306
1658789521608326,0.9900663767452507,0.015686274509803866,0.27020675974670016
1658789521624359,0.9809109636072328,-0.01104753185320817,0.2885175860227358
1658789521640347,0.9401388570992602,-0.06256198977645555,0.2943770504310672
1658789521656335,0.8458991378652625,-0.12237735561150531,0.32074464026855853
1658789521672322,0.8170901045242998,-0.20209048599984758,0.3679865720607305
1658789521688310,0.908888380254826,-0.2599526970321202,0.36054016937514266
1658789521704298,0.990554665445945,-0.36493476768139166,0.2915693904020751
1658789521720286,1.0017853055619135,-0.34564736400396745,0.28326848249027226
1658789521736274,0.9256122682536052,-0.1779201953154801,0.3297779812314028
1658789521752262,0.894361791409171,-0.07122911421377909,0.3268482490272371
1658789521768250,0.9229266803997866,-0.09393453879606328,0.2952315556572822
1658789521784237,0.9257343404287788,-0.16253910124361015,0.3451590753032727
1658789521800225,0.9103532463569088,-0.1433737697413595,0.4175478751812012
1658789521816213,0.9586938277256429,-0.14605935759517807,0.42816815442130185
1658789521832201,0.9826199740596628,-0.1881742580300605,0.36054016937514266
1658789521848189,0.9461203936827651,-0.19037155718318477,0.31134508278019357
1658789521864177,0.8681162737468524,-0.12591744869153887,0.2885175860227358
1658789521880165,0.8349126420996411,-0.050720988784618726,0.2893720912489508
1658789521896153,0.8212405584802012,0.05633630884260299,0.3124437323567557
1658789521912140,0.8413824673838404,0.11895933470664488,0.3098802166781107
1658789521928128,0.8654306858930338,0.12860303654535787,0.3132982375829707
1658789521944061,0.8734874494544895,0.11749446860456203,0.32611581597619566
1658789521960048,0.8422369726100554,0.17438010223544698,0.36444647898069693
1658789521976036,0.8441901274128325,0.21698329137102323,0.3339284351873042
1658789521992023,0.8432135500114439,0.23089951934081032,0.26654459449149304
1658789522008010,0.8281986724650947,0.23968871595330743,0.27570000762951086
1658789522023998,0.7647211413748378,0.36639963378347407,0.3075608453498129
1658789522039985,0.7094224460212102,0.46381322957198456,0.31219958800640857
1658789522055973,0.7775387197680628,0.4024109254596784,0.24298466468299385
1658789522071960,0.8515144579232468,0.2914473182269015,0.18878461890592835
1658789522087947,0.7384756237125201,0.4165712977798126,0.23993286030365457
1658789522103935,0.6819562066071567,0.5739223315785456,0.30975814450293715
1658789522119922,0.7554436560616464,0.6017547875181197,0.2003814755474176
1658789522135910,0.8083009079118026,0.5033646143282215,0.09503318837262498
1658789522151897,0.7127183947508966,0.47138170443274596,0.08563363088426001
1658789522167884,0.5515831235217821,0.6510719462882433,0.11810482948042988
1658789522183872,0.48773937590600447,0.8607919432364382,0.23199816891737246
1658789522199859,0.6413061722743576,0.7556878004119936,0.1381246662088964
1658789522215847,0.7929198138399327,0.5756313420309755,0.02130159456778813
1658789522231834,0.6626688029297325,0.617624170290684,0.03289845120927737
1658789522247821,0.46588845654993527,0.9160906385900667,0.11639581902799989
1658789522263824,0.4599069199664303,1.1005416952773324,0.17499046311131483
1658789522279811,0.6936751354238195,0.9778591592278936,0.0499885557335773
1658789522295799,0.7537346456092164,0.7040512703135731,0.02252231631952384
1658789522311786,0.5191119249256122,0.6100556954299226,0.03338673990997165
1658789522327774,0.3012130922407872,0.8408941786831461,0.024475471122300974
1658789522343761,0.31122301060502,1.0651407644769968,-0.02923628595407024
1658789522359748,0.4778515297169452,1.0045929655909056,-0.02154573891813527
1658789522375736,0.5371786068513007,0.8755626764324411,0.0022583352407110624
1658789522391723,0.41437399862668833,0.8423590447852289,0.07965209430075504
1658789522407711,0.25140764476997024,0.8568856336308839,0.08099488822766432
1658789522423698,0.18426794842450622,0.9462424658579387,0.06585793850614152
1658789522439685,0.2645914396887159,0.9176775768673231,0.0026245517662317752
1658789522455673,0.3306324864576178,0.9259784847791259,-0.05218585488670158
1658789522471660,0.21429770351720467,1.006179903868162,0.07598992904554791
1658789522487648,0.11578545815213204,1.1144579232471195,0.09979400320439424
1658789522503635,0.1544823376821549,1.1382619974059667,0.07281605249103507
1658789522519622,0.23529411764705888,1.0384069581139848,0.03668268863965807
1658789522535610,0.20843823910887327,1.0227817196917677,0.03216601815823594
1658789522551597,0.0995498588540471,1.102616922255283,0.15863279163805633
1658789522567585,0.017639429312581,1.0979781795986874,0.1251850156404979
1658789522583557,0.09515526054779855,1.0725871671625846,0.0709849698634315
1658789522599544,0.14056610971236783,1.055985351338979,0.011413748378728883
1658789522615532,0.06659037155718295,1.188555733577478,0.049378194857709445
1658789522631519,0.0365606164644845,1.2111390859845885,0.0357061112382695
1658789522647506,0.07513542381933291,1.1363088426031895,-0.035095750362401645
1658789522663494,0.03448538948653379,1.1062790875104902,-0.002990768291752488
1658789522679481,-0.04986648355840373,1.2259098191805906,0.05682459754329727
1658789522695469,-0.017151140611886717,1.290119783321889,0.04693675135423803
1658789522711456,0.011291676203555312,1.2733958953231097,0.032288090333409514
1658789522727443,-0.023498893720912406,1.2838941023880368,0.06878767071030722
1658789522743431,-0.045349813076981604,1.3250324254215302,0.07867551689936647
1658789522759418,-0.02410925459678026,1.348714427405203,0.06475928892957938
1658789522775406,0.004333562218661768,1.2805981536583504,0.05011062790875087
1658789522791393,-0.010681315327687457,1.2458075837338827,0.06659037155718295
1658789522807380,-0.05145342183566015,1.291218432898451,0.054627298390172996
1658789522823368,-0.031189440756847375,1.2821850919356068,0.035095750362401645
1658789522839355,-0.012024109254596738,1.2345769436179141,0.041443503471427334
1658789522855342,-0.005676356145571049,1.17427328908217,0.053162432288090145
1658789522871330,-0.019226367589837423,1.1917296101319907,0.07757686732280433
1658789522887317,-0.036194399938963784,1.2177309834439614,0.12652780956740717
1658789522903320,-0.021057450217440987,1.216144045166705,0.14435034714274853
1658789522919307,0.04351873044937804,1.1787899595635922,0.1255512321660186
1658789522935295,0.08197146562905289,1.1618219272144659,0.11505302510109061
1658789522951282,0.1033340962844278,1.1681696803234916,0.11273365377279276
1658789522967270,0.1301899748226143,1.1305714503700317,0.1091935606927592
1658789522983257,0.14837872892347637,1.112870984969863,0.12127870603494273
1658789522999244,0.1499656672007328,1.0890669108110167,0.1289692530708786
1658789523015232,0.16485847257190844,1.0839398794537267,0.14288548104066567
1658789523031219,0.22955672541390104,1.0197299153124284,0.13788052185854927
1658789523047207,0.3134203097581443,0.9770046540016786,0.10186923018234495
1658789523063194,0.349919890135042,0.9198748760204474,0.14056610971236783
1658789523079181,0.2969405661097122,0.9081559472037846,0.15948729686427132
1658789523095169,0.2726482032501716,0.9040054932478832,0.19269092851148262
1658789523111156,0.36481269550621764,0.7622796978713664,0.1444724193179221
1658789523127143,0.5337605859464407,0.6646219577325096,0.06280613412680225
1658789523143131,0.5753871976806284,0.6630350194552532,0.10162508583199781
1658789523159118,0.4473334859235525,0.7630121309224078,0.18280308232242337
1658789523175106,0.4166933699549862,0.717723353933013,0.25726710917830165
1658789523191093,0.606515602349889,0.5398641947051193,0.1599755855649656
1658789523207080,0.8155031662470433,0.4396429388876175,0.056946669718470844
1658789523223053,0.7208972304875259,0.44867627985046177,0.1146868085755699
1658789523239040,0.5292439154650186,0.6118867780575261,0.24811169604028382
1658789523255027,0.49872587167162585,0.6958724345769438,0.25519188220035094
1658789523271015,0.7077134355687802,0.4935988403143359,0.19452201113908618
1658789523287002,0.9186541542687117,0.2229648279545282,0.11541924162661132
1658789523302990,0.8805676356145575,0.09124895094224428,0.21405355916685753
1658789523318977,0.7055161364156559,0.28839551384756223,0.3075608453498129
1658789523334964,0.6693827725642789,0.37323567559319404,0.3015793087663079
1658789523350952,0.8983901731898989,0.2200350957503625,0.17743190661478625
1658789523366939,1.0524452582589454,0.06182955672541368,0.08551155870908644
1658789523382927,0.9532005798428322,0.04339665827420447,0.16974135957885128
1658789523398914,0.8524910353246353,0.13556115053025142,0.25763332570382236
1658789523414901,0.8590829327840082,0.18573281452658907,0.23883421072709243
1658789523430889,0.9137712672617688,0.1381246662088964,0.21197833218890683
1658789523446876,0.9469748989089801,0.14984359502555922,0.2100251773861297
1658789523462864,0.9578393224994279,0.09893949797817925,0.20306706340123615
1658789523478851,1.0282749675745784,-0.02276646066987098,0.22565041580834677
1658789523494838,1.0200961318379491,-0.05951018539711583,0.26178377965972377
1658789523510826,0.9246356908522166,-0.045593957427328746,0.25799954222934307
1658789523526813,0.8799572747386897,-0.03973449301899734,0.27655451285572585
1658789523542816,0.9038834210727096,-0.024963759822995257,0.3153734645609214
1658789523558803,0.8938735027084768,-0.10089265278095683,0.315495536736095
1658789523574791,0.9099870298313881,-0.3024338139925229,0.2818036163881894
1658789523590778,1.0006866559853513,-0.40143434805828937,0.32159914549477353
1658789523606765,0.9842069123369193,-0.33807888914320605,0.3411306935225449
1658789523622753,0.9101091020065617,-0.2296787975890746,0.29010452429999223
1658789523638740,0.8887464713511868,-0.16632333867399085,0.24213015945677885
1658789523654728,0.9127946898603803,-0.17181658655680154,0.20587472343022828
1658789523670715,0.9276874952315559,-0.19598687724116903,0.20721751735713756
1658789523686702,0.930495155260548,-0.21283283741512182,0.2280918593118182
1658789523702690,0.9320820935378045,-0.21173418783855968,0.26849774929427017
1658789523718677,0.9505149919890137,-0.21234454871442754,0.29596398870832363
1658789523734665,0.9213397421225302,-0.17438010223544653,0.29755092698558006
1658789523750652,0.8649423971923396,-0.08282597085526833,0.29803921568627434
1658789523766639,0.8504158083466846,-0.03167772945754166,0.2932784008545051
1658789523782627,0.8612802319371324,-0.024597543297474544,0.22955672541390104
1658789523798614,0.8257572289616233,0.023376821545738835,0.18512245365072122
1658789523814602,0.8053711757076369,0.1255512321660186,0.130556191348135
1658789523830589,0.7974364843213548,0.22333104448004892,0.1747463187609677
1658789523846576,0.7400625619897765,0.33539330128938705,0.21515220874341967
1658789523862548,0.7044174868390938,0.3523613336385134,0.2592202639810788
1658789523878536,0.7586175326161593,0.2728923476005187,0.20758373388265827
1658789523894523,0.8145265888456548,0.31561760891126855,0.15277332722972492
1658789523910511,0.7152819104295416,0.5526817730983442,0.19537651636530118
1658789523926498,0.5989471274891276,0.7406729228656443,0.26141756313420306
1658789523942485,0.6425268940260933,0.7094224460212102,0.24420538643472955
1658789523958473,0.7758297093156328,0.5156939040207522,0.1520408941786835
1658789523974460,0.7273670557717251,0.4721141374837874,0.09027237354085571
1658789523990448,0.5165484092469672,0.689280537117571,0.08392462043183002
1658789524006435,0.38068207827878275,0.948439765011063,0.10370031280994851
1658789524022422,0.5314412146181429,0.8919203479056996,0.03558403906309593
1658789524038410,0.7747310597390706,0.6890363927672238,-0.059754329747462975
1658789524054397,0.6482642862592511,0.7782711528191042,-0.023498893720912406
1658789524070385,0.31891355764095497,0.9756618600747693,0.16314946211947845
1658789524086372,0.2860761425192644,0.9318379491874573,0.10577553978789922
1658789524102359,0.5508506904707406,0.8323491264209961,-0.04864576180666802
1658789524118347,0.5821011673151748,0.8421149004348818,-0.026306553749904538
1658789524134334,0.2860761425192644,0.9682154573891815,0.08514534218356573
1658789524150322,0.15423819333180777,1.157793545433738,0.1401998931868471
1658789524166309,0.2752117189288166,1.105180437933928,-0.006286717021438903
1658789524182312,0.4165712977798126,0.9799343862058443,-0.09112687876707115
1658789524198299,0.2973067826352329,1.0204623483634698,-0.03680476081483164
1658789524214286,0.14923323414969136,1.0924849317158767,0.02276646066987098
1658789524230274,0.18634317540245693,1.0467078660257876,0.013488975356679589
1658789524246261,0.2578774700541695,0.914015411612116,-0.04876783398184159
1658789524262249,0.21393148699168396,0.8972915236133368,-0.051819638361180864
1658789524278236,0.09466697184710426,1.081864652475776,0.036438544289310926
1658789524294223,7.934691386282111E-4,1.2001525902189671,0.09015030136568214
1658789524310211,0.09076066224155,1.1861142900740065,0.032410162508583085
1658789524326198,0.21844815747310609,1.0805218585488667,-0.04376287479972518
1658789524342186,0.12628366521706003,1.0768596932936596,0.015442130159456724
1658789524358173,-0.010437170977340315,1.1356984817273217,0.13629358358129284
1658789524374160,-0.04083314259555948,1.1792782482642865,0.12262149996185201
1658789524390148,-0.011413748378728883,1.2250553139543756,0.09076066224155
1658789524406135,-0.00982681010147246,1.2845044632639047,0.10687418936446136
1658789524422123,-0.019714656290531707,1.3413900968947887,0.15020981155107993
1658789524438110,-0.010315098802166744,1.2982986190585182,0.1465476462958728
1658789524454097,-0.009948882276646032,1.210406652933547,0.09417868314640998
1658789524470085,-0.020569161516746703,1.2251773861295492,0.09271381704432713
1658789524486072,-0.020813305867093845,1.318806744487678,0.09881742580300568
1658789524502044,-0.02545204852368954,1.37117570763714,0.06585793850614152
1658789524518032,0.00970473792629889,1.3064774547951474,0.06671244373235652
1658789524534019,0.027527275501640247,1.1858701457236593,0.08038452735179646
1658789524550006,-0.007751583123521755,1.2216372930495156,0.10235751888303923
1658789524565994,-0.05023270008392444,1.2669260700389104,0.15069810025177421
1658789524581981,-0.04376287479972518,1.3029373617151139,0.1532616159304192
1658789524597969,0.00970473792629889,1.2414129854276341,0.13287556267643286
1658789524613956,0.024963759822995257,1.2068665598535135,0.15643549248493205
1658789524629943,0.012024109254596738,1.174883649958038,0.18878461890592835
1658789524645931,0.04107728694590662,1.1580376897840852,0.15167467765316278
1658789524661918,0.10138094148165067,1.168902113374533,0.11834897383077703
1658789524677906,0.1050431067368578,1.1557183184557873,0.1494773785000385
1658789524693893,0.06573586633096795,1.1367971313038838,0.20733958953231113
1658789524709880,0.10016021972991496,1.106645304036011,0.1919584954604412
1658789524725868,0.18170443274586123,1.1208056763561451,0.16864271000228914
1658789524741855,0.21637293049515538,1.0763714045929653,0.17584496833752983
1658789524757843,0.20062561989776473,1.0074006256198977,0.2095368886854354
1658789524773830,0.243228809033341,0.9300068665598538,0.17438010223544698
1658789524789817,0.3410086213473713,0.9031509880216682,0.11151293202105705
1658789524805805,0.39911497672999197,0.8772716868848711,0.06878767071030722
1658789524821807,0.4043640802624555,0.9267109178301673,0.1050431067368578
1658789524837795,0.3851987487602049,0.8568856336308839,0.14715800717174066
1658789524853782,0.4447699702449075,0.7287098496986344,0.13824673838406998
1658789524869770,0.5380331120775157,0.6596169985503932,0.07464713511863863
1658789524885757,0.5524376287479971,0.6518043793392847,0.07135118638895221
1658789524901744,0.5640344853894863,0.5519493400473028,0.10724040588998207
1658789524917732,0.5736781872281984,0.5467002365148392,0.10186923018234495
1658789524933719,0.5912565804531926,0.5557335774776835,0.168398565651942
1658789524949707,0.6842755779354546,0.5244831006332493,0.1780422674906541
1658789524965694,0.7619134813458457,0.5434042877851528,0.18194857709620837
1658789524981681,0.6641336690318154,0.5465781643396657,0.2594644083314259
1658789524997669,0.6017547875181197,0.5082475013351644,0.31183337148088786
1658789525013656,0.7049057755397881,0.41559472037842404,0.2255283436331732
1658789525029644,0.8495613031204696,0.20257877470054186,0.15521477073319634
1658789525045631,0.8684824902723731,0.09234760051880642,0.18573281452658907
1658789525061618,0.7707026779583428,0.18109407186999338,0.25897611963073164
1658789525077606,0.7027084763866638,0.2973067826352329,0.24921034561684596
1658789525093593,0.8349126420996411,0.18780804150453978,0.16314946211947845
1658789525109581,0.9875028610666057,0.024719615472648115,0.16351567864499916
1658789525125568,0.9886015106431678,0.0642710002288851,0.23504997329671173
1658789525141540,0.906324864576181,0.13067826352330858,0.2649576562142366
1658789525157528,0.9243915465018695,0.06353856717784367,0.24493781948577098
1658789525173515,0.9167009994659345,0.04083314259555948,0.24701304646372169
1658789525189502,0.8903334096284432,0.0928358892195007,0.2485999847409781
1658789525205490,0.9522240024414437,0.08905165178912,0.24286259250782027
1658789525221477,1.033768215457389,0.011291676203555312,0.23004501411459533
1658789525237465,1.0637979705500875,-0.09759670405127041,0.21612878614480824
1658789525253452,1.0342565041580833,-0.09039444571602973,0.26153963530937663
1658789525269439,0.8979018844892046,0.02386511024643312,0.29962615396353076
1658789525285427,0.7833981841763942,-0.02398718242160669,0.28827344167238866
1658789525301414,0.7487296864271,-0.25897611963073164,0.32990005340657635
1658789525317402,0.8538338292515446,-0.43549248493171566,0.3964293888761734
1658789525333389,0.9875028610666057,-0.42890058747234283,0.38532082093537845
1658789525349376,1.033768215457389,-0.29889372091248934,0.2927901121538108
1658789525365364,0.9909208819714657,-0.1485008010986495,0.25384908827344166
1658789525381351,0.9070572976272224,-0.058411535820553695,0.25690089265278093
1658789525397338,0.905470359349966,-0.06182955672541368,0.27948424505989156
1658789525413326,0.9306172274357216,-0.15082017242694734,0.3015793087663079
1658789525429313,0.9512474250400551,-0.23114366369115746,0.3327077134355685
1658789525445301,0.9438010223544673,-0.22955672541390104,0.3661554894331269
1658789525461303,0.9170672159914552,-0.2103913939116504,0.3591973754482334
1658789525477291,0.914015411612116,-0.16559090562294942,0.32281986724650924
1658789525493278,0.9033951323720153,-0.1257953765163653,0.26263828488593877
1658789525509266,0.8444342717631796,-0.027527275501640247,0.23627069504844744
1658789525525253,0.8037842374303805,0.08136110475318503,0.25970855268177306
1658789525541240,0.8472419317921718,0.09222552834363285,0.2536049439230945
1658789525557228,0.8773937590600447,0.09210345616845927,0.2566567483024338
1658789525573215,0.8263675898374911,0.21405355916685753,0.2926680399786372
1658789525589203,0.7691157396810864,0.38532082093537845,0.2848554207675287
1658789525605190,0.7407949950408179,0.4026550698100255,0.269108110170138
1658789525621177,0.8093995574883648,0.3347829404135192,0.19769588769359903
1658789525637165,0.828686961165789,0.3292896925307085,0.1629053177691313
1658789525653152,0.7400625619897765,0.4350041962310218,0.2276035706111239
1658789525669139,0.7356679636835279,0.5215533684290836,0.19037155718318477
1658789525685127,0.8233157854581519,0.5435263599603264,0.10809491111619707
1658789525701114,0.8202639810788126,0.5875944151979855,0.09442282749675712
1658789525717102,0.6687724116884111,0.6392309452964069,0.2150301365682461
1658789525733089,0.6209201190203704,0.6649881742580304,0.23236438544289317
1658789525749076,0.714305333028153,0.6218966964217589,0.1599755855649656
1658789525765064,0.7888914320592049,0.5387655451285571,0.06207370107576082
1658789525781036,0.659128709849699,0.6724345769436182,0.04693675135423803
1658789525797023,0.5158159761959258,0.8302738994430454,0.11029221026932134
1658789525813011,0.5103227283131151,0.869092851148241,0.13006790264744073
1658789525828998,0.6216525520714118,0.711741817349508,0.06561379415579438
1658789525844986,0.6546120393682768,0.5900358587014569,0.013488975356679589
1658789525860973,0.5147173266193636,0.7489738307774472,0.020447089341573133
1658789525876960,0.3709163042648962,0.9995880064087892,0.11078049897001563
1658789525892948,0.40888075074387764,1.002517738612955,0.08490119783321859
1658789525908935,0.5855191882200348,0.8550545510032803,-0.02398718242160669
1658789525924923,0.5576867322804606,0.8275883115892269,-0.023132677195391693
1658789525940910,0.351628900587472,0.9409933623254751,0.061097123674372256
1658789525956897,0.2074616617074847,1.0324254215304798,0.13324177920195357
1658789525972885,0.27411306935225443,0.9682154573891815,0.09759670405126997
1658789525988872,0.427557793545434,0.8354009308003354,0.018005645838101714
1658789526004860,0.45465781643396674,0.799389639124132,-0.0014038300144960658
1658789526020847,0.2952315556572822,0.9881132219424735,0.022400244144350268
1658789526036834,0.11139085984588348,1.149248493171588,0.13006790264744073
1658789526052822,0.13311970702678,1.0833295185778589,0.09271381704432713
1658789526068809,0.2683756771190966,0.9861600671396964,-0.01617456321049815
1658789526084797,0.317204547188525,0.9101091020065617,-0.049378194857709445
1658789526100799,0.19476615548943332,0.9221942473487452,-0.005432211795223907
1658789526116787,0.05926604104676869,1.0641641870756082,0.06439307240405867
1658789526132774,0.042664225223163044,1.1658503089951937,0.03472953383688093
1658789526148761,0.10663004501411422,1.1029831387808038,-0.01861600671396957
1658789526164749,0.11309987029831348,1.0429236285954069,0.022278171969176697
1658789526180736,0.0672007324330508,1.0817425803006024,0.10589761196307279
1658789526196724,-0.024963759822995257,1.140459296559091,0.12664988174258074
1658789526212711,-0.05523765926604085,1.2566720073243305,0.09796292057679068
1658789526228698,-0.019348439765010994,1.2558175020981155,0.038757915617608774
1658789526244686,-0.00323491264209963,1.2779125658045318,0.05767910276951227
1658789526260673,-0.03448538948653379,1.3310139620050352,0.05926604104676869
1658789526276661,-0.04083314259555948,1.3114824139772638,0.03533989471274879
1658789526292648,-0.10125886930647754,1.3096513313496603,0.0327763790341038
1658789526308635,-0.1316548409246967,1.3533531700617987,0.06878767071030722
1658789526324623,-0.0812390325780119,1.3398031586175323,0.05535973144121442
1658789526340610,-0.010681315327687457,1.3064774547951474,6.713969634546402E-4
1658789526356598,0.02252231631952384,1.214679179064622,0.007263294422827471
1658789526372585,-0.05682459754329727,1.2453192950331884,0.004333562218661768
1658789526388572,-0.07635614557106907,1.3467612726024258,0.0036011291676203427
1658789526404560,-0.03436331731136022,1.3140459296559088,0.007019150072480329
1658789526420562,-0.03155565728236809,1.2581368734264133,0.03961242084382377
1658789526436550,-0.05682459754329727,1.2243228809033342,0.06207370107576082
1658789526452537,-0.02667277027542525,1.1942931258106357,0.058533607995727266
1658789526468525,-0.021789883268482413,1.2381170366979477,0.07501335164415934
1658789526484512,-0.007751583123521755,1.2513008316166934,0.09124895094224428
1658789526500499,0.02801556420233453,1.1940489814602886,0.09173723964293856
1658789526516487,0.04571602960250232,1.1759822995346,0.11798275730525631
1658789526532474,0.09808499275196425,1.1167772945754173,0.13275349050125929
1658789526548462,0.16217288471808988,1.0786907759212632,0.09259174486915356
1658789526564449,0.19842832074464045,1.102372777904936,0.059876401922636546
1658789526580436,0.21307698176546896,1.1337453269245445,0.0680552376592658
1658789526596424,0.23089951934081032,1.0531776913099868,0.1176165407797356
1658789526612411,0.2661783779659723,0.910597390707256,0.1561913481345849
1658789526628399,0.31024643320363143,0.8233157854581519,0.13678187228198713
1658789526644386,0.3352712291142135,0.8083009079118026,0.10260166323338638
1658789526660373,0.32196536202029424,0.8686045624475467,0.13043411917296144
1658789526676361,0.31561760891126855,0.794262607766842,0.21429770351720467
1658789526692348,0.4461127641718168,0.6457007705806062,0.18451209277485336
1658789526708336,0.612497138933394,0.5405966277561607,0.12005798428320702
1658789526724323,0.6156710154879068,0.5675745784695199,0.11505302510109061
1658789526740295,0.4616159304188603,0.720286869611658,0.21112382696269183
1658789526756282,0.3767757686732285,0.7366445410849165,0.2850995651178758
1658789526772270,0.5244831006332493,0.5525597009231706,0.24701304646372169
1658789526788257,0.7753414206149385,0.3649347676813912,0.15509269855802277
1658789526804245,0.8766613260090033,0.32281986724650924,0.11541924162661132
1658789526820232,0.7674067292286564,0.37824063477531134,0.21454184786755182
1658789526836219,0.5708705271992063,0.5148393987945372,0.2869306477454794
1658789526852207,0.5808804455634391,0.4900587472343023,0.2880292973220415
1658789526868194,0.8992446784161139,0.30682841229877145,0.1541161211566342
1658789526884182,1.0590371557183182,0.055725947966735134,0.08953994048981428
1658789526900169,0.9033951323720153,-0.04754711223010588,0.16510261692225559
1658789526916156,0.7605706874189364,0.05133134966048658,0.2603189135576409
1658789526932144,0.7936522468909741,0.21271076523994825,0.19464408331425975
1658789526948131,0.8888685435263604,0.18573281452658907,0.13116655222400286
1658789526964119,0.9807888914320593,0.05426108186465228,0.15851071946288275
1658789526980106,0.9679713130388343,0.08783093003738429,0.2645914396887159
1658789526996093,0.9372091248950944,0.08636606393530144,0.2926680399786372
1658789527012081,0.9538109407187001,-0.0015259021896696368,0.2704509040970473
1658789527028068,0.9676050965133136,-0.013977264057373873,0.2976729991607536
1658789527044056,0.97431906614786,0.028381780727855244,0.3313649195086592
1658789527060058,0.9600366216525522,0.039002059967955915,0.31732661936369855
1658789527076046,0.8859388113221947,-0.03472953383688093,0.30255588616769646
1658789527092033,0.8518806744487675,-0.12738231479362172,0.3058518348973829
1658789527108020,0.8764171816586561,-0.1862211032272829,0.3162279697871364
1658789527124008,0.941603723201343,-0.19879453727016116,0.3419851987487599
1658789527139995,0.9397726405737394,-0.21820401312275894,0.34174105439841274
1658789527155983,0.9047379262989246,-0.2840009155413137,0.3435721370260163
1658789527171970,0.8981460288395517,-0.2998702983138779,0.3495536736095213
1658789527187957,0.9234149691004809,-0.2435950255588617,0.34454871442740487
1658789527203945,0.9090104524299996,-0.16620126649881728,0.30841535057602787
1658789527219932,0.9208514534218359,-0.12884718089570457,0.2918135347524222
1658789527235920,0.9221942473487452,-0.15106431677729448,0.32745860990310494
1658789527251907,0.9396505683985659,-0.20782787823300541,0.37030594338902834
1658789527267894,0.9540550850690472,-0.2243076218814375,0.39325551232166056
1658789527283882,0.9626001373311972,-0.21234454871442754,0.3638361181048291
1658789527299869,0.9435568780041201,-0.19806210421911974,0.2999923704890515
1658789527315857,0.8946059357595182,-0.15741206988632017,0.2766765850308994
1658789527331844,0.8390630960555425,-0.05389486533913157,0.3090257114518957
1658789527347831,0.8476081483176925,0.01605249103532458,0.34503700312809915
1658789527363819,0.907179369802396,-0.005310139620050336,0.30304417486839075
1658789527379791,0.9154802777141988,-0.032532234683756656,0.24420538643472955
1658789527395778,0.8709239337758445,-0.015930418860151008,0.2191805905241475
1658789527411766,0.8118410009918362,0.048157473105973736,0.22870222018768604
1658789527427753,0.7678950179293507,0.16729991607537986,0.2566567483024338
1658789527443740,0.7682612344548714,0.26605630579079875,0.2465247577630274
1658789527459728,0.8181887541008619,0.26446936751354233,0.202822919050889
1658789527475715,0.8197756923781183,0.21722743572137038,0.20440985732814543
1658789527491703,0.7534905012588693,0.2276035706111239,0.23956664377813386
1658789527507690,0.6660868238345925,0.3225757228961621,0.25848783093003735
1658789527523677,0.6384985122453655,0.5309529259174486,0.19330128938735047
1658789527539665,0.7191882200350959,0.6128633554589147,0.14813458457312922
1658789527555652,0.7926756694895856,0.561837186236362,0.11663996337834703
1658789527571640,0.7217517357137408,0.6210421911955439,0.13006790264744073
1658789527587627,0.5370565346761271,0.7583733882658121,0.19757381551842546
1658789527603614,0.47772945754177165,0.7696040283817807,0.25983062485694663
1658789527619602,0.6735332265201803,0.6010223544670783,0.12323186083771986
1658789527635589,0.7770504310673685,0.495551995117113,0.01373311970702673
1658789527651577,0.5922331578545812,0.6818341344319832,0.012634470130464592
1658789527667564,0.37811856260013776,0.9556420233463037,0.08453498130769788
1658789527683551,0.4052185854886705,0.9806668192568857,0.02923628595407024
1658789527699554,0.5353475242236971,0.871656366826886,-0.028503852903028815
1658789527715541,0.4633249408712903,0.8316166933699547,-0.018127718013275285
1658789527731529,0.3053635461966886,0.97602807660029,0.04376287479972518
1658789527747516,0.31561760891126855,1.0661173418783854,0.03411917296101308
1658789527763504,0.48395513847562377,1.0203402761882963,-0.10870527199206537
1658789527779491,0.4812695506218052,0.913160906385901,-0.09478904402227828
1658789527795478,0.27069504844739445,0.9042496375982303,-0.012024109254596738
1658789527811466,0.08270389868009431,1.1027389944304566,0.05511558709086728
1658789527827453,0.1272602426184486,1.1693904020752273,-0.031189440756847375
1658789527843441,0.3062180514229036,1.0421911955443655,-0.1380025940337224
1658789527859428,0.34845502403295914,0.8896009765774018,-0.15082017242694734
1658789527875415,0.23175402456702532,0.8532234683756768,-0.040100709544518054
1658789527891403,0.0365606164644845,0.9495384145876251,0.044007019150072324
1658789527907390,-0.049256122682535874,1.0379186694132905,0.021057450217440987
1658789527923378,0.05548180361638799,1.0191195544365605,-0.041443503471427334
1658789527939365,0.07196154726482007,0.978591592278935,-0.08307011520561547
1658789527955352,-0.03717097734035235,1.1236133363851373,0.01226825360494388
1658789527971340,-0.06915388723582838,1.2209048599984742,0.04522774090180803
1658789527987327,-0.06146334019989297,1.2034485389486536,-0.040344853894865196
1658789528003315,-0.07940794995040834,1.1897764553292136,-0.04766918440527945
1658789528019287,-0.059876401922636546,1.2282291905088885,-0.02410925459678026
1658789528035274,-0.04864576180666802,1.21528953994049,-0.012512397955291021
1658789528051262,-0.08978408484016187,1.2068665598535135,-0.057312886243991557
1658789528067249,-0.10992599374380108,1.2796215762569618,-0.05609216449225585
1658789528083236,-0.126161593041886,1.4099946593423365,-0.0018921187151903496
1658789528099224,-0.13910124361028453,1.446860456244755,0.03985656519417091
1658789528115211,-0.15008773937590592,1.4364843213550014,0.015564202334630295
1658789528131199,-0.127016098268101,1.3821622034027623,0.027161058976119534
1658789528147186,-0.11383230334935535,1.3055008773937589,0.03143358510719452
1658789528163173,-0.10565346761272609,1.3383382925154494,-0.010315098802166744
1658789528179161,-0.06976424811169624,1.3805752651255059,-0.06878767071030767
1658789528195148,-0.06012054627298369,1.281818875410086,-0.04986648355840373
1658789528211135,-0.10846112764171822,1.19649042496376,-0.021179522392614558
1658789528227123,-0.15777828641184088,1.200762951094835,0.022034027618829555
1658789528243110,-0.1430075532158388,1.261676966506447,0.019836728465705278
1658789528259098,-0.10418860151064324,1.2838941023880368,0.012512397955291021
1658789528275085,-0.07464713511863907,1.2845044632639047,0.017151140611886717
1658789528291072,-0.013366903181506018,1.2544747081712062,0.04840161745632088
1658789528307060,0.04449530785076661,1.1585259784847795,0.05780117494468584
1658789528323047,0.03961242084382377,1.1158007171740287,0.07025253681239008
1658789528339050,0.015442130159456724,1.1221484702830544,0.07879758907454004
1658789528355037,0.014709697108415298,1.1703669794766158,0.10455481803616351
1658789528371025,0.0785534447241929,1.1684138246738387,0.08392462043183002
1658789528387012,0.1852445258258948,1.0774700541695275,0.05926604104676869
1658789528403000,0.2527504386968795,0.9679713130388343,0.06390478370336439
1658789528418987,0.19134813458457334,0.943312733653773,0.10675211718928779
1658789528434974,0.1558251316090642,0.9179217212176702,0.10382238498512208
1658789528450962,0.23089951934081032,0.8964370183871218,0.07757686732280433
1658789528466949,0.3728694590676733,0.7842526894026092,0.038879987792782345
1658789528482936,0.4455024032959489,0.6966048676279852,0.036194399938963784
1658789528498924,0.47943846799420164,0.6177462424658575,0.07733272297245719
1658789528514911,0.48651865415426876,0.6354467078660262,0.09942778667887353
1658789528530899,0.45343709468223103,0.6857404440375374,0.13080033569848215
1658789528546886,0.430975814450294,0.6848859388113224,0.17730983443961268
1658789528562873,0.5193560692759593,0.6041962310215911,0.21698329137102323
1658789528578861,0.7101548790722516,0.41010147249561335,0.1696192874036777
1658789528594848,0.8240482185091933,0.3609063859006634,0.1415426871137564
1658789528610836,0.7145494773785002,0.4892042420080873,0.22369726100556964
1658789528626823,0.5969939726863505,0.561837186236362,0.3041428244449529
1658789528642810,0.5768520637827113,0.52826733806363,0.30304417486839075
1658789528658813,0.6563210498207068,0.27399099717708086,0.28827344167238866
1658789528674800,0.8253910124361026,0.15191882200350992,0.21820401312275894
1658789528690788,0.9505149919890137,0.13336385137712714,0.16351567864499916
1658789528706775,0.9420920119020373,0.10955977721827992,0.2263828488593882
1658789528722763,0.8137941557946133,0.11566338597695847,0.27826352330815585
1658789528738750,0.7395742732890822,0.18744182497901907,0.29169146257724865
1658789528754737,0.7847409781033035,0.26825360494392303,0.22284275577935464
1658789528770725,0.8775158312352183,0.21441977569237824,0.20257877470054186
1658789528786712,0.9999542229343099,0.042908369573510186,0.2153963530937668
1658789528802700,1.0307164110780498,-0.09320210574502186,0.2251621271076525
1658789528818687,0.9729762722209507,-0.0499885557335773,0.27911802853437084
1658789528834674,0.8903334096284432,0.11639581902799989,0.31989013504234354
1658789528850662,0.9027847714961474,0.15216296635385707,0.28998245212481866
1658789528866649,0.9771267261768521,-0.008606088349736751,0.2570229648279545
1658789528882637,0.9846952010376135,-0.130434119172961,0.2558022430762188
1658789528898624,1.0125276569771877,-0.1576562142366673,0.2830243381399251
1658789528914611,1.0210727092393377,-0.07293812466620908,0.29413290608072007
1658789528930599,0.9660181582360572,-0.0036011291676203427,0.28583199816891725
1658789528946586,0.899488822766461,0.011291676203555312,0.2747234302281223
1658789528962574,0.8411383230334932,-0.045349813076981604,0.29413290608072007
1658789528978546,0.8552986953536275,-0.1409323262378881,0.35223926146333984
1658789528994533,0.8971694514381632,-0.24493781948577098,0.37103837644006976
1658789529010521,0.9483176928358894,-0.3154955367360954,0.3591973754482334
1658789529026508,0.9590600442511636,-0.3023117418173493,0.32953383688105564
1658789529042495,0.9411154345006487,-0.22540627145799963,0.2986495765621422
1658789529058483,0.936476691844053,-0.12799267566948958,0.26813153276874946
1658789529074470,0.9315938048371102,-0.07196154726482051,0.25055313954375524
1658789529090458,0.9301289387350273,-0.0800183108262762,0.2670328831921873
1658789529106445,0.9282978561074238,-0.13385214007782098,0.31305409323262356
1658789529122432,0.9478294041351951,-0.18097199969481936,0.35004196231021556
1658789529138420,0.9514915693904022,-0.15326161593041876,0.34369420920118987
1658789529154407,0.9434348058289466,-0.12140077821011674,0.3012130922407872
1658789529170395,0.9212176699473567,-0.08429083695735118,0.2738689250019073
1658789529186382,0.8974135957885103,-0.04132143129625376,0.24872205691615168
1658789529202369,0.881300068665599,-0.018005645838101714,0.24249637598229956
1658789529218357,0.8827649347676818,-0.005554283970397478,0.23797970550087744
1658789529234344,0.8604257267109174,0.05487144274052014,0.21271076523994825
1658789529250332,0.856275272755016,0.10858319981689135,0.2318760967421989
1658789529266319,0.8563973449301896,0.1721828030823227,0.2427405203326467
1658789529282306,0.8343022812237733,0.21844815747310609,0.2695963988708323
1658789529298278,0.8246585793850612,0.22919050888838033,0.24298466468299385
1658789529314266,0.826977950713359,0.2116121156633861,0.21490806439307253
1658789529330253,0.8368657969024182,0.25690089265278093,0.18194857709620837
1658789529346241,0.8146486610208283,0.37946135652704704,0.1625391012436106
1658789529362228,0.7636224917982757,0.46723125047684455,0.1351949340047307
1658789529378215,0.7019760433356224,0.47272449835965524,0.1785305561913484
1658789529394203,0.6542458228427561,0.5579308766308078,0.20929274433508827
1658789529410190,0.6629129472800797,0.679880979629206,0.16852063782711557
1658789529426178,0.7442130159456779,0.6627908751049061,0.15680170901045276
1658789529442165,0.8040283817807277,0.5349813076981764,0.12469672693980272
1658789529458152,0.6673075455863282,0.6027313649195083,0.18048371099412552
1658789529474140,0.5460898756389714,0.7105210955977723,0.2162508583199818
1658789529490127,0.591134508278019,0.8277103837644004,0.130556191348135
1658789529506115,0.7056382085908295,0.8323491264209961,0.03424124513618665
1658789529522102,0.618478675516899,0.7328603036545358,0.05804531929503298
1658789529538089,0.4406195162890061,0.7999999999999998,0.11163500419623062
1658789529554077,0.46088349736781886,0.8765392538338297,0.06195162890058725
1658789529570064,0.6685282673380639,0.8488288700694282,-0.08172732127870619
1658789529586052,0.672190432593271,0.797680628671702,-0.10931563286793322
1658789529602039,0.4174258030060276,0.9081559472037846,0.039124132143129486
1658789529618042,0.19879453727016116,1.017288471808957,0.14837872892347637
1658789529634029,0.2948653391317615,0.9661402304112308,0.09246967269397999
1658789529650016,0.5432822156099792,0.8452887769893946,-0.00457770656900891
1658789529666004,0.5329060807202257,0.8521248187991146,-0.011535820553902454
1658789529681991,0.32196536202029424,0.9926298924238957,0.07537956816968006
1658789529697979,0.19208056763561476,1.0417029068436712,0.14837872892347637
1658789529713966,0.25006485084306096,1.0020294499122606,0.07806515602349862
1658789529729953,0.34796673533226485,0.9488059815365837,-0.0025024795910582043
1658789529745941,0.33502708476386633,0.9738307774471657,-0.00836194399938961
1658789529761928,0.1713282978561077,1.0945601586938274,0.14032196536202068
1658789529777916,0.04339665827420447,1.1297169451438167,0.18341344319829123
1658789529793903,0.16791027695124772,1.0961470969710838,0.021911955443655984
1658789529809890,0.31635004196231,0.9833524071107043,-0.0879530022125583
1658789529825878,0.2797283894102387,0.9654077973601893,-0.0850232700083926
1658789529841865,0.17022964827954556,1.0263218127718012,-0.0014038300144960658
1658789529857853,0.07965209430075504,1.0603799496452275,0.007019150072480329
1658789529873840,0.03790341039139378,1.107743953612573,0.007751583123521755
1658789529889827,0.06158541237506654,1.1088426031891352,0.015808346684977437
1658789529905815,0.12274357213702558,1.1143358510719459,0.010559243152513886
1658789529921802,0.11078049897001563,1.0897993438620581,0.04071107042038591
1658789529937774,0.00457770656900891,1.1139696345464252,0.0852674143587393
1658789529953762,-0.08075074387731762,1.2054016937514307,0.1439841306172278
1658789529969749,-0.04632639047837017,1.248249027237354,0.10894941634241206
1658789529985736,0.09918364232852639,1.2421454184786755,0.012024109254596738
1658789530001724,0.14386205844205424,1.060257877470054,-0.030090791180285237
1658789530017711,0.01361104753185316,1.045731288624399,3.0518043793392735E-4
1658789530033699,-0.10382238498512253,1.1762264438849472,0.05792324711985941
1658789530049686,-0.10199130235751896,1.249713893339437,0.0386358434424352
1658789530065673,0.0018921187151903496,1.2184634164950028,0.03424124513618665
1658789530081661,0.0289921416037231,1.1454642557412074,0.0739147020675972
1658789530097648,0.006775005722133187,1.1565728236820023,0.11920347905699202
1658789530113636,-0.04986648355840373,1.210406652933547,0.10846112764171778
1658789530129623,-0.07135118638895266,1.2829175249866482,0.08807507438773143
1658789530145610,-0.032410162508583085,1.221271076523995,0.07452506294346506
1658789530161598,-0.010437170977340315,1.1775692378118565,0.06207370107576082
1658789530177585,-0.008850232700083893,1.1750057221332115,0.07891966124971361
1658789530193573,0.0014038300144960658,1.1604791332875566,0.08099488822766432
1658789530209560,0.016784924086366004,1.141557946135653,0.07904173342488718
1658789530225547,0.01605249103532458,1.104325932707713,0.10064850843060924
1658789530241535,0.010070954451819603,1.1021286335545888,0.12164492256046344
1658789530257537,0.05999847409781012,1.1297169451438167,0.07806515602349862
1658789530273525,0.14349584191653353,1.1437552452887774,0.04876783398184159
1658789530289512,0.15423819333180777,1.134477759975586,0.07830930037384576
1658789530305500,0.09246967269397999,1.1305714503700317,0.12005798428320702
1658789530321487,0.07428091859311792,1.1177538719768059,0.1419089036392771
1658789530337474,0.14886701762417065,1.1121385519188216,0.11517509727626418
1658789530353462,0.23968871595330743,1.0425574120698862,0.10968184939345349
1658789530369449,0.25299458304722666,1.0209506370641641,0.12774853131914288
1658789530385437,0.23614862287327387,1.0419470511940183,0.08953994048981428
1658789530401424,0.27228198672465087,1.0817425803006024,0.07208361943999364
1658789530417411,0.30060273136491933,0.9961699855039292,0.0928358892195007
1658789530433399,0.34332799267566916,0.9298847943846802,0.09588769359883997
1658789530449386,0.4098573281452662,0.8772716868848711,0.08465705348287145
1658789530465374,0.42682536049439257,0.8527351796749825,0.07721065079728362
1658789530481361,0.44965285725185034,0.8111085679407948,0.07428091859311792
1658789530497348,0.4339055466544597,0.8163576714732583,0.08953994048981428
1658789530513336,0.41266498817425834,0.8715342946517124,0.12274357213702558
1658789530529323,0.4951857785915923,0.7802243076218813,0.13873502708476426
1658789530545311,0.637766079194324,0.6706034943160146,0.09466697184710426
1658789530561298,0.6370336461432826,0.6643778133821625,0.09112687876707071
