Timestamp (microseconds),Accel X (g),Accel Y (g),Accel Z (g)
1658789509164276,0.13275349050125929,0.9992217898832685,-0.06427100022888554
1658789509180276,0.13336385137712714,0.96577401388571,-0.06549172198062125
1658789509196275,0.14703593499656709,0.9494163424124515,-0.04351873044937804
1658789509212275,0.13800259403372284,0.9575951781490808,-0.03582818341344307
1658789509228275,0.13092240787365572,1.0020294499122606,-0.048157473105973736
1658789509244275,0.1281147478446636,0.9842069123369193,-0.0575570305943387
1658789509260275,0.1423971923399714,0.9779812314030671,-0.05645838101777656
1658789509276274,0.15008773937590636,0.9907988097962921,-0.04852368963149445
1658789509292274,0.1423971923399714,0.980300602731365,-0.0424200808728159
1658789509308274,0.133974212252995,0.9759060044251164,-0.04315251392385733
1658789509324274,0.13873502708476426,0.9591821164263372,-0.057312886243991557
1658789509340273,0.15887693598840347,0.9912870984969864,-0.05242999923704872
1658789509356273,0.14703593499656709,1.000198367284657,-0.054505226214999425
1658789509372273,0.14435034714274853,0.9788357366292821,-0.04742504005493231
1658789509388273,0.13360799572747428,0.9617456321049822,-0.05242999923704872
1658789509404273,0.14410620279240138,0.9740749217975129,-0.04437323567559304
1658789509420272,0.14874494544899708,0.9876249332417792,-0.036316472114137355
1658789509436272,0.13580529488059856,1.0114290074006256,-0.04852368963149445
1658789509452272,0.12872510872053144,0.9644312199588008,-0.05633630884260299
1658789509468272,0.13543907835507785,0.9749294270237279,-0.053406576638437286
1658789509484283,0.14630350194552566,1.0125276569771877,-0.06036469062333083
1658789509500283,0.1477683680476085,1.0153353170061798,-0.04742504005493231
1658789509516283,0.12970168612192,0.9654077973601893,-0.04351873044937804
1658789509532282,0.133974212252995,0.9551537346456094,-0.03826962691691449
1658789509548282,0.1343404287785157,0.9989776455329213,-0.047913328755626594
1658789509564282,0.1310444800488293,1.0233920805676355,-0.05609216449225585
1658789509580282,0.13531700617990428,0.9921416037232014,-0.050720988784618726
1658789509596282,0.13177691309987072,0.96577401388571,-0.050720988784618726
1658789509612281,0.133974212252995,0.9730983443961243,-0.03399710078583951
1658789509628281,0.13360799572747428,0.9967803463797971,-0.03790341039139378
1658789509644281,0.13665980010681356,1.0091096360723277,-0.041687647821774476
1658789509660281,0.13287556267643286,0.9983672846570535,-0.04510566872663446
1658789509676281,0.13580529488059856,0.9860379949645228,-0.03338673990997165
1658789509692280,0.13067826352330858,0.9856717784390021,-0.032532234683756656
1658789509708280,0.11944762340733917,1.0074006256198977,-0.037537193865873064
1658789509724280,0.12384222171358772,0.9934843976501107,-0.03973449301899734
1658789509740280,0.12884718089570502,0.9883573662928207,-0.04486152437628732
1658789509756280,0.14178683146410354,0.9926298924238957,-0.039124132143129486
1658789509772279,0.13214312962539143,0.9876249332417792,-0.03704890516517878
1658789509788279,0.13128862439917643,1.0067902647440299,-0.04632639047837017
1658789509804260,0.13031204699778787,0.9975127794308385,-0.05804531929503298
1658789509820260,0.1427634088654921,0.9947051194018464,-0.04901197833218873
1658789509836259,0.13849088273441712,0.9887235828183414,-0.04254215304798947
1658789509852259,0.123476005188067,0.9818875410086214,-0.04193179217212162
1658789509868259,0.11786068513008274,0.9678492408636608,-0.039002059967955915
1658789509884259,0.12921339742122573,0.987136644541085,-0.04718089570458517
1658789509900259,0.14410620279240138,1.0231479362172884,-0.05535973144121442
1658789509916258,0.14044403753719426,1.0039826047150378,-0.050476844434271584
1658789509932258,0.12603952086671288,0.9680933852140079,-0.045471885252155175
1658789509948258,0.13214312962539143,0.973464560921645,-0.03533989471274879
1658789509964258,0.13373006790264785,0.9939726863508049,-0.04046692607003877
1658789509980258,0.13275349050125929,1.002517738612955,-0.04473945220111375
1658789509996257,0.12237735561150487,0.9627222095063708,-0.04632639047837017
1658789510012257,0.11859311818112417,0.9523460746166172,-0.04510566872663446
1658789510028257,0.13678187228198713,0.9939726863508049,-0.04095521477073305
1658789510044257,0.12567330434119217,1.0170443274586098,-0.037537193865873064
1658789510060257,0.1381246662088964,1.0026398107881285,-0.032410162508583085
1658789510076256,0.12957961394674644,0.97944609750515,-0.04058899824521234
1658789510092256,0.13287556267643286,0.9698023956664379,-0.03399710078583951
1658789510108256,0.1259174486915393,1.0060578316929885,-0.040100709544518054
1658789510124237,0.12335393301289344,1.0171663996337834,-0.05218585488670158
1658789510140236,0.12994583047226715,0.9953154802777142,-0.060852979324025114
1658789510156236,0.13971160448615283,0.982009613183795,-0.04693675135423803
1658789510172236,0.13617151140611927,0.9866483558403907,-0.03399710078583951
1658789510188236,0.12262149996185201,1.0037384603646906,-0.04730296787975874
1658789510204236,0.1267719539177543,0.9982452124818799,-0.05767910276951227
1658789510220235,0.1351949340047307,0.978591592278935,-0.05499351491569371
1658789510236235,0.14032196536202068,1.0076447699702449,-0.05157549401083372
1658789510252235,0.13458457312886285,0.9978789959563592,-0.03961242084382377
1658789510268235,0.1222552834363313,0.9704127565423057,-0.04058899824521234
1658789510284235,0.1231097886625463,0.9623559929808501,-0.03802548256656735
1658789510300234,0.13006790264744073,0.9959258411535821,-0.0424200808728159
1658789510316234,0.13751430533302855,1.0128938735027084,-0.04229800869764233
1658789510332234,0.13507286182955713,0.9699244678416115,-0.037781338216220206
1658789510348234,0.12164492256046344,0.9496604867627987,-0.03350881208514522
1658789510364234,0.11102464332036277,0.9867704280155642,-0.030090791180285237
1658789510380233,0.13238727397573857,1.0188754100862134,-0.038757915617608774
1658789510396233,0.1410543984130621,0.9998321507591363,-0.03973449301899734
1658789510412233,0.13470664530403642,0.96406500343328,-0.028503852903028815
1658789510428233,0.1251850156404979,0.9918974593728542,-0.03033493553063238
1658789510444244,0.11651789120317346,1.000808728160525,-0.03326466773479808
1658789510460244,0.11822690165560346,0.9766384374761579,-0.045471885252155175
1658789510476244,0.1343404287785157,0.9900663767452507,-0.042664225223163044
1658789510492243,0.13202105745021786,1.0075226977950713,-0.03814755474174092
1658789510508243,0.1334859235523007,1.0020294499122606,-0.03302052338445094
1658789510524243,0.12652780956740717,0.9813992523079271,-0.0432745860990309
1658789510540243,0.12494087129014986,0.9755397878995957,-0.03936827649347663
1658789510556243,0.13202105745021786,1.0128938735027084,-0.0394903486686502
1658789510572242,0.13385214007782142,1.018997482261387,-0.03595025558861664
1658789510588242,0.13141069657435,1.0074006256198977,-0.03582818341344307
1658789510604242,0.1259174486915393,0.970046540016785,-0.036438544289310926
1658789510620242,0.12298771648737272,0.9639429312581065,-0.03680476081483164
1658789510636242,0.11810482948042988,0.9868925001907378,-0.03790341039139378
1658789510652241,0.12530708781567146,0.9953154802777142,-0.03729304951552592
1658789510668241,0.13214312962539143,0.9993438620584421,-0.037781338216220206
1658789510684241,0.12542915999084503,0.9723659113450829,-0.02923628595407024
1658789510700241,0.12628366521706003,0.98115510795758,-0.025818265049210254
1658789510716241,0.12066834515907487,0.9939726863508049,-0.021667811093308842
1658789510732240,0.12372014953841415,1.0004425116350042,-0.026062409399557396
1658789510748240,0.11810482948042988,0.9827420462348364,-0.03216601815823594
1658789510764221,0.13067826352330858,0.9807888914320593,-0.032288090333409514
1658789510780221,0.12970168612192,0.9883573662928207,-0.03289845120927737
1658789510796220,0.1255512321660186,0.9918974593728542,-0.026306553749904538
1658789510812220,0.11834897383077703,0.9804226749065386,-0.023620965896085977
1658789510828220,0.12042420080872773,0.9771267261768521,-0.03546196688792236
1658789510844220,0.13238727397573857,1.0088654917219806,-0.0357061112382695
1658789510860220,0.13995574883649997,1.0291294728007934,-0.030823224231326662
1658789510876219,0.12957961394674644,0.9997100785839628,-0.03045700770580595
1658789510892219,0.12298771648737272,0.970901045243,-0.032288090333409514
1658789510908219,0.12127870603494273,0.9787136644541086,-0.03167772945754166
1658789510924219,0.13482871747921,1.018997482261387,-0.03460746166170736
1658789510940219,0.12188906691081058,1.0088654917219806,-0.03057907988097952
1658789510956218,0.12396429388876129,0.9864042114900435,-0.023376821545738835
1658789510972218,0.11810482948042988,0.9750514991989014,-0.02777141985198739
1658789510988218,0.12799267566949002,1.0015411612115663,-0.02532997634851597
1658789511004218,0.12542915999084503,0.9976348516060121,-0.03204394598306237
1658789511020218,0.1255512321660186,0.9832303349355307,-0.027038986800945963
1658789511036217,0.1176165407797356,0.9715114061188679,-0.026062409399557396
1658789511052217,0.12359807736324058,0.9943389028763256,-0.020447089341573133
1658789511068217,0.12176699473563701,1.004470893415732,-0.020447089341573133
1658789511084228,0.1259174486915393,0.9846952010376135,-0.01861600671396957
1658789511100228,0.12005798428320702,0.9744411383230336,-0.02679484245059882
1658789511116228,0.12249942778667844,0.9833524071107043,-0.03216601815823594
1658789511132228,0.12738231479362216,1.0059357595178149,-0.03289845120927737
1658789511148227,0.12274357213702558,1.0003204394598306,-0.025696192874036683
1658789511164227,0.12372014953841415,0.9867704280155642,-0.027405203326466676
1658789511180227,0.12652780956740717,0.9723659113450829,-0.032410162508583085
1658789511196227,0.13043411917296144,0.9986114290074006,-0.027405203326466676
1658789511212226,0.1205462729839013,1.0146028839551384,-0.03704890516517878
1658789511228226,0.12750438696879574,0.9901884489204242,-0.03350881208514522
1658789511244226,0.1222552834363313,0.9533226520180058,-0.032288090333409514
1658789511260226,0.12835889219501073,0.9721217669947357,-0.024841687647821686
1658789511276226,0.12359807736324058,1.0048371099412527,-0.022278171969176697
1658789511292225,0.12481879911497629,1.0028839551384756,-0.026306553749904538
1658789511308225,0.12530708781567146,0.9810330357824064,-0.02532997634851597
1658789511324225,0.12481879911497629,0.9882352941176471,-0.023743038071259548
1658789511340225,0.13238727397573857,1.0084992751964599,-0.023254749370565264
1658789511356225,0.12408636606393486,0.9915312428473335,-0.022034027618829555
1658789511372224,0.1155413138017849,0.9824979018844893,-0.024597543297474544
1658789511388224,0.11920347905699202,0.9923857480735485,-0.03179980163271523
1658789511404235,0.12115663385976916,1.0136263065537499,-0.035095750362401645
1658789511420235,0.12713817044327502,1.001907377737087,-0.023620965896085977
1658789511436235,0.11725032425421489,0.9849393453879607,-0.025085831998168828
1658789511452235,0.12628366521706003,0.9895780880445564,-0.025696192874036683
1658789511468235,0.12249942778667844,0.9992217898832685,-0.02276646066987098
1658789511484234,0.124330510414282,1.0122835126268406,-0.028503852903028815
1658789511500234,0.12396429388876129,0.990554665445945,-0.024597543297474544
1658789511516234,0.12213321126115773,0.9738307774471657,-0.021789883268482413
1658789511532234,0.12066834515907487,0.9947051194018464,-0.016906996261539575
1658789511548234,0.12664988174258074,1.001907377737087,-0.018249790188448856
1658789511564233,0.12701609826810145,1.012161440451667,-0.016906996261539575
1658789511580233,0.11663996337834703,0.982009613183795,-0.014343480582894585
1658789511596233,0.11688410772869418,0.9812771801327536,-0.011413748378728883
1658789511612233,0.1255512321660186,1.0143587396047913,-0.008850232700083893
1658789511628233,0.1272602426184486,0.9990997177080949,-0.01239032578011745
1658789511644232,0.11993591210803345,0.9690699626153965,-0.010681315327687457
1658789511660232,0.11432059205004919,0.9634546425574122,-0.021667811093308842
1658789511676232,0.1176165407797356,0.9980010681315328,-0.0252079041733424
1658789511692232,0.11920347905699202,1.016433966582742,-0.01751735713740743
1658789511708232,0.12152285038528987,0.9992217898832685,-0.013000686655985305
1658789511724212,0.13067826352330858,0.9730983443961243,-0.008728160524910322
1658789511740212,0.1255512321660186,0.9701686121919586,-0.014099336232547444
1658789511756212,0.13067826352330858,0.9824979018844893,-0.014099336232547444
1658789511772212,0.11602960250247918,0.9844510566872664,-0.020569161516746703
1658789511788211,0.11566338597695847,0.9921416037232014,-0.023743038071259548
1658789511804211,0.1205462729839013,0.9906767376211185,-0.02032501716639956
1658789511820211,0.14081025406271497,0.9970244907301442,-0.0017700465400167786
1658789511836211,0.1255512321660186,0.9992217898832685,-0.009460593575951748
1658789511852211,0.12616159304188646,0.9925078202487221,-0.018127718013275285
1658789511868210,0.11871519035629774,0.9831082627603571,-0.027405203326466676
1658789511884210,0.12323186083771986,1.0168001831082627,-0.03424124513618665
1658789511900210,0.12701609826810145,1.003616388189517,-0.0214236667429617
1658789511916210,0.11920347905699202,0.970046540016785,-0.011902037079423167
1658789511932210,0.1264057373922336,0.9855497062638285,-0.009216449225604606
1658789511948209,0.1289692530708786,1.0133821622034027,-0.008850232700083893
1658789511964209,0.1386129549095907,1.0263218127718012,-0.009216449225604606
1658789511980209,0.12872510872053144,1.0017853055619135,-0.013244831006332447
1658789511996209,0.11859311818112417,0.9727321278706036,-0.014709697108415298
1658789512012209,0.1088273441672385,0.9829861905851836,-0.018249790188448856
1658789512028208,0.1222552834363313,1.009597924773022,-0.006897077897306758
1658789512044220,0.11590753032730561,0.9933623254749371,-0.007385366598001042
1658789512060219,0.11798275730525631,0.9680933852140079,-0.011169604028381741
1658789512076219,0.11663996337834703,0.9781033035782407,-0.009338521400778177
1658789512092219,0.12982375829709358,1.0124055848020141,0.005310139620050336
1658789512108219,0.11956969558251274,1.0037384603646906,0.0015259021896696368
1658789512124219,0.11712825207904132,0.9667505912870986,0.0037232013427939137
1658789512140218,0.11908140688181845,0.9612573434042879,0.0037232013427939137
1658789512156218,0.11859311818112417,1.0009308003356985,-0.010070954451819603
1658789512172218,0.13031204699778787,1.0131380178530556,-0.013122758831158876
1658789512188218,0.12835889219501073,0.9868925001907378,-0.002868696116578917
1658789512204218,0.12628366521706003,0.9784695201037614,0.0012817578393224949
1658789512220217,0.11895933470664488,0.9783474479285879,-3.0518043793392735E-4
1658789512236217,0.11773861295490917,0.9875028610666057,-0.007751583123521755
1658789512252217,0.13214312962539143,1.0106965743495842,-0.0015259021896696368
1658789512268217,0.13665980010681356,1.0187533379110398,0.001037613488975353
1658789512284217,0.13373006790264785,0.9829861905851836,-0.003479056992446772
1658789512300216,0.11834897383077703,0.9842069123369193,-0.011169604028381741
1658789512316216,0.1167620355535206,0.9994659342336156,-0.01751735713740743
1658789512332216,0.13531700617990428,1.0144808117799649,-0.0061646448462653325
1658789512348216,0.1276264591439693,1.0041046768902113,0.0014038300144960658
1658789512364196,0.1193255512321656,0.96919203479057,0.005065995269703194
1658789512380196,0.11602960250247918,0.9644312199588008,-0.001159685664148924
1658789512396196,0.12359807736324058,0.9967803463797971,-0.0021362630655374915
1658789512412196,0.1205462729839013,1.0148470283054856,-0.01104753185320817
1658789512428196,0.11712825207904132,0.9832303349355307,-0.0036011291676203427
1658789512444195,0.12188906691081058,0.9622339208056765,-4.272526131074983E-4
1658789512460195,0.12970168612192,1.0052033264667735,0.006652933546959616
1658789512476195,0.12884718089570502,1.0102082856488899,0.007385366598001042
1658789512492195,0.11944762340733917,0.9798123140306707,0.003112840466926059
1658789512508195,0.11322194247348705,0.9673609521629665,-0.003112840466926059
1658789512524194,0.12457465476462914,0.9987335011825742,-0.004699778744182481
1658789512540194,0.12945754177157287,1.0026398107881285,0.0016479743648432077
1658789512556194,0.12005798428320702,0.9815213244831007,3.0518043793392735E-4
1658789512572194,0.11627374685282632,0.9584496833752958,-0.008606088349736751
1658789512588194,0.12018005645838059,0.9826199740596628,-0.012512397955291021
1658789512604193,0.1318989852750443,1.0210727092393377,-0.009582665751125319
1658789512620193,0.1310444800488293,1.0032501716639963,0.00457770656900891
1658789512636193,0.12652780956740717,0.98457312886244,0.0061646448462653325
1658789512652193,0.12152285038528987,0.9859159227893493,-1.831082627603564E-4
1658789512668192,0.13360799572747428,1.0065461203936827,-6.713969634546402E-4
1658789512684204,0.1259174486915393,1.0193636987869077,-0.006652933546959616
1658789512700204,0.1231097886625463,1.0039826047150378,-0.006286717021438903
1658789512716203,0.11480888075074347,0.9744411383230336,-0.009338521400778177
1658789512732203,0.12567330434119217,0.9846952010376135,-0.004943923094529623
1658789512748203,0.13446250095368928,1.0020294499122606,0.002746623941405346
1658789512764203,0.11969176775768631,1.0099641412985427,0.0012817578393224949
1658789512780202,0.11639581902799989,1.0108186465247577,-0.0012817578393224949
1658789512796202,0.12018005645838059,0.9960479133287556,-0.0017700465400167786
1658789512812202,0.12603952086671288,0.9954375524528878,0.007995727473868897
1658789512828202,0.11737239642938846,0.9923857480735485,0.013122758831158876
1658789512844202,0.11212329289692491,0.9861600671396964,0.013977264057373873
1658789512860201,0.1231097886625463,0.9912870984969864,0.005065995269703194
1658789512876201,0.12457465476462914,0.9949492637521935,-0.0021362630655374915
1658789512892201,0.12872510872053144,0.99140917067216,-0.0025024795910582043
1658789512908201,0.11908140688181845,0.9895780880445564,0.005554283970397478
1658789512924201,0.11309987029831348,0.980300602731365,0.004699778744182481
1658789512940200,0.1184710460059506,0.9789578088044557,0.0039673456931410556
1658789512956200,0.12921339742122573,0.9770046540016786,0.004455634393835339
1658789512972200,0.130556191348135,1.0063019760433356,0.0015259021896696368
1658789512988200,0.1289692530708786,1.0166781109330891,-0.007995727473868897
1658789513004181,0.12079041733424845,0.9696803234912643,1.831082627603564E-4
1658789513020180,0.12457465476462914,0.9619897764553293,0.007873655298695326
1658789513036180,0.11810482948042988,0.99140917067216,0.006775005722133187
1658789513052180,0.1251850156404979,0.9990997177080949,0.010803387502861028
1658789513068180,0.12335393301289344,0.9790798809796293,-4.272526131074983E-4
1658789513084180,0.12286564431219915,0.9727321278706036,0.010559243152513886
1658789513100179,0.12445258258945557,0.9815213244831007,0.012634470130464592
1658789513116179,0.12384222171358772,1.0022735942626078,0.011291676203555312
1658789513132179,0.11493095292591704,0.9781033035782407,0.0037232013427939137
1658789513148179,0.11749446860456203,0.9615014877546351,0.0071412222476539
1658789513164178,0.1205462729839013,1.0000762951094835,0.006897077897306758
1658789513180178,0.1281147478446636,1.0209506370641641,0.008117799649042468
1658789513196178,0.12286564431219915,0.9944609750514992,0.010193026626993174
1658789513212178,0.11615167467765275,0.990554665445945,-3.0518043793392735E-4
1658789513228178,0.12799267566949002,1.0144808117799649,0.00579842832074462
1658789513244177,0.12030212863355416,1.0204623483634698,0.005065995269703194
1658789513260177,0.1276264591439693,1.0148470283054856,0.007751583123521755
1658789513276177,0.11749446860456203,0.9890897993438621,0.005554283970397478
1658789513292177,0.11700617990386775,0.9846952010376135,0.002868696116578917
1658789513308177,0.11285572594796633,0.9958037689784085,0.003479056992446772
1658789513324188,0.11517509727626418,1.0139925230792706,1.831082627603564E-4
1658789513340188,0.11859311818112417,1.022415503166247,0.004943923094529623
1658789513356187,0.12335393301289344,1.0023956664377813,0.005554283970397478
1658789513372187,0.11883726253147131,0.9818875410086214,0.015075913633936011
1658789513388187,0.11322194247348705,0.9823758297093157,0.012024109254596738
1658789513404187,0.1079728389410235,0.9926298924238957,3.0518043793392735E-4
1658789513420187,0.11126878767070991,0.9906767376211185,-0.005920500495918191
1658789513436186,0.1284809643701843,1.005325398641947,-0.005065995269703194
1658789513452186,0.12689402609292788,1.0144808117799649,0.008850232700083893
1658789513468186,0.12018005645838059,0.9829861905851836,0.01641870756084529
1658789513484186,0.11395437552452847,0.9694361791409172,0.011291676203555312
1658789513500186,0.11566338597695847,0.9866483558403907,0.005065995269703194
1658789513516185,0.12664988174258074,1.0185091935606927,-0.0037232013427939137
1658789513532185,0.12262149996185201,0.9856717784390021,-0.0012817578393224949
1658789513548185,0.11822690165560346,0.9704127565423057,0.004699778744182481
1658789513564185,0.11102464332036277,0.9875028610666057,0.002868696116578917
1658789513580185,0.12372014953841415,0.9951934081025406,0.009338521400778177
1658789513596184,0.11578545815213204,0.970046540016785,0.007629510948348184
1658789513612184,0.12152285038528987,0.9694361791409172,-6.103608758678547E-5
1658789513628184,0.11102464332036277,0.9793240253299764,-0.007751583123521755
1658789513644165,0.12921339742122573,1.0049591821164263,7.934691386282111E-4
1658789513660164,0.12970168612192,0.9875028610666057,0.016906996261539575
1658789513676164,0.12115663385976916,0.9528343633173115,0.02032501716639956
1658789513692164,0.1222552834363313,0.9817654688334478,0.011413748378728883
1658789513708164,0.12164492256046344,1.0171663996337834,0.008117799649042468
1658789513724164,0.12152285038528987,1.0153353170061798,0.0023804074158846333
1658789513740163,0.11969176775768631,0.9827420462348364,0.0040894178683146265
1658789513756163,0.12176699473563701,0.98115510795758,0.007263294422827471
1658789513772163,0.11602960250247918,0.99140917067216,0.01373311970702673
1658789513788163,0.12103456168459559,1.0105745021744106,0.009460593575951748
1658789513804163,0.11993591210803345,1.015579461356527,-0.0017700465400167786
1658789513820162,0.12127870603494273,1.0088654917219806,-0.009460593575951748
1658789513836162,0.12274357213702558,1.0011749446860456,4.272526131074983E-4
1658789513852162,0.12372014953841415,1.0088654917219806,0.008850232700083893
1658789513868162,0.11615167467765275,1.0148470283054856,0.007995727473868897
1658789513884162,0.11712825207904132,1.0003204394598306,0.008606088349736751
1658789513900161,0.11163500419623062,0.9849393453879607,-0.0040894178683146265
1658789513916161,0.12542915999084503,1.0082551308461127,-6.103608758678547E-5
1658789513932161,0.11517509727626418,1.014724956130312,0.002746623941405346
1658789513948161,0.11956969558251274,1.0005645838101778,0.014099336232547444
1658789513964172,0.10943770504310635,0.973464560921645,0.01104753185320817
1658789513980172,0.11859311818112417,0.966628519111925,0.011291676203555312
1658789513996172,0.11505302510109061,1.0003204394598306,0.007629510948348184
1658789514012171,0.11248950942244562,1.0081330586709392,0.010681315327687457
1658789514028171,0.11212329289692491,0.9712672617685207,0.013366903181506018
1658789514044171,0.11639581902799989,0.9566186007476922,0.013000686655985305
1658789514060171,0.11883726253147131,0.976882581826505,0.013488975356679589
1658789514076171,0.11627374685282632,0.9933623254749371,0.007873655298695326
1658789514092170,0.11798275730525631,0.9867704280155642,0.014221408407721015
1658789514108170,0.12396429388876129,0.9816433966582743,0.014343480582894585
1658789514124170,0.12213321126115773,0.9823758297093157,0.009582665751125319
1658789514140170,0.1184710460059506,0.9853055619134814,0.010437170977340315
1658789514156170,0.11505302510109061,0.98628213931487,0.00457770656900891
1658789514172169,0.1184710460059506,0.9997100785839628,9.15541313801782E-4
1658789514188169,0.12323186083771986,1.0004425116350042,-0.0012817578393224949
1658789514204169,0.1351949340047307,0.9892118715190357,0.004333562218661768
1658789514220169,0.12237735561150487,0.9729762722209507,0.009948882276646032
1658789514236168,0.11126878767070991,0.9799343862058443,0.011902037079423167
1658789514252168,0.11102464332036277,0.9987335011825742,4.272526131074983E-4
1658789514268168,0.11139085984588348,1.0211947814145113,-0.009460593575951748
1658789514284179,0.13653772793163999,1.007034409094377,0.0014038300144960658
1658789514300179,0.12799267566949002,0.9917753871976807,0.0109254596780346
1658789514316179,0.11480888075074347,1.0004425116350042,0.006530861371786045
1658789514332179,0.11371023117418133,1.0094758525978484,-1.831082627603564E-4
1658789514348178,0.12030212863355416,1.0133821622034027,-0.006286717021438903
1658789514364178,0.1251850156404979,1.0199740596627755,-0.005432211795223907
1658789514380178,0.11737239642938846,0.9904325932707714,-0.0020141908903639205
1658789514396178,0.10821698329137064,0.9771267261768521,0.004333562218661768
1658789514412178,0.1100480659189742,0.9962920576791028,0.0021362630655374915
1658789514428177,0.11151293202105705,1.0149691004806591,-0.009460593575951748
1658789514444177,0.11981383993285988,1.0015411612115663,-0.001037613488975353
1658789514460177,0.11017013809414777,0.9737087052719922,0.0020141908903639205
1658789514476177,0.11663996337834703,0.975173571374075,0.01226825360494388
1658789514492177,0.1100480659189742,1.0064240482185092,0.014465552758068156
1658789514508176,0.11663996337834703,1.000808728160525,0.015930418860151008
1658789514524176,0.13031204699778787,0.980300602731365,0.008972304875257464
1658789514540176,0.1264057373922336,0.9955596246280614,0.0023804074158846333
1658789514556176,0.12530708781567146,0.9986114290074006,0.008117799649042468
1658789514572176,0.12298771648737272,1.00337224383917,0.012878614480811734
1658789514588175,0.12262149996185201,0.9843289845120928,0.018371862363622427
1658789514604156,0.1155413138017849,0.9633325703822386,0.013122758831158876
1658789514620156,0.11700617990386775,0.9929961089494164,-0.0022583352407110624
1658789514636156,0.124330510414282,1.0219272144655527,-0.007385366598001042
1658789514652156,0.12420843823910843,1.000808728160525,-1.831082627603564E-4
1658789514668155,0.12323186083771986,0.9829861905851836,0.005310139620050336
1658789514684155,0.11834897383077703,0.9735866330968186,0.007629510948348184
1658789514700155,0.12664988174258074,0.9940947585259785,0.002868696116578917
1658789514716155,0.12018005645838059,0.9947051194018464,-1.831082627603564E-4
1658789514732154,0.11883726253147131,0.9917753871976807,-0.003356984817273201
1658789514748154,0.11517509727626418,0.9776150148775464,-3.0518043793392735E-4
1658789514764154,0.11810482948042988,0.9560082398718244,0.005065995269703194
1658789514780154,0.1193255512321656,0.9978789959563592,0.012024109254596738
1658789514796154,0.12603952086671288,1.0188754100862134,-0.0014038300144960658
1658789514812153,0.1360494392309457,1.003616388189517,0.005432211795223907
1658789514828153,0.13714808880750784,0.9867704280155642,0.0109254596780346
1658789514844153,0.13067826352330858,0.9964141298542764,0.017639429312581
1658789514860153,0.12335393301289344,1.0084992751964599,0.017029068436713146
1658789514876153,0.12042420080872773,1.0038605325398642,0.010437170977340315
1658789514892152,0.1155413138017849,0.9883573662928207,0.001037613488975353
1658789514908152,0.12616159304188646,0.9826199740596628,0.00579842832074462
1658789514924163,0.11895933470664488,0.9865262836652171,0.003479056992446772
1658789514940163,0.11700617990386775,0.9844510566872664,0.011413748378728883
1658789514956163,0.11712825207904132,0.976882581826505,0.013000686655985305
1658789514972163,0.12298771648737272,0.9907988097962921,0.010437170977340315
1658789514988163,0.13153276874952358,1.0012970168612192,0.01104753185320817
1658789515004162,0.1272602426184486,0.9961699855039292,0.011291676203555312
1658789515020162,0.11834897383077703,0.9877470054169528,0.009216449225604606
1658789515036162,0.12872510872053144,0.9853055619134814,0.011169604028381741
1658789515052162,0.12713817044327502,0.982009613183795,0.00836194399938961
1658789515068162,0.123476005188067,0.9892118715190357,-0.0020141908903639205
1658789515084161,0.1264057373922336,0.9989776455329213,-6.713969634546402E-4
1658789515100161,0.12567330434119217,1.0133821622034027,7.934691386282111E-4
1658789515116161,0.1310444800488293,0.9953154802777142,0.008239871824216038
1658789515132161,0.13153276874952358,0.9682154573891815,0.011902037079423167
1658789515148161,0.12030212863355416,0.9883573662928207,0.007263294422827471
1658789515164160,0.12066834515907487,1.0161898222323948,0.005432211795223907
1658789515180160,0.12298771648737272,1.0108186465247577,0.0012817578393224949
1658789515196160,0.13250934615091214,0.9995880064087892,-7.934691386282111E-4
1658789515212160,0.13153276874952358,0.9907988097962921,0.006897077897306758
1658789515228160,0.12481879911497629,0.9915312428473335,0.010070954451819603
1658789515244140,0.10931563286793278,0.9849393453879607,0.013122758831158876
1658789515260140,0.10724040588998207,0.9723659113450829,0.006408789196612474
1658789515276140,0.11602960250247918,0.988845654993515,4.272526131074983E-4
1658789515292140,0.12970168612192,1.0119172961013199,-3.0518043793392735E-4
1658789515308139,0.12957961394674644,0.9969024185549706,0.0040894178683146265
1658789515324139,0.12652780956740717,0.9937285420004578,0.0109254596780346
1658789515340139,0.11895933470664488,0.9978789959563592,0.007629510948348184
1658789515356139,0.12091248950942202,0.9953154802777142,0.013244831006332447
1658789515372139,0.12396429388876129,0.9848172732127871,0.013000686655985305
1658789515388138,0.12445258258945557,0.9899443045700771,0.009460593575951748
1658789515404138,0.11419851987487561,0.9815213244831007,0.007873655298695326
1658789515420138,0.11371023117418133,0.9865262836652171,0.007507438773174613
1658789515436138,0.11700617990386775,0.9868925001907378,-0.0012817578393224949
1658789515452138,0.1301899748226143,0.9966582742046235,-0.0016479743648432077
1658789515468137,0.13446250095368928,0.9943389028763256,0.007263294422827471
1658789515484137,0.12286564431219915,0.9789578088044557,0.014465552758068156
1658789515500137,0.12213321126115773,0.9934843976501107,0.01861600671396957
1658789515516137,0.1176165407797356,1.0026398107881285,0.008728160524910322
1658789515532137,0.12494087129014986,1.0065461203936827,-1.831082627603564E-4
1658789515548136,0.13238727397573857,0.9969024185549706,0.006897077897306758
1658789515564148,0.12066834515907487,0.9824979018844893,0.0071412222476539
1658789515580147,0.12530708781567146,0.9967803463797971,0.009582665751125319
1658789515596147,0.11920347905699202,0.9945830472266728,-0.0015259021896696368
1658789515612147,0.12420843823910843,0.9859159227893493,0.006775005722133187
1658789515628147,0.11944762340733917,0.9784695201037614,0.004943923094529623
1658789515644147,0.12750438696879574,0.9958037689784085,0.006775005722133187
1658789515660146,0.12201113908598415,1.014724956130312,0.005188067444876765
1658789515676146,0.12664988174258074,1.0083772030212863,0.006775005722133187
1658789515692146,0.12799267566949002,0.9878690775921264,0.009582665751125319
1658789515708146,0.12713817044327502,0.9899443045700771,0.004455634393835339
1658789515724146,0.11590753032730561,0.9950713359273671,-0.0014038300144960658
1658789515740145,0.11700617990386775,0.9964141298542764,0.002990768291752488
1658789515756145,0.12213321126115773,0.9861600671396964,0.00836194399938961
1658789515772145,0.123476005188067,0.9882352941176471,0.005432211795223907
1658789515788145,0.12372014953841415,1.003616388189517,0.0022583352407110624
1658789515804144,0.12115663385976916,0.987136644541085,1.831082627603564E-4
1658789515820144,0.12664988174258074,0.9834744792858778,0.004943923094529623
1658789515836144,0.12945754177157287,1.0000762951094835,0.013000686655985305
1658789515852144,0.12249942778667844,0.9889677271686885,0.014587624933241727
1658789515868144,0.12335393301289344,0.9962920576791028,0.0040894178683146265
1658789515884124,0.12298771648737272,0.9882352941176471,0.0016479743648432077
1658789515900124,0.13458457312886285,0.9948271915770199,-0.001159685664148924
1658789515916124,0.12164492256046344,0.9835965514610514,-0.0012817578393224949
1658789515932124,0.11956969558251274,0.9815213244831007,0.002990768291752488
1658789515948124,0.11981383993285988,0.98628213931487,0.0037232013427939137
1658789515964123,0.13507286182955713,1.0009308003356985,0.0012817578393224949
1658789515980123,0.13031204699778787,1.007888914320592,0.002868696116578917
1658789515996123,0.124330510414282,0.9859159227893493,0.0016479743648432077
1658789516012123,0.11786068513008274,0.9638208590829329,0.009460593575951748
1658789516028123,0.12603952086671288,0.9877470054169528,0.007263294422827471
1658789516044122,0.1251850156404979,1.0026398107881285,0.0016479743648432077
1658789516060122,0.12774853131914288,0.9981231403067063,-0.001159685664148924
1658789516076122,0.12701609826810145,0.9738307774471657,-5.493247882810692E-4
1658789516092122,0.12176699473563701,0.9698023956664379,0.007019150072480329
1658789516108121,0.12750438696879574,1.0067902647440299,0.013000686655985305
1658789516124121,0.11871519035629774,0.9976348516060121,0.0060425726710917615
1658789516140121,0.12872510872053144,0.9872587167162585,-0.002746623941405346
1658789516156121,0.1259174486915393,0.9890897993438621,-0.004821850919356052
1658789516172121,0.1318989852750443,1.004226749065385,0.002868696116578917
1658789516188120,0.11725032425421489,0.9976348516060121,-0.0015259021896696368
1658789516204132,0.11505302510109061,0.9844510566872664,0.001159685664148924
1658789516220131,0.11651789120317346,0.9766384374761579,5.493247882810692E-4
1658789516236131,0.13531700617990428,1.0200961318379491,-9.15541313801782E-4
1658789516252131,0.133974212252995,1.0314488441290912,-0.0061646448462653325
1658789516268131,0.1310444800488293,0.9997100785839628,-0.003356984817273201
1658789516284131,0.12469672693980272,0.9724879835202564,0.005065995269703194
1658789516300130,0.12274357213702558,0.9813992523079271,0.005432211795223907
1658789516316130,0.11969176775768631,0.9984893568322271,0.006530861371786045
1658789516332130,0.11749446860456203,0.9954375524528878,-4.272526131074983E-4
1658789516348130,0.11737239642938846,0.9850614175631343,-0.0017700465400167786
1658789516364130,0.12152285038528987,0.9799343862058443,0.002868696116578917
1658789516380129,0.1369039444571607,0.9868925001907378,0.012146181429770309
1658789516396129,0.12689402609292788,0.9983672846570535,0.014343480582894585
1658789516412129,0.12018005645838059,0.9938506141756314,0.007019150072480329
1658789516428129,0.11444266422522276,0.9754177157244222,-0.003356984817273201
1658789516444129,0.12420843823910843,0.9949492637521935,0.0026245517662317752
1658789516460128,0.12237735561150487,1.0026398107881285,0.00457770656900891
1658789516476128,0.12298771648737272,0.9994659342336156,0.006775005722133187
1658789516492128,0.12042420080872773,0.9816433966582743,-0.001037613488975353
1658789516508128,0.13067826352330858,0.9835965514610514,0.0039673456931410556
1658789516524109,0.12628366521706003,1.0020294499122606,-1.831082627603564E-4
1658789516540108,0.12372014953841415,1.002517738612955,0.008239871824216038
1658789516556108,0.11688410772869418,0.9882352941176471,0.007995727473868897
1658789516572108,0.133974212252995,0.9870145723659114,0.010193026626993174
1658789516588108,0.12909132524605216,1.0000762951094835,0.007019150072480329
1658789516604107,0.1251850156404979,0.9969024185549706,0.0017700465400167786
1658789516620107,0.11334401464866062,0.9839627679865721,-0.00323491264209963
1658789516636107,0.1138323033493549,0.9744411383230336,0.005310139620050336
1658789516652107,0.12420843823910843,0.9960479133287556,0.009948882276646032
1658789516668107,0.1259174486915393,1.0059357595178149,0.01104753185320817
1658789516684106,0.12530708781567146,0.9938506141756314,0.009094377050431035
1658789516700106,0.11407644769970204,0.9839627679865721,0.006408789196612474
1658789516716106,0.1205462729839013,0.9884794384679942,0.01495384145876244
1658789516732106,0.11688410772869418,0.9849393453879607,0.010681315327687457
1658789516748106,0.11859311818112417,0.9915312428473335,0.008728160524910322
1658789516764105,0.11517509727626418,0.9887235828183414,0.0020141908903639205
1658789516780105,0.11834897383077703,0.9823758297093157,0.0015259021896696368
1658789516796105,0.1222552834363313,0.9992217898832685,0.007873655298695326
1658789516812105,0.11651789120317346,1.004226749065385,0.0042114900434881974
1658789516828105,0.12237735561150487,0.9817654688334478,0.006775005722133187
1658789516844116,0.12176699473563701,0.9942168307011521,0.007019150072480329
1658789516860116,0.12030212863355416,1.0065461203936827,0.0020141908903639205
1658789516876115,0.12542915999084503,1.0048371099412527,5.493247882810692E-4
1658789516892115,0.12982375829709358,1.0004425116350042,3.0518043793392735E-4
1658789516908115,0.12237735561150487,0.98286411841001,0.002746623941405346
1658789516924115,0.12530708781567146,0.9821316853589686,0.014709697108415298
1658789516940115,0.11786068513008274,1.000808728160525,0.011169604028381741
1658789516956114,0.11541924162661132,1.00337224383917,0.005065995269703194
1658789516972114,0.1117570763714042,0.9694361791409172,0.0060425726710917615
1658789516988114,0.12127870603494273,0.9851834897383078,0.008972304875257464
1658789517004114,0.12457465476462914,1.015579461356527,0.017761501487754572
1658789517020114,0.1205462729839013,1.002761882963302,0.01361104753185316
1658789517036113,0.11627374685282632,0.9772487983520257,0.004821850919356052
1658789517052113,0.11493095292591704,0.9744411383230336,0.005432211795223907
1658789517068113,0.12103456168459559,0.9994659342336156,0.007263294422827471
1658789517084113,0.1100480659189742,1.0131380178530556,0.012146181429770309
1658789517100113,0.11126878767070991,0.9884794384679942,0.011413748378728883
1658789517116112,0.11834897383077703,0.9770046540016786,0.008606088349736751
1658789517132112,0.13373006790264785,1.0072785534447242,9.15541313801782E-4
1658789517148112,0.12616159304188646,1.0166781109330891,-0.009948882276646032
1658789517164123,0.11908140688181845,0.9988555733577478,0.0018921187151903496
1658789517180123,0.11639581902799989,0.9921416037232014,0.007751583123521755
1658789517196123,0.11798275730525631,0.9980010681315328,0.014587624933241727
1658789517212123,0.11053635461966849,0.9899443045700771,0.0061646448462653325
1658789517228122,0.12213321126115773,0.9894560158693828,0.003356984817273201
1658789517244122,0.11993591210803345,1.0194857709620813,-0.0018921187151903496
1658789517260122,0.12835889219501073,1.0012970168612192,-0.0018921187151903496
1658789517276122,0.12494087129014986,0.9654077973601893,0.014221408407721015
1658789517292122,0.11920347905699202,0.9719996948195622,0.01226825360494388
1658789517308121,0.11700617990386775,1.0020294499122606,0.00848401617456318
1658789517324121,0.11395437552452847,0.9945830472266728,0.003479056992446772
1658789517340121,0.11602960250247918,0.9757839322499429,0.004821850919356052
1658789517356121,0.12164492256046344,0.9730983443961243,0.011169604028381741
1658789517372120,0.1251850156404979,0.9757839322499429,0.028503852903028815
1658789517388120,0.11261158159761919,1.0050812542916,0.019348439765010994
1658789517404120,0.11749446860456203,1.004470893415732,0.012756542305638163
1658789517420120,0.11822690165560346,0.9800564583810178,0.005188067444876765
1658789517436120,0.13409628442816857,1.0133821622034027,0.006775005722133187
1658789517452119,0.11859311818112417,1.0094758525978484,0.0071412222476539
1658789517468119,0.1167620355535206,0.9806668192568857,0.00848401617456318
1658789517484100,0.11566338597695847,0.9840848401617457,0.012756542305638163
1658789517500100,0.12603952086671288,1.0017853055619135,0.011413748378728883
1658789517516100,0.11590753032730561,1.0163118944075684,0.0014038300144960658
1658789517532099,0.12115663385976916,1.0009308003356985,0.0039673456931410556
1658789517548099,0.11419851987487561,0.9721217669947357,0.004943923094529623
1658789517564099,0.12982375829709358,1.0058136873426413,0.009582665751125319
1658789517580099,0.11480888075074347,1.0056916151674677,0.007629510948348184
1658789517596099,0.12274357213702558,0.9938506141756314,0.004943923094529623
1658789517612098,0.11602960250247918,0.9843289845120928,-0.003356984817273201
1658789517628098,0.12469672693980272,0.980300602731365,0.009338521400778177
1658789517644098,0.11810482948042988,0.9932402532997635,0.012146181429770309
1658789517660098,0.10980392156862706,0.9801785305561914,0.009094377050431035
1658789517676097,0.11432059205004919,0.9689478904402229,0.008972304875257464
1658789517692097,0.11541924162661132,0.9832303349355307,-0.0025024795910582043
1658789517708097,0.12603952086671288,1.0128938735027084,0.0015259021896696368
1658789517724097,0.12103456168459559,0.9907988097962921,0.005432211795223907
1658789517740097,0.11895933470664488,0.9668726634622722,0.01361104753185316
1658789517756096,0.11566338597695847,0.9646753643091479,0.013488975356679589
1658789517772096,0.11163500419623062,0.9855497062638285,0.006775005722133187
1658789517788096,0.12567330434119217,1.0091096360723277,0.0023804074158846333
1658789517804107,0.11773861295490917,0.9977569237811856,-0.0016479743648432077
1658789517820107,0.1184710460059506,0.9711451895933472,0.00836194399938961
1658789517836107,0.11578545815213204,0.9722438391699093,0.014221408407721015
1658789517852107,0.10980392156862706,0.9961699855039292,0.015320057984283153
1658789517868106,0.11712825207904132,1.0041046768902113,0.009948882276646032
1658789517884106,0.11920347905699202,1.002761882963302,0.010559243152513886
1658789517900106,0.11944762340733917,1.0183871213855191,0.008972304875257464
1658789517916106,0.10894941634241206,0.9971465629053178,0.009094377050431035
1658789517932106,0.1117570763714042,1.0069123369192035,0.013855191882200302
1658789517948105,0.11627374685282632,1.018142977035172,0.008606088349736751
1658789517964105,0.11859311818112417,0.9962920576791028,0.010437170977340315
1658789517980105,0.11248950942244562,0.9921416037232014,0.004821850919356052
1658789517996105,0.10870527199206492,1.0132600900282291,4.272526131074983E-4
1658789518012105,0.11566338597695847,1.0387731746395055,0.0012817578393224949
1658789518028104,0.12188906691081058,1.0204623483634698,0.014343480582894585
1658789518044104,0.11358815899900776,0.9855497062638285,0.021911955443655984
1658789518060104,0.11102464332036277,0.9857938506141757,0.018005645838101714
1658789518076104,0.10321202410925423,1.0012970168612192,0.007507438773174613
1658789518092104,0.11639581902799989,0.9950713359273671,0.013488975356679589
1658789518108103,0.10370031280994851,0.9912870984969864,0.012024109254596738
1658789518124084,0.10479896238651065,1.0092317082475013,0.007263294422827471
1658789518140084,0.11151293202105705,0.98970016021973,0.013855191882200302
1658789518156084,0.12420843823910843,0.9773708705271993,0.02545204852368954
1658789518172083,0.10724040588998207,0.9746852826733807,0.018249790188448856
1658789518188083,0.10357824063477494,0.985427634088655,0.005554283970397478
1658789518204083,0.1117570763714042,1.0064240482185092,-0.0037232013427939137
1658789518220083,0.1293354695963993,0.9969024185549706,0.0037232013427939137
1658789518236083,0.12689402609292788,0.9679713130388343,0.01605249103532458
1658789518252082,0.1138323033493549,0.9894560158693828,0.023010605020218122
1658789518268082,0.1167620355535206,1.007888914320592,0.009338521400778177
1658789518284082,0.12091248950942202,0.9983672846570535,-0.0014038300144960658
1658789518300082,0.13153276874952358,0.9998321507591363,0.008972304875257464
1658789518316082,0.1222552834363313,0.9993438620584421,0.006897077897306758
1658789518332081,0.11993591210803345,0.9840848401617457,0.012634470130464592
1658789518348081,0.11566338597695847,0.9722438391699093,0.019836728465705278
1658789518364081,0.12530708781567146,0.9916533150225071,0.01861600671396957
1658789518380081,0.11248950942244562,1.0133821622034027,0.008728160524910322
1658789518396081,0.11725032425421489,1.0117952239261463,0.012024109254596738
1658789518412080,0.11737239642938846,0.9793240253299764,0.015930418860151008
1658789518428080,0.12237735561150487,0.9868925001907378,0.02386511024643312
1658789518444091,0.11651789120317346,0.9799343862058443,0.018127718013275285
1658789518460091,0.11163500419623062,0.9817654688334478,0.015442130159456724
1658789518476091,0.1079728389410235,1.0015411612115663,0.002868696116578917
1658789518492091,0.11859311818112417,0.9993438620584421,0.007629510948348184
1658789518508091,0.11639581902799989,0.9719996948195622,0.014343480582894585
1658789518524090,0.12213321126115773,0.9861600671396964,0.026916914625772392
1658789518540090,0.11712825207904132,1.0102082856488899,0.01739528496223386
1658789518556090,0.1193255512321656,0.9881132219424735,0.0109254596780346
1658789518572090,0.11956969558251274,0.9875028610666057,0.006408789196612474
1658789518588090,0.11517509727626418,1.0102082856488899,0.0023804074158846333
1658789518604089,0.11737239642938846,1.0191195544365605,0.011291676203555312
1658789518620089,0.11432059205004919,0.98970016021973,0.01873807888914314
1658789518636089,0.1231097886625463,0.9892118715190357,0.02020294499122599
1658789518652089,0.1293354695963993,1.0054474708171206,0.015564202334630295
1658789518668089,0.13006790264744073,1.0111848630502784,0.0071412222476539
1658789518684088,0.12384222171358772,1.007888914320592,0.007995727473868897
1658789518700088,0.12079041733424845,0.9921416037232014,0.01629663538567172
1658789518716088,0.12445258258945557,0.9955596246280614,0.017029068436713146
1658789518732088,0.11920347905699202,0.9805447470817121,0.018371862363622427
1658789518748088,0.1184710460059506,0.9805447470817121,0.009338521400778177
1658789518764068,0.11566338597695847,0.970046540016785,0.009460593575951748
1658789518780068,0.12042420080872773,0.9964141298542764,0.013122758831158876
1658789518796068,0.11456473640039633,0.9872587167162585,0.0109254596780346
1658789518812068,0.1205462729839013,0.9635767147325858,0.012024109254596738
1658789518828067,0.1272602426184486,0.9749294270237279,0.015564202334630295
1658789518844067,0.13653772793163999,0.9890897993438621,0.018249790188448856
1658789518860067,0.12408636606393486,0.9916533150225071,0.015442130159456724
1658789518876067,0.12176699473563701,0.9866483558403907,0.014587624933241727
1658789518892067,0.1264057373922336,0.9887235828183414,0.01898222323949028
1658789518908066,0.13141069657435,1.0074006256198977,0.011291676203555312
1658789518924066,0.13031204699778787,0.9990997177080949,0.012756542305638163
1658789518940066,0.12372014953841415,0.9781033035782407,0.009460593575951748
1658789518956066,0.11786068513008274,0.9739528496223393,0.006897077897306758
1658789518972066,0.12298771648737272,1.0332799267566948,0.010803387502861028
1658789518988065,0.14459449149309567,1.1919737544823379,0.012878614480811734
1658789519004065,0.1663233386739913,1.19990844586862,0.003112840466926059
1658789519020065,0.18805218585488692,1.1469291218432902,-0.027161058976119534
1658789519036065,0.17242694743266984,1.1342336156252388,-0.044129091325245895
1658789519052065,0.17364766918440555,1.142168307011521,-0.01605249103532458
1658789519068064,0.15631342030975848,1.2388494697489891,-0.04083314259555948
1658789519084076,0.16266117341878417,1.3948577096208137,-0.05169756618600729
1658789519100075,0.19037155718318477,1.4278171969176778,-0.09539940489814613
1658789519116075,0.22333104448004892,1.3710536354619665,-0.09161516746776543
1658789519132075,0.2570229648279545,1.3904631113145651,-0.07647821774624264
1658789519148075,0.24115358205539028,1.44258793011368,-0.06292820630197626
1658789519164075,0.21930266269932108,1.422934309910735,-0.07733272297245763
1658789519180074,0.22284275577935464,1.341023880369268,-0.09662012664988184
1658789519196074,0.2637369344625009,1.3997405966277565,-0.08831921873807902
1658789519212074,0.2818036163881894,1.4367284657053485,-0.08465705348287189
1658789519228074,0.2771648737315937,1.3647058823529408,-0.07598992904554835
1658789519244073,0.2840009155413137,1.3015945677882046,-0.08856336308842616
1658789519260073,0.3045090409704736,1.3019607843137253,-0.06915388723582838
1658789519276073,0.32819104295414636,1.2995193408102539,-0.03546196688792236
1658789519292073,0.3191577019913021,1.1953917753871979,-0.03851377126726163
1658789519308073,0.3015793087663079,1.1035934996566716,-0.02655069810025168
1658789519324072,0.33490501258869276,1.0769817654688332,0.012024109254596738
1658789519340072,0.38495460440985774,1.1217822537575337,0.012512397955291021
1658789519356072,0.3591973754482334,0.9881132219424735,0.041687647821774476
1658789519372072,0.34174105439841274,0.7488517586022736,0.07208361943999364
1658789519388072,0.3195239185168228,0.6988021667811095,0.07708857862211005
1658789519404083,0.3258716716258485,0.816723887998779,0.08331425955596217
1658789519420083,0.34247348744945416,0.7733882658121614,0.06683451590753009
1658789519436082,0.36810864423590406,0.5187457084000915,0.08636606393530144
1658789519452082,0.4380560006103611,0.38532082093537845,0.11908140688181845
1658789519468082,0.4530708781567103,0.3690852216372926,0.14801251239795565
1658789519484082,0.48700694285496304,0.40387579156176123,0.16656748302433844
1658789519500082,0.5314412146181429,0.3883726253147177,0.16998550392919842
1658789519516081,0.5615930418860149,0.23285267414358746,0.14056610971236783
1658789519532081,0.5987029831387805,0.1033340962844278,0.16095216296635417
1658789519548081,0.6732890821698332,0.15594720378423776,0.21197833218890683
1658789519564081,0.7414053559166858,0.30939192797741644,0.23028915846494247
1658789519580081,0.7964599069199663,0.3301441977569235,0.19464408331425975
1658789519596080,0.785717555504692,0.10724040588998207,0.1591210803387506
1658789519612080,0.7912108033875027,-0.11602960250247962,0.21698329137102323
1658789519628080,0.7986572060730905,0.05120927748531301,0.2586099031052109
1658789519644080,0.8059815365835048,0.22211032272831321,0.21490806439307253
1658789519660080,0.8147707331960019,0.07208361943999364,0.13665980010681356
1658789519676079,0.8273441672388797,-0.08551155870908689,0.14691386282139351
1658789519692079,0.8621347371633474,-0.14117647058823524,0.2175936522468911
1658789519708079,0.8717784390020595,-0.07708857862211049,0.25775539787899593
1658789519724060,0.820996414129854,-0.09698634317540256,0.28375677119096654
1658789519740059,0.7733882658121614,-0.07269398031586194,0.26153963530937663
1658789519756059,0.7588616769665064,-0.1144426642252232,0.22149996185244536
1658789519772059,0.8191653315022505,-0.18695353627832434,0.2562905317769131
1658789519788059,0.9052262149996189,-0.12945754177157243,0.32074464026855853
1658789519804059,0.9464866102082858,-0.24176394293125814,0.3179369802395664
1658789519820058,0.9833524071107043,-0.5081254291599908,0.4082703898680098
1658789519836058,0.9439230945296408,-0.38593118181124586,0.49030289158464946
1658789519852058,0.8385748073548482,-0.17132829785610726,0.4724803540093081
1658789519868058,0.744457160296025,-0.2713054093232623,0.42145418478675545
1658789519884058,0.6763408865491725,-0.5237506675822079,0.44245059891660965
1658789519900057,0.7212634470130466,-0.6321507591363393,0.4766308079652095
1658789519916057,0.8273441672388797,-0.6309300373846036,0.5110551613641565
1658789519932057,0.8476081483176925,-0.5564660105287249,0.5099565117875944
1658789519948057,0.8212405584802012,-0.5650110627908753,0.5038529030289158
1658789519964057,0.7967040512703134,-0.5541466392004271,0.48664072632944233
1658789519980056,0.7982909895475698,-0.4673533226520181,0.4791943236438545
1658789519996056,0.796826123445487,-0.4218204013122757,0.4758983749141681
1658789520012056,0.7884031433585106,-0.40021362630655366,0.44122987716487394
1658789520028056,0.7648432135500114,-0.388738841840238,0.388860914015412
1658789520044067,0.7663080796520942,-0.40912489509422434,0.3875181200885027
1658789520060067,0.756420233463035,-0.3104905775539786,0.3750667582207985
1658789520076067,0.7229724574654766,-0.19208056763561476,0.33881132219424703
1658789520092066,0.7001449607080188,-0.1417868314641031,0.30634012359807716
1658789520108066,0.7071030746929123,-0.05474937056534657,0.2642252231631952
1658789520124066,0.7366445410849165,0.11822690165560346,0.243228809033341
1658789520140066,0.7981689173723963,0.2587319752803845,0.2074616617074847
1658789520156066,0.8220950637064162,0.28253604943923083,0.17962920576791053
1658789520172065,0.833813992523079,0.15094224460212136,0.1582665751125356
1658789520188065,0.7884031433585106,0.11688410772869418,0.1486228732738235
1658789520204065,0.7722896162355992,0.3478446631570913,0.04083314259555948
1658789520220065,0.7371328297856108,0.4733348592355231,-0.027161058976119534
1658789520236065,0.7396963454642558,0.5481651026169221,-0.05560387579156156
1658789520252064,0.7481193255512322,0.4384222171358818,-0.039124132143129486
1658789520268064,0.7145494773785002,0.24310673685816742,-0.011657892729076025
1658789520284064,0.7044174868390938,0.3384451056687263,-0.029846646829938095
1658789520300064,0.6847638666361489,0.6007782101167312,-0.11725032425421533
1658789520316064,0.727122911421378,0.7742427710383764,-0.1858548867017622
1658789520332063,0.7410391393911651,0.6034637979705497,-0.163149462119478
1658789520348063,0.7533684290836957,0.4396429388876175,-0.07306019684138265
1658789520364044,0.7029526207370109,0.5560997940032042,-0.07342641336690336
1658789520380044,0.6400854505226219,0.7445792324711986,-0.1328755626764324
1658789520396043,0.6111543450064847,0.7948729686427098,-0.20502021820401328
1658789520412043,0.6033417257953761,0.6839093614099339,-0.23199816891737246
1658789520428043,0.6233615625238418,0.6293430991073476,-0.17145037003128083
1658789520444043,0.6527809567406733,0.784008545052262,-0.13324177920195313
1658789520460043,0.603097581445029,0.9459983215075916,-0.19220263981078833
1658789520476042,0.5960173952849619,0.8603036545357439,-0.25592431525139236
1658789520492042,0.6261692225528348,0.7953612573434041,-0.2348058289463646
1658789520508042,0.6189669642175932,0.8897230487525754,-0.21454184786755182
1658789520524042,0.6105439841306168,0.9173113603418024,-0.2091706721599147
1658789520540042,0.5551232166018156,0.8781261921110861,-0.1928130006866562
1658789520556041,0.5048294804303044,0.8772716868848711,-0.19647516594186332
1658789520572041,0.4473334859235525,0.9162127107652402,-0.22772564278629748
1658789520588041,0.39838254367895054,0.9341573205157552,-0.2473792629892424
1658789520604041,0.45258258945601604,0.9406271457999544,-0.2747234302281223
1658789520620041,0.5018997482261387,0.9230487525749602,-0.2573891813534752
1658789520636040,0.45038529030289176,0.8572518501564046,-0.23492790112153816
1658789520652040,0.4077821011673155,0.9291523613336388,-0.21405355916685753
1658789520668040,0.38275730525673346,1.0203402761882963,-0.2263828488593882
1658789520684051,0.3867856870374613,1.109208819714656,-0.23004501411459533
1658789520700051,0.4862745098039216,1.1486381322957202,-0.21405355916685753
1658789520716051,0.5026321812771801,1.1704890516517894,-0.22613870450904106
1658789520732051,0.4624704356450753,1.1426565957122152,-0.2697184710460059
1658789520748050,0.4627145799954224,1.2500801098649577,-0.2864423590447851
1658789520764050,0.4661326009002824,1.3977874418249794,-0.29962615396353076
1658789520780050,0.44538033112077535,1.3991302357518887,-0.2995040817883572
1658789520796050,0.4110780498970019,1.3085526817730981,-0.32623788815136967
1658789520812049,0.3909361409933627,1.3163653009842067,-0.3369802395666439
1658789520828049,0.42865644312199613,1.5076523994811932,-0.3328297856107425
1658789520844049,0.4282902265964754,1.5600213626306552,-0.31415274280918615
1658789520860049,0.39996948195620696,1.3969329365987644,-0.2738689250019073
1658789520876049,0.43280689707789755,1.3283283741512166,-0.2272373540856032
1658789520892048,0.47235828183413453,1.4690775921263448,-0.1995269703212026
1658789520908048,0.45416952773327246,1.5260852979324024,-0.19220263981078833
1658789520924048,0.4157167925535976,1.4256198977645536,-0.1973296711680783
1658789520940048,0.4166933699549862,1.2981765468833446,-0.18951705195696977
1658789520956048,0.47858396276798665,1.330525673304341,-0.15802243076218803
1658789520972047,0.4716258487830931,1.353841458762493,-0.13958953231097881
1658789520988047,0.43024338139925256,1.2561837186236362,-0.1438620584420538
1658789521004028,0.42230869001297044,1.168902113374533,-0.1488670176241702
1658789521020028,0.4404974441138325,1.2205386434729535,-0.14837872892347592
1658789521036028,0.47052719920653097,1.2167544060425728,-0.13055619134813456
1658789521052027,0.498970016021973,1.096391241321431,-0.11017013809414822
1658789521068027,0.44672312504768463,0.9240253299763488,-0.11749446860456247
1658789521084027,0.4184023804074162,0.8568856336308839,-0.12079041733424889
1658789521100027,0.4446478980697339,0.8318608377203018,-0.07733272297245763
1658789521116027,0.46930647745479526,0.821850919356069,-0.05242999923704872
1658789521132026,0.44757763027389963,0.7339589532310979,-0.040344853894865196
1658789521148026,0.4494087129015032,0.47565423056382095,-0.024597543297474544
1658789521164026,0.4846875715266652,0.4425726710917832,0.047913328755626594
1658789521180026,0.52484931715877,0.5764858472571905,0.08453498130769788
1658789521196025,0.5576867322804606,0.5537804226749063,0.11517509727626418
1658789521212025,0.5620813305867092,0.3556572823681998,0.10003814755474139
1658789521228025,0.6106660563057904,0.11102464332036277,0.13556115053025142
1658789521244025,0.6786602578774703,0.1494773785000385,0.18280308232242337
1658789521260025,0.6693827725642789,0.2813153276874951,0.19684138246738403
1658789521276024,0.616769665064469,0.20416571297779829,0.1902494850080112
1658789521292024,0.6336156252384226,0.12457465476462914,0.17108415350576056
1658789521308024,0.7034409094377052,0.07891966124971361,0.16571297779812344
1658789521324035,0.7697261005569542,0.1079728389410235,0.2086823834592204
1658789521340035,0.8205081254291597,0.026306553749904538,0.23212024109254603
1658789521356035,0.7815671015487906,-0.0774547951476312,0.2566567483024338
1658789521372035,0.768383306630045,-0.025696192874036683,0.2276035706111239
1658789521388034,0.8137941557946133,0.08685435263599572,0.19720759899290474
1658789521404034,0.8236820019836726,0.03814755474174092,0.19513237201495404
1658789521420034,0.8438239108873118,-0.1438620584420538,0.24200808728160528
1658789521436034,0.8427252613107497,-0.08368047608148332,0.27313649195086587
1658789521452034,0.8091554131380176,0.0015259021896696368,0.23651483939879459
1658789521468033,0.8195315480277712,-0.045471885252155175,0.23675898374914173
1658789521484033,0.8683604180971995,-0.10516517891203181,0.2439612420843824
1658789521500033,0.9002212558175025,-0.17804226749065366,0.2800946059357594
1658789521516033,0.8968032349126425,-0.21783779659723823,0.2927901121538108
1658789521532033,0.8788586251621275,-0.2548256656748302,0.3096360723277636
1658789521548032,0.8755626764324411,-0.23382925154497602,0.28839551384756223
1658789521564032,0.8878919661249718,-0.19769588769359903,0.3023117418173493
1658789521580032,0.9342793926909287,-0.18048371099412508,0.35931944762340695
1658789521596032,0.9301289387350273,-0.23150988021667818,0.3964293888761734
1658789521612032,0.8990005340657667,-0.3550469214923324,0.4140077821011676
1658789521628031,0.8655527580682074,-0.3942320897230487,0.4329289692530711
1658789521644012,0.8264896620126647,-0.3053635461966886,0.464545662623026
1658789521660012,0.7915770199130234,-0.29925993743801005,0.48786144808117804
1658789521676012,0.778881513694972,-0.4498970016021975,0.49494163424124515
1658789521692011,0.795971618219272,-0.5846646829938202,0.4892042420080873
1658789521708011,0.8366216525520711,-0.5336385137712671,0.5180132753490501
1658789521724011,0.8290531776913097,-0.4169375143053329,0.5232623788815136
1658789521740011,0.8041504539559012,-0.40656137941557935,0.5053177691309987
1658789521756011,0.8074464026855876,-0.4268253604943921,0.5037308308537423
1658789521772010,0.8299076829175247,-0.3886167696650644,0.5554894331273363
1658789521788010,0.8546883344777596,-0.3373464560921646,0.5724574654764627
1658789521804010,0.8538338292515446,-0.37836270695048446,0.5425497825589378
1658789521820010,0.8178225375753412,-0.3920347905699244,0.48187991149767306
1658789521836010,0.8239261463340197,-0.34979781795986886,0.45624475471122317
1658789521852009,0.7862058442053863,-0.25348287174792095,0.4539253833829253
1658789521868009,0.7749752040894178,-0.24579232471198598,0.4530708781567103
1658789521884009,0.7566643778133821,-0.2116121156633861,0.44916456855115605
1658789521900009,0.7663080796520942,-0.12933546959639886,0.39044785229266843
1658789521916009,0.794262607766842,-0.058533607995727266,0.36725413900968906
1658789521932008,0.8390630960555425,-0.02288853284504455,0.3994811932555127
1658789521948008,0.8216067750057219,-0.032532234683756656,0.40253299763485195
1658789521964019,0.8009765774013884,-0.037659266041046635,0.3674982833600362
1658789521980019,0.7821774624246585,-0.004333562218661768,0.3255054551003278
1658789521996019,0.7871824216067749,0.05389486533913157,0.3100022888532843
1658789522012019,0.8041504539559012,0.18023956664377838,0.2905928130006865
1658789522028019,0.7603265430685893,0.18634317540245693,0.26019684138246735
1658789522044018,0.7421377889677272,0.10101472495612995,0.2179598687724118
1658789522060018,0.7799801632715342,0.15899900816357704,0.21808194094758537
1658789522076018,0.787426565957122,0.3205004959182114,0.1852445258258948
1658789522092018,0.7830319676508735,0.2990157930876629,0.1599755855649656
1658789522108018,0.7573968108644236,0.2747234302281223,0.08477912565804502
1658789522124017,0.7440909437705043,0.27948424505989156,0.022156099794003126
1658789522140017,0.715159838254368,0.32867933165484065,-5.493247882810692E-4
1658789522156017,0.7121080338750287,0.5047074082551308,-0.008850232700083893
1658789522172017,0.7077134355687802,0.5965056839856562,-0.05914396887159512
1658789522188017,0.7121080338750287,0.4826123445487145,-0.09954985885404755
1658789522204016,0.7586175326161593,0.3804379339284356,-0.11017013809414822
1658789522220016,0.7300526436255437,0.5123979552910658,-0.12323186083772031
1658789522236016,0.7256580453192951,0.7721675440604256,-0.17206073090714868
1658789522252016,0.7426260776684215,0.8531013962005032,-0.23578240634775316
1658789522268015,0.7694819562066071,0.6349584191653319,-0.2296787975890746
1658789522284027,0.7501945525291829,0.5163042648966201,-0.17547875181200867
1658789522300027,0.639475089646754,0.6138399328603033,-0.17047379262989226
1658789522316026,0.5607385366597999,0.7354238193331808,-0.25812161440451664
1658789522332026,0.54706645304036,0.8266117341878383,-0.3159838254367897
1658789522348026,0.6349584191653319,0.768383306630045,-0.2766765850308994
1658789522364026,0.6442359044785233,0.6948958571755552,-0.19293507286182976
1658789522380025,0.5612268253604942,0.7241931792172123,-0.17108415350576012
1658789522396025,0.4669871061264974,0.8025635156786448,-0.1943999389639126
1658789522412025,0.4389105058365761,0.8662851911192488,-0.24676890211337454
1658789522428025,0.45429159990844603,0.7556878004119936,-0.2448157473105974
1658789522444025,0.47736324101625094,0.7864499885557334,-0.20599679560540185
1658789522460024,0.45624475471122317,0.8999771114671553,-0.2175936522468911
1658789522476024,0.4086366063935305,0.9394064240482187,-0.24798962386511025
1658789522492024,0.42194247348744973,0.9145037003128103,-0.26947432669565874
1658789522508024,0.4506294346532389,0.9184100099183645,-0.22870222018768604
1658789522524024,0.45636682688639674,0.9705348287174793,-0.21576256961928753
1658789522540023,0.4043640802624555,1.0530556191348133,-0.24969863431754025
1658789522556023,0.3495536736095213,1.039505607690547,-0.2842450598916608
1658789522572023,0.3783627069504849,0.9955596246280614,-0.29303425650415793
1658789522588023,0.3860532539864199,1.0578164339665825,-0.29462119478141435
1658789522604004,0.3570000762951091,1.1338673990997181,-0.30267795834287003
1658789522620003,0.32147707331959996,1.1333791103990238,-0.35992980849927525
1658789522636003,0.31354238193331785,1.0899214160372317,-0.3945983062485694
1658789522652003,0.3692072938124662,1.2185854886701764,-0.3516289005874724
1658789522668003,0.3642023346303498,1.3527428091859308,-0.35443656061646456
1658789522684003,0.3389333943694206,1.3371175707637137,-0.35065232318608386
1658789522700002,0.33575951781490776,1.2423895628290227,-0.35858701457236597
1658789522716002,0.3817807278553449,1.4097505149919893,-0.3366140230411232
1658789522732002,0.392278934920272,1.5583123521782252,-0.3538261997405967
1658789522748002,0.34918745708400056,1.4307469291218435,-0.3320973525597011
1658789522764001,0.33966582742046203,1.2847486076142518,-0.31219958800640857
1658789522780001,0.37494468604562403,1.441977569237812,-0.29254596780346365
1658789522796001,0.3544365606164641,1.509727626459144,-0.2977950713359272
1658789522812001,0.2943770504310672,1.375692378118563,-0.31134508278019357
1658789522828001,0.2838788433661401,1.2276188296330206,-0.30133516441596075
1658789522844000,0.3305104142824442,1.3297932402532995,-0.27948424505989156
1658789522860000,0.3377126726176849,1.372030212863355,-0.24127565423056385
1658789522876000,0.3070725566491186,1.3260090028229188,-0.19562066071564832
1658789522892000,0.3205004959182114,1.2359197375448234,-0.1820706492713815
1658789522908000,0.3690852216372926,1.230060273136492,-0.2086823834592204
1658789522924011,0.40094605935759553,1.2692454413672083,-0.19085984588387905
1658789522940011,0.3977721828030827,1.187090867475395,-0.17560082398718224
1658789522956010,0.39789425497825626,1.092118715190356,-0.15790035858701446
1658789522972010,0.395696955825132,1.0282749675745784,-0.16461432822156086
1658789522988010,0.42951094834821113,1.0816205081254289,-0.1593652246890973
1658789523004010,0.4557564660105289,1.0985885404745552,-0.15570305943389018
1658789523020010,0.47516594186312666,0.9604028381780729,-0.09796292057679112
1658789523036009,0.4644235904478524,0.8180666819256883,-0.11102464332036321
1658789523052009,0.46588845654993527,0.7432364385442893,-0.1022354467078661
1658789523068009,0.5033646143282215,0.905470359349966,-0.09600976577401399
1658789523084009,0.4829785610742352,0.874219882505531,-0.08514534218356618
1658789523100009,0.47565423056382095,0.6508278019378961,-0.05023270008392444
1658789523116008,0.5099565117875944,0.4175478751812012,-0.02935835812924381
1658789523132008,0.5369344625009536,0.463691157396811,-0.01361104753185316
1658789523148008,0.572091248950942,0.6731670099946596,-0.023498893720912406
1658789523164008,0.5574425879301135,0.5654993514915692,0.015808346684977437
1658789523180008,0.5822232394903484,0.28754100862134724,0.0613412680247194
1658789523196007,0.655710688944839,0.10809491111619707,0.13043411917296144
1658789523212007,0.690135042343786,0.2510414282444495,0.14593728542000495
1658789523228007,0.6795147631036853,0.43622491798275753,0.10296787975890709
1658789523243988,0.6459449149309533,0.34540321965361986,0.08099488822766432
1658789523259987,0.6789044022278174,0.08343633173113574,0.1281147478446636
1658789523275987,0.7525139238574807,-0.05230792706187515,0.19513237201495404
1658789523291987,0.7750972762645914,0.05645838101777656,0.23382925154497602
1658789523307987,0.7389639124132144,0.16437018387121416,0.19037155718318477
1658789523323987,0.7232166018158237,0.03826962691691449,0.1520408941786835
1658789523339986,0.8081788357366291,-0.08453498130769832,0.1957427328908219
1658789523355986,0.8833752956435497,-0.0567025253681237,0.2523842221713588
1658789523371986,0.8606698710612646,-0.0820935378042269,0.2527504386968795
1658789523387986,0.8169680323491262,-0.1765774013885708,0.27826352330815585
1658789523403986,0.8285648889906154,-0.14459449149309522,0.25397116044861523
1658789523419985,0.856275272755016,-0.04876783398184159,0.2556801709010452
1658789523435985,0.8823987182421611,-0.055970092317082276,0.27154955367360945
1658789523451985,0.8993667505912875,-0.26654459449149304,0.29132524605172794
1658789523467985,0.9152361333638517,-0.41547264820325003,0.3305104142824442
1658789523483985,0.9094987411306938,-0.30597390707255645,0.30560769054703574
1658789523499984,0.881300068665599,-0.22650492103456177,0.30463111314564717
1658789523515984,0.8515144579232468,-0.312077515831235,0.348210879682612
1658789523531984,0.8598153658350496,-0.3782406347753109,0.4132753490501262
1658789523547984,0.8495613031204696,-0.455146105134661,0.44879835202563534
1658789523563995,0.8111085679407948,-0.5117875944151979,0.4262149996185247
1658789523579995,0.8319829098954754,-0.5995574883649959,0.4396429388876175
1658789523595995,0.8214847028305483,-0.5966277561608302,0.45331502250705746
1658789523611994,0.8037842374303805,-0.5714808880750746,0.42096589608606116
1658789523627994,0.7884031433585106,-0.585030899519341,0.43817807278553467
1658789523643994,0.7885252155336842,-0.5519493400473028,0.43195239185168255
1658789523659994,0.7997558556496527,-0.5502403295948728,0.4225528343633176
1658789523675994,0.7981689173723963,-0.562813763637751,0.42011139085984617
1658789523691993,0.7982909895475698,-0.5322957198443579,0.4070496681162741
1658789523707993,0.8084229800869762,-0.4854200045777066,0.37640955214770777
1658789523723993,0.8072022583352405,-0.3772640573739223,0.38239108873121275
1658789523739993,0.7924315251392384,-0.3134203097581447,0.3805600061036092
1658789523755993,0.7584954604409857,-0.31964599069199684,0.36774242771038335
1658789523771992,0.7359121080338751,-0.33649195086594963,0.3285572594796671
1658789523787992,0.7163805600061037,-0.23907835507743957,0.26569008926527804
1658789523803992,0.7018539711604488,-0.14752422369726093,0.1990386816205083
1658789523819992,0.7342030975814451,-0.052918287937743,0.19452201113908618
1658789523835991,0.7287098496986344,0.049378194857709445,0.18341344319829123
1658789523851991,0.6879377431906617,0.04876783398184159,0.16607919432364415
1658789523867991,0.6923323414969103,0.014099336232547444,0.14264133669031853
1658789523884033,0.7488517586022736,0.18207064927138195,0.12628366521706003
1658789523900033,0.7664301518272678,0.35687800411993553,0.08538948653391287
1658789523916032,0.7592278934920271,0.41437399862668833,0.04315251392385733
1658789523932032,0.7344472419317922,0.30731670099946573,-0.009582665751125319
1658789523948032,0.7300526436255437,0.33319600213626277,-0.024719615472648115
1658789523964032,0.692698558022431,0.4237735561150533,-0.02642862592507811
1658789523980032,0.6511940184634168,0.5111772335393301,-0.0858777752346076
1658789523996031,0.6453345540550854,0.6375219348439769,-0.2057526512550547
1658789524012031,0.6695048447394525,0.5078812848096437,-0.26520180056458376
1658789524028031,0.7273670557717251,0.49079118028534374,-0.2276035706111239
1658789524044031,0.6847638666361489,0.6823224231326774,-0.18353551537346435
1658789524060031,0.612497138933394,0.8040283817807277,-0.2490882734416724
1658789524076030,0.6110322728313111,0.7355458915083544,-0.3152513923857483
1658789524092030,0.640329594872969,0.6033417257953761,-0.30096894789044004
1658789524108030,0.6364232852674148,0.6951400015259024,-0.24310673685816742
1658789524124030,0.5933318074311433,0.8769054703593504,-0.25934233615625235
1658789524140030,0.567818722819867,0.9844510566872664,-0.3732356755931945
1658789524156029,0.5198443579766536,0.8572518501564046,-0.41449607080186146
1658789524172029,0.5391317616540778,0.7078355077439538,-0.3369802395666439
1658789524188029,0.5169146257724879,0.9048599984740981,-0.34723430228122387
1658789524204010,0.46222629129472814,0.9595483329518579,-0.3882505531395437
1658789524220009,0.4350041962310218,0.9252460517280845,-0.4159609369039443
1658789524236009,0.43244068055237683,0.8434576943617911,-0.34650186923018245
1658789524252009,0.4212100404364083,0.8319829098954754,-0.2897383077744715
1658789524268009,0.39288929579613985,1.038040741588464,-0.3278248264286261
1658789524284009,0.37567711909666635,1.090409704737926,-0.37506675822079805
1658789524300008,0.4010681315327691,0.9673609521629665,-0.3622491798275731
1658789524316008,0.41095597772182835,1.0319371328297855,-0.3391775387197682
1658789524332008,0.3930113679713134,1.0834515907530324,-0.3028000305180436
1658789524348008,0.35895323109788624,1.1173876554512852,-0.2905928130006865
1658789524364008,0.3478446631570913,1.136186770428016,-0.32587167162584896
1658789524380007,0.39154650186923057,1.2447089341573205,-0.30780498970016
1658789524396007,0.46173800259403386,1.4085297932402536,-0.280216678110933
1658789524412007,0.4191348134584576,1.441123064011597,-0.29462119478141435
1658789524428007,0.37640955214770777,1.3274738689250016,-0.30426489662012646
1658789524444007,0.383733882658122,1.2910963607232775,-0.2947432669565879
1658789524460006,0.41474021515220905,1.4337987335011828,-0.2995040817883572
1658789524476006,0.4099794003204398,1.5343862058442053,-0.3266041046768904
1658789524492006,0.3612726024261841,1.4311131456473642,-0.34650186923018245
1658789524508006,0.37897306782635276,1.2868238345922025,-0.313908598458839
1658789524524017,0.4060730907148855,1.4120698863202872,-0.27740901808194085
1658789524540017,0.38947127489127986,1.4552834363317313,-0.2616617074845502
1658789524556017,0.341374837872892,1.3820401312275887,-0.23077744716563675
1658789524572016,0.3540703440909434,1.2990310521095596,-0.239810788128481
1658789524588016,0.3842221713588163,1.3441977569237809,-0.22504005493247892
1658789524604016,0.3997253376058598,1.3533531700617987,-0.21026932173647683
1658789524620016,0.38410009918364274,1.277302204928664,-0.16388189517051943
1658789524636016,0.37518883039597206,1.1890440222781722,-0.17315938048371082
1658789524652015,0.3822690165560392,1.1053025101091016,-0.18011749446860437
1658789524668015,0.39911497672999197,1.1695124742504008,-0.15960936903944445
1658789524684015,0.4274357213702604,1.1867246509498743,-0.14862287327382306
1658789524700015,0.44538033112077535,1.1245899137865258,-0.11309987029831392
1658789524716014,0.45172808422980104,0.9965362020294499,-0.1371480888075074
1658789524732014,0.43830014496070824,0.9870145723659114,-0.13690394445716025
1658789524748014,0.4708934157320517,1.0606240939955747,-0.13604943923094526
1658789524764014,0.47907225146868093,0.9447775997558558,-0.11676203555352105
1658789524780014,0.46173800259403386,0.796826123445487,-0.10833905546654465
1658789524796013,0.4612497138933396,0.6957503624017702,-0.10724040588998252
1658789524812013,0.5158159761959258,0.7973144121461813,-0.12091248950942246
1658789524828013,0.51972228580148,0.8155031662470433,-0.12396429388876173
1658789524843994,0.5161821927214465,0.6038300144960704,-0.04974441138323016
1658789524859994,0.5139848935683222,0.494697489890898,-0.009948882276646032
1658789524875993,0.5331502250705729,0.35468070496681126,-0.026916914625772392
1658789524891993,0.5563439383535513,0.35590142671854696,-0.03448538948653379
1658789524907993,0.6179903868162047,0.5615930418860149,-0.03692683299000521
1658789524923993,0.6189669642175932,0.38995956359197415,0.02264438849469741
1658789524939993,0.6706034943160146,0.13934538796063212,0.13580529488059856
1658789524955992,0.7233386739909973,0.18133821622034052,0.23248645761806674
1658789524971992,0.6990463111314567,0.33319600213626277,0.18988326848249049
1658789524987992,0.6758525978484782,0.30926985580224287,0.12787060349431645
1658789525003992,0.7000228885328452,0.14679179064621994,0.11432059205004919
1658789525019991,0.7295643549248494,-0.0060425726710917615,0.170962081330587
1658789525035991,0.7551995117112993,-0.0695201037613491,0.2570229648279545
1658789525051991,0.7233386739909973,0.04498359655146089,0.25812161440451664
1658789525067991,0.7085679407949952,0.0432745860990309,0.1856107423514155
1658789525083991,0.7665522240024414,-0.08026245517662334,0.20392156862745114
1658789525099990,0.8809338521400782,-0.04596017395284946,0.2935225452048522
1658789525115990,0.8971694514381632,-0.014587624933241727,0.3401541161211563
1658789525131990,0.8308842603189133,-0.19208056763561476,0.31512932021057427
1658789525147990,0.8253910124361026,-0.272526131074998,0.3251392385748071
1658789525164001,0.8501716639963375,-0.09662012664988184,0.3250171663996335
1658789525180001,0.861402304112306,-0.027038986800945963,0.31061264972915215
1658789525196001,0.8845960173952854,-0.2310215915159839,0.3440604257267106
1658789525212000,0.9180437933928438,-0.34479285877775245,0.38117036697947704
1658789525228000,0.9461203936827651,-0.3539482719157703,0.4003356984817277
1658789525244000,0.9223163195239188,-0.2764324406805523,0.4304875257495997
1658789525260000,0.8493171587701225,-0.24579232471198598,0.4174258030060276
1658789525276000,0.7659418631265735,-0.37250324254215306,0.4414740215152211
1658789525291999,0.7105210955977723,-0.4476997024490732,0.4732127870603495
1658789525307999,0.754711223010605,-0.5094682230869001,0.5104448004882887
1658789525323999,0.8034180209048598,-0.5382772564278628,0.49115739681086446
1658789525339999,0.8412603952086668,-0.5889372091248952,0.48065918974593735
1658789525355999,0.8457770656900889,-0.5309529259174486,0.5181353475242236
1658789525371998,0.8467536430914775,-0.45172808422980104,0.5143511100938429
1658789525387998,0.8314946211947811,-0.4468451972228582,0.507515068284123
1658789525403998,0.8198977645532919,-0.4700389105058367,0.4986037994964523
1658789525419998,0.8249027237354083,-0.428290226596475,0.5062943465323873
1658789525435998,0.8238040741588462,-0.42755779354543355,0.49750514991989014
1658789525451997,0.8004882887006941,-0.4511177233539332,0.463691157396811
1658789525467997,0.786572060730907,-0.4310978866254671,0.41181048294804334
1658789525483978,0.781445029373617,-0.3065842679484243,0.3793392843518735
1658789525499978,0.7676508735790035,-0.1885404745555812,0.3696955825131605
1658789525515977,0.7410391393911651,-0.18927290760662263,0.3650568398565648
1658789525531977,0.7810788128480963,-0.2368810559243153,0.3661554894331269
1658789525547977,0.7709468223086899,-0.09137102311741829,0.31293202105745
1658789525563977,0.797680628671702,0.08355840390630931,0.2536049439230945
1658789525579977,0.7893797207598992,0.13836881055924355,0.21307698176546896
1658789525595976,0.7958495460440984,0.1041886015106428,0.2048981460288397
1658789525611976,0.7896238651102463,0.11859311818112417,0.20477607385366614
1658789525627976,0.7724116884107728,0.1788967727168691,0.19183642328526762
1658789525643976,0.7674067292286564,0.22919050888838033,0.1272602426184486
1658789525659976,0.7764400701915006,0.2680094605935759,0.038757915617608774
1658789525675975,0.8093995574883648,0.29083695735103365,0.0071412222476539
1658789525691975,0.8313725490196076,0.40167849240863696,0.042786297398336615
1658789525707975,0.7783932249942778,0.44196231021591537,0.05999847409781012
1658789525723975,0.7578850995651178,0.44879835202563534,0.0319218738078888
1658789525739975,0.7569085221637293,0.37018387121385476,-0.034851606012054503
1658789525755974,0.7658197909514,0.3919127183947513,-0.04718089570458517
1658789525771974,0.7423819333180743,0.5383993286030364,-0.09442282749675757
1658789525787974,0.7064927138170445,0.6254367895017934,-0.1060196841382468
1658789525803985,0.6719462882429239,0.5973601892118712,-0.1555809872587166
1658789525819985,0.6925764858472574,0.49787136644541086,-0.1547264820325016
1658789525835985,0.679026474402991,0.5102006561379415,-0.12640573739223315
1658789525851985,0.6662088960097661,0.6950179293507288,-0.13031204699778742
1658789525867984,0.6200656137941554,0.7642328526741435,-0.18048371099412508
1658789525883984,0.6153047989623861,0.6856183718623639,-0.23077744716563675
1658789525899984,0.6546120393682768,0.6215304798962382,-0.21454184786755182
1658789525915984,0.6071259632257568,0.6758525978484782,-0.1812161440451665
1658789525931984,0.555855649652857,0.7710688944838635,-0.17108415350576012
1658789525947983,0.5073929961089494,0.8617685206378267,-0.22662699320973534
1658789525963983,0.5116655222400244,0.8417486839093611,-0.2924238956282901
1658789525979983,0.5805142290379184,0.7438467994201572,-0.23150988021667818
1658789525995983,0.5651331349660484,0.7317616540779737,-0.17059586480506583
1658789526011983,0.48737315938048376,0.8755626764324411,-0.19085984588387905
1658789526027982,0.41901274128328403,0.9214618142977038,-0.2642252231631952
1658789526043982,0.41474021515220905,0.9049820706492717,-0.2910811017013808
1658789526059982,0.4494087129015032,0.8900892652780961,-0.29047074082551294
1658789526075982,0.43732356755931967,0.8030518043793391,-0.2444495307850767
1658789526091982,0.39374380102235484,0.8996108949416346,-0.24518196383611812
1658789526107981,0.3361257343404285,0.9744411383230336,-0.3115892271305407
1658789526123993,0.31488517586022713,1.0166781109330891,-0.3689631494621195
1658789526139992,0.35382619974059626,1.0165560387579156,-0.32758068207827895
1658789526155992,0.3930113679713134,1.0242465857938505,-0.24713511863889526
1658789526171992,0.37982757305256776,1.1303273060196846,-0.2709391927977416
1658789526187992,0.30975814450293715,1.1778133821622037,-0.3239185168230718
1658789526203992,0.33832303349355275,1.188799877927825,-0.3421072709239339
1658789526219991,0.38861676966506487,1.2799877927824825,-0.34393835355153746
1658789526235991,0.4162050812542919,1.4406347753109028,-0.3396658274204625
1658789526251991,0.3380788891432056,1.3409018081940944,-0.38519874876020443
1658789526267991,0.31598382543678927,1.3064774547951474,-0.39227893492027155
1658789526283990,0.3418631265735863,1.4486915388723585,-0.39313344014648655
1658789526299990,0.36273746852826694,1.616662851911192,-0.40399786373693436
1658789526315990,0.3527275501640341,1.5504997329671166,-0.4076600289921415
1658789526331990,0.34003204394598274,1.2611886778057526,-0.36163881895170524
1658789526347990,0.3620050354772255,1.4029144731822694,-0.36835278858625164
1658789526363989,0.3360036621652549,1.5242542153047989,-0.3832455939574273
1658789526379989,0.30731670099946573,1.4435645075150685,-0.3875181200885023
1658789526395989,0.29205767910276936,1.3178301670862895,-0.35492484931715884
1658789526411989,0.3444266422522313,1.361532005798428,-0.3211108567940797
1658789526427989,0.3058518348973829,1.382528419928283,-0.30341039139391146
1658789526443969,0.3003585870145722,1.293537804226749,-0.27777523460746156
1658789526459969,0.30890363927672215,1.285236896314946,-0.281925688563363
1658789526475969,0.3401541161211563,1.2284733348592356,-0.2902265964751658
1658789526491969,0.37494468604562403,1.3039139391165024,-0.2499427786678874
1658789526507969,0.3754329747463192,1.2882887006942854,-0.23126573586633103
1658789526523968,0.3755550469214928,1.111161974517433,-0.19171435111009405
1658789526539968,0.4090028229190512,0.9970244907301442,-0.21844815747310609
1658789526555968,0.4153505760280769,1.0332799267566948,-0.22186617837796607
1658789526571968,0.4683299000534067,1.085282673380636,-0.23407339589532317
1658789526587967,0.43903257801174966,1.0028839551384756,-0.18841840238040763
1658789526603967,0.4124208438239112,0.8085450522621498,-0.09234760051880686
1658789526619967,0.4270695048447397,0.682444495307851,-0.055848020141908705
1658789526635967,0.4061951628900591,0.6519264515144583,-0.07354848554207694
1658789526651967,0.43317311360341826,0.7558098725871671,-0.0972304875257497
1658789526667966,0.47528801403830023,0.6745098039215689,-0.07928587777523477
1658789526683966,0.5082475013351644,0.464545662623026,0.0022583352407110624
1658789526699966,0.5438925764858471,0.308659494926375,0.08453498130769788
1658789526715966,0.5421835660334171,0.31610589761196284,0.12030212863355416
1658789526731966,0.5573205157549399,0.461127641718166,0.06817730983443937
1658789526747965,0.5888151369497212,0.5042191195544365,0.02679484245059882
1658789526763977,0.6549782558937975,0.3683527885862512,0.08880750743877286
1658789526779976,0.693553063248646,0.1401998931868471,0.16827649347676843
1658789526795976,0.6966048676279852,-0.005310139620050336,0.1943999389639126
1658789526811976,0.6803692683299003,0.10675211718928779,0.18365758754863837
1658789526827976,0.6992904554818038,0.33990997177080917,0.0756237125200272
1658789526843976,0.7289539940489815,0.20965896086060898,0.07586785687037434
1658789526859975,0.7846189059281299,-0.03167772945754166,0.1310444800488293
1658789526875975,0.8225833524071104,-0.10785076676585037,0.21661707484550252
1658789526891975,0.7766842145418478,-0.1354390783550774,0.23651483939879459
1658789526907975,0.744457160296025,-0.08551155870908689,0.1923247119859619
1658789526923975,0.7600823987182421,0.005920500495918191,0.14557106889448423
1658789526939974,0.8054932478828105,-0.09784084840161755,0.21686121919584966
1658789526955974,0.8961928740367746,-0.1493553063248645,0.3277027542534521
1658789526971974,0.8794689860379954,-0.15362783245593947,0.34296177615014845
1658789526987974,0.8504158083466846,-0.30926985580224287,0.31683833066300426
1658789527003974,0.8632333867399096,-0.2595864805065995,0.3263599603265428
1658789527019973,0.9229266803997866,-0.1337300679026474,0.35419241626611697
1658789527035973,0.9286640726329445,-0.2103913939116504,0.4094911116197455
1658789527051973,0.8745860990310517,-0.3593194476234074,0.4245059891660947
1658789527067973,0.8054932478828105,-0.3772640573739223,0.43146410315098827
1658789527083953,0.8139162279697869,-0.3020675974670022,0.42182040131227616
1658789527099953,0.8241702906843669,-0.3306324864576182,0.4279240100709547
1658789527115953,0.8152590218966962,-0.4328068970778971,0.47186999313344025
1658789527131953,0.8042725261310748,-0.5296101319905393,0.4960402838178073
1658789527147953,0.7746089875638971,-0.5515831235217821,0.5148393987945372
1658789527163952,0.7824216067750056,-0.48273441672388806,0.5089799343862058
1658789527179952,0.7982909895475698,-0.48493171587701234,0.5145952544441901
1658789527195952,0.7893797207598992,-0.495551995117113,0.49958037689784085
1658789527211952,0.8208743419546805,-0.5250934615091172,0.5307087815671014
1658789527227952,0.8327153429465168,-0.4501411459525446,0.5329060807202257
1658789527243951,0.8395513847562368,-0.41889066910811,0.5338826581216143
1658789527259951,0.8471198596169982,-0.460273136491951,0.5171587701228351
1658789527275951,0.8183108262760355,-0.4931105516136416,0.4745555809872588
1658789527291951,0.7937743190661477,-0.41742580300602716,0.43451590753032754
1658789527307951,0.7868162050812542,-0.3324635690852218,0.44074158846417966
1658789527323950,0.7940184634164948,-0.2783855954833294,0.421576256961929
1658789527339950,0.789990081635767,-0.3075608453498129,0.3981383993286034
1658789527355950,0.7854734111543449,-0.31659418631265757,0.36066224155031623
1658789527371950,0.7653315022507057,-0.23334096284428174,0.3262378881513692
1658789527387950,0.7357900358587015,-0.20135805294880615,0.3020675974670022
1658789527403961,0.726268406195163,-0.17682154573891795,0.2919356069275958
1658789527419961,0.7438467994201572,-0.09503318837262542,0.27118333714808873
1658789527435960,0.7450675211718929,-0.04217593652246876,0.2238193331807432
1658789527451960,0.732249942778668,-0.021179522392614558,0.20148012512397973
1658789527467960,0.7204089417868316,0.05792324711985941,0.19244678416113548
1658789527483960,0.7277332722972458,0.07830930037384576,0.20929274433508827
1658789527499960,0.6942854962996874,0.1511863889524685,0.17755397878995982
1658789527515959,0.7023422598611431,0.1957427328908219,0.08844129091325215
1658789527531959,0.7097886625467309,0.18463416495002694,0.007629510948348184
1658789527547959,0.724559395742733,0.30841535057602787,-0.022400244144350268
1658789527563959,0.7448233768215458,0.48480964370183877,0.0038452735179674846
1658789527579959,0.7002670328831924,0.5064164187075608,-0.009094377050431035
1658789527595958,0.6491187914854661,0.385442893110552,-0.0905165178912033
1658789527611958,0.6845197222858017,0.3809262226291299,-0.13824673838406953
1658789527627958,0.6953841458762495,0.5435263599603264,-0.16131837949187444
1658789527643958,0.6666971847104604,0.595407034409094,-0.16083009079118016
1658789527659958,0.6281223773556119,0.6389868009460598,-0.2630045014114595
1658789527675957,0.5934538796063169,0.6188448920424197,-0.3399099717708096
1658789527691957,0.6061493858243683,0.6525368123903261,-0.32758068207827895
1658789527707957,0.5951628900587469,0.7869382772564277,-0.30304417486839075
1658789527723938,0.5893034256504155,0.8560311284046689,-0.3454032196536203
1658789527739937,0.5874723430228119,0.75214770733196,-0.4016784924086365
1658789527755937,0.5855191882200348,0.7333485923552301,-0.38678568703746086
1658789527771937,0.5515831235217821,0.7677729457541771,-0.36115053025101096
1658789527787937,0.5053177691309987,0.8765392538338297,-0.3353933012893875
1658789527803937,0.4691844052796217,1.0192416266117341,-0.4298771648737314
1658789527819936,0.42609292744335114,0.8981460288395517,-0.4845654993514916
1658789527835936,0.423285267414359,0.7594720378423743,-0.4168154421301593
1658789527851936,0.43781185626001395,0.7682612344548714,-0.34308384832532246
1658789527867936,0.3822690165560392,0.7847409781033035,-0.3201342793926911
1658789527883936,0.30304417486839075,0.9167009994659345,-0.3496757457846953
1658789527899935,0.25555809872587165,0.8949721522850389,-0.3954528114747844
1658789527915935,0.27362478065156015,0.9016861219195853,-0.37848477912565803
1658789527931935,0.2986495765621422,0.9951934081025406,-0.3178149080643933
1658789527947935,0.2612954909590295,1.0572060730907147,-0.35065232318608386
1658789527963935,0.21368734264133682,1.029495689326314,-0.44867627985046177
1658789527979934,0.25433737697413594,1.104936293583581,-0.44672312504768463
1658789527995934,0.3032883192187379,1.2325017166399634,-0.4256046387426564
1658789528011934,0.30060273136491933,1.2853589684901197,-0.46478980697337313
1658789528027934,0.2833905546654458,1.2722972457465476,-0.4896925307087816
1658789528043945,0.2730144197756923,1.2541084916456855,-0.48651865415426876
1658789528059945,0.35638971541924125,1.410727092393378,-0.5018997482261387
1658789528075945,0.36945143816281334,1.6372930495155265,-0.5110551613641565
1658789528091944,0.36725413900968906,1.6248416876478213,-0.497261005569543
1658789528107944,0.33539330128938705,1.4876325627527276,-0.4569771877622646
1658789528123944,0.34332799267566916,1.5038681620508125,-0.42572671091783
1658789528139944,0.350774395361257,1.5714961470969708,-0.424872205691615
1658789528155943,0.31317616540779714,1.4784771496147098,-0.457709620813306
1658789528171943,0.28827344167238866,1.366903181506065,-0.4691844052796217
1658789528187943,0.2855878538185701,1.4170748455024036,-0.4401312275883118
1658789528203943,0.2590981918059052,1.4294041351949343,-0.3961852445258258
1658789528219943,0.21515220874341967,1.3278400854505223,-0.35187304493781957
1658789528235942,0.2146639200427254,1.2746166170748454,-0.3720149538414588
1658789528251942,0.2838788433661401,1.3874113069352259,-0.3949645227740901
1658789528267942,0.3334401464866099,1.4270847638666364,-0.38605325398641943
1658789528283942,0.3406424048218506,1.2641184100099183,-0.3252613107499811
1658789528299942,0.32318608377202995,1.1110399023422595,-0.2583657587548638
1658789528315941,0.3213550011444264,1.1201953154802773,-0.2623941405355916
1658789528331941,0.3192797741664757,1.2166323338673992,-0.2661783779659723
1658789528347941,0.34418249790188415,1.2226138704509042,-0.276798657206073
1658789528363952,0.36273746852826694,1.1093308918898295,-0.2714274814984359
1658789528379952,0.38825055313954415,0.8185549706263826,-0.23260852979324032
1658789528395952,0.40924696726939835,0.9042496375982303,-0.1867093919279772
1658789528411952,0.35016403448538913,0.96748302433814,-0.19879453727016116
1658789528427951,0.3230640115968564,0.8693369954985881,-0.19769588769359903
1658789528443951,0.3809262226291299,0.7255359731441215,-0.1893949797817962
1658789528459951,0.38153658350499775,0.5779507133592734,-0.1497215228503852
1658789528475951,0.4417181658655682,0.5377889677271686,-0.1047989623865111
1658789528491951,0.4597848477912567,0.4841992828259709,-0.05035477225909801
1658789528507950,0.47357900358587024,0.49542992294193944,0.001159685664148924
1658789528523950,0.4939650568398566,0.4793163958190281,0.031311512932020946
1658789528539950,0.5192339971007858,0.42230869001297044,0.03704890516517878
1658789528555950,0.5915007248035398,0.2705729762722209,0.07501335164415934
1658789528571950,0.6665751125352868,0.1642481116960406,0.15008773937590636
1658789528587949,0.7114976729991609,0.1663233386739913,0.22064545662623036
1658789528603949,0.6666971847104604,0.18829633020523406,0.1978179598687726
1658789528619949,0.6225070572976268,0.11859311818112417,0.17657740138857125
1658789528635949,0.6575417715724425,0.14496070801861638,0.1491111619745178
1658789528651949,0.6977035172045474,0.11822690165560346,0.19745174334325188
1658789528667948,0.7796139467460135,0.027161058976119534,0.2571450370031281
1658789528683929,0.7907225146868084,-0.17438010223544653,0.28070496681162727
1658789528699929,0.7702143892576485,-0.23321889066910817,0.2886396581979094
1658789528715929,0.7820553902494849,-0.04510566872663446,0.23504997329671173
1658789528731928,0.7824216067750056,0.14337376974135996,0.19745174334325188
1658789528747928,0.779736018921187,0.02130159456778813,0.21185626001373326
1658789528763928,0.837232013427939,-0.26398107881284805,0.27875181200885013
1658789528779928,0.8932631418326089,-0.38214694438086516,0.2977950713359272
1658789528795928,0.9208514534218359,-0.21954680704966822,0.28583199816891725
1658789528811927,0.9027847714961474,-0.07037460898756409,0.2830243381399251
1658789528827927,0.8666514076447696,-0.1275043869687953,0.30133516441596075
1658789528843927,0.879591058213169,-0.31622796978713685,0.3356374456397342
1658789528859927,0.8976577401388575,-0.33942168307011533,0.3667658503089948
1658789528875927,0.912306401159686,-0.2714274814984359,0.3339284351873042
1658789528891926,0.9198748760204474,-0.3307545586327918,0.35590142671854696
1658789528907926,0.9069352254520489,-0.36127260242618453,0.3674982833600362
1658789528923926,0.8800793469138632,-0.36920729381246664,0.38947127489127986
1658789528939926,0.8501716639963375,-0.3037766079194322,0.4127870603494319
1658789528955926,0.8330815594720375,-0.27740901808194085,0.4376897840848404
1658789528971925,0.8179446097505148,-0.37372396429388877,0.4931105516136416
1658789528987925,0.7953612573434041,-0.4931105516136416,0.4893263141832609
1658789529003936,0.797680628671702,-0.5448691538872357,0.4666208896009767
1658789529019936,0.8166018158236055,-0.5166704814221408,0.44586861982146964
1658789529035936,0.8402838178072782,-0.46051728084229815,0.4426947432669568
1658789529051936,0.8307621881437397,-0.4155947203784236,0.42352941176470615
1658789529067936,0.8335698481727318,-0.4290226596475164,0.4379339284351875
1658789529083935,0.8465094987411304,-0.43085374227511997,0.4635690852216374
1658789529099935,0.8490730144197753,-0.4087586785687036,0.4545357442587932
1658789529115935,0.8627450980392153,-0.3848325322346837,0.43280689707789755
1658789529131935,0.8501716639963375,-0.3808041504539559,0.39752803845273554
1658789529147935,0.8375982299534597,-0.35944151979858097,0.3814145113298242
1658789529163934,0.8275883115892269,-0.3307545586327918,0.37323567559319404
1658789529179934,0.8001220721751734,-0.3067063401235979,0.33661402304112276
1658789529195934,0.7912108033875027,-0.2910811017013808,0.3117112993057143
1658789529211934,0.7927977416647591,-0.2301670862897689,0.2864423590447851
1658789529227934,0.7909666590371556,-0.17267109178301654,0.26569008926527804
1658789529243933,0.8069581139848934,-0.1362935835812924,0.2647135118638895
1658789529259933,0.8075684748607612,-0.11749446860456247,0.275089646753643
1658789529275933,0.7801022354467078,-0.056946669718470844,0.23553826199740602
1658789529291933,0.8021972991531241,-0.016540779736018862,0.19562066071564832
1658789529307932,0.8012207217517355,0.01617456321049815,0.1890287632562755
1658789529323913,0.7886472877088577,0.08978408484016143,0.1456931410696578
1658789529339913,0.7510490577553979,0.13275349050125929,0.08453498130769788
1658789529355913,0.7357900358587015,0.1155413138017849,0.08001831082627575
1658789529371913,0.7614251926451514,0.2666666666666666,0.0831921873807886
1658789529387912,0.76752880140383,0.44867627985046177,0.041443503471427334
1658789529403912,0.7645990691996642,0.42951094834821113,-0.020813305867093845
1658789529419912,0.7724116884107728,0.2439612420843824,-0.003356984817273201
1658789529435912,0.7775387197680628,0.45123979552910676,0.01104753185320817
1658789529451912,0.7655756466010528,0.5668421454184784,-0.025085831998168828
1658789529467911,0.76069275959411,0.5463340199893185,-0.054383154039825854
1658789529483911,0.7525139238574807,0.5227740901808193,-0.12530708781567101
1658789529499911,0.720286869611658,0.5436484321355,-0.16266117341878372
1658789529515911,0.6970931563286795,0.6615701533531704,-0.17303730830853725
1658789529531911,0.724559395742733,0.7575188830395971,-0.20807202258335256
1658789529547910,0.7020981155107959,0.6153047989623861,-0.2747234302281223
1658789529563910,0.6906233310444803,0.504951552605478,-0.2628824292362859
1658789529579910,0.6630350194552532,0.6253147173266198,-0.21698329137102323
1658789529595910,0.6115205615320054,0.828686961165789,-0.21356527046616325
1658789529611909,0.5526817730983442,0.8496833752956432,-0.30353246356908503
1658789529627909,0.6026092927443347,0.7052719920653088,-0.3003585870145722
1658789529643921,0.6802471961547267,0.6684061951628903,-0.20563057907988114
1658789529659920,0.6312962539101248,0.7147936217288473,-0.17718776226443866
1658789529675920,0.5449912260624092,0.8166018158236055,-0.24164187075608456
1658789529691920,0.5122758831158922,0.8234378576333254,-0.2678873884184023
1658789529707920,0.5285114824139772,0.9160906385900667,-0.27740901808194085
1658789529723919,0.5423056382085907,0.7965819790951398,-0.24408331425955598
1658789529739919,0.52314030670634,0.8377203021286332,-0.17608911268787653
1658789529755919,0.4649118791485467,1.0667277027542532,-0.2653238727397573
1658789529771919,0.4074158846417948,0.9419699397268637,-0.34991989013504243
1658789529787919,0.46845197222858026,0.8802014190890368,-0.3471122301060503
1658789529803918,0.4728465705348288,0.8953383688105596,-0.317326619363699
1658789529819918,0.4404974441138325,0.899488822766461,-0.31061264972915215
1658789529835918,0.3838559548332956,0.948439765011063,-0.3463797970550089
1658789529851918,0.3279468986037992,1.0127718013275349,-0.3601739528496224
1658789529867918,0.36224917982757265,1.0678263523308154,-0.34515907530327317
1658789529883917,0.40045777065690125,1.061112382696269,-0.3019455252918286
1658789529899917,0.385442893110552,1.0196078431372548,-0.30182345311665504
1658789529915917,0.34845502403295914,1.0160677500572213,-0.3214770733196004
1658789529931917,0.3306324864576178,1.1491264209964145,-0.30939192797741644
1658789529947917,0.3721370260166319,1.320515754940108,-0.3202563515678647
1658789529963897,0.3397878995956356,1.2278629739833677,-0.32587167162584896
1658789529979897,0.33881132219424703,1.0202182040131227,-0.32709239337758467
1658789529995897,0.33832303349355275,1.0796673533226517,-0.3135423819333183
1658789530011897,0.32916762035553493,1.2325017166399634,-0.34149691004806604
1658789530027897,0.27704280155642014,1.3028152895399403,-0.3562676432440681
1658789530043896,0.2611734187838559,1.19136339360647,-0.3438162813763639
1658789530059896,0.3318532082093535,1.2344548714427406,-0.29755092698558006
1658789530075896,0.38287937743190703,1.310017547875181,-0.2621499961852445
1658789530091896,0.350774395361257,1.2899977111467154,-0.23883421072709243
1658789530107895,0.29010452429999223,1.2410467689021134,-0.27203784237430373
1658789530123895,0.30218966964217575,1.2433661402304113,-0.28705271992065295
1658789530139895,0.3317311360341799,1.2936598764019225,-0.31415274280918615
1658789530155895,0.34467078660257844,1.2663157091630426,-0.28876173037308295
1658789530171895,0.32355230029755067,1.213824673838407,-0.275089646753643
1658789530187894,0.31512932021057427,1.154375524528878,-0.26642252231631947
1658789530203894,0.33124284733348563,1.1538872358281838,-0.24310673685816742
1658789530219894,0.34381628137636344,1.2100404364080264,-0.24090943770504314
1658789530235894,0.35382619974059626,1.1700007629510951,-0.2410315098802167
1658789530251894,0.3729915312428469,1.0794232089723046,-0.23968871595330743
1658789530267893,0.4169375143053333,1.0442664225223162,-0.22772564278629748
1658789530283905,0.43060959792477327,1.1408255130846117,-0.20904859998474112
1658789530299904,0.40582894636453837,1.1675593194476237,-0.20856031128404684
1658789530315904,0.42560463874265686,1.067338063630121,-0.1890287632562755
1658789530331904,0.47516594186312666,0.9856717784390021,-0.201968413824674
1658789530347904,0.49030289158464946,1.0009308003356985,-0.1931792172121769
1658789530363904,0.5087357900358587,1.007888914320592,-0.17767605096513295
1658789530379903,0.47772945754177165,0.9311055161364159,-0.20172426947432687
1658789530395903,0.4843213550011445,0.8461432822156096,-0.2066071564812697
1658789530411903,0.5247272449835965,0.9136491950865953,-0.18841840238040763
1658789530427903,0.5708705271992063,0.8731212329289688,-0.15484855420767518
1658789530443903,0.5551232166018156,0.7852292668039977,-0.11419851987487606
1658789530459902,0.5269245441367207,0.6225070572976268,-0.11932555123216604
1658789530475902,0.5354695963988707,0.5886930647745476,-0.10028229190508897
1658789530491902,0.6085908293278397,0.8396734569314104,-0.13495078965438312
1658789530507902,0.6054169527733269,0.7733882658121614,-0.13031204699778742
1658789530523902,0.6280003051804384,0.5242389562829022,-0.032410162508583085
1658789530539901,0.642893110551614,0.41632715342946547,0.03680476081483164
1658789530555901,0.6305638208590834,0.4461127641718168,0.032410162508583085
1658789530571901,0.6614480811779968,0.5940642404821848,-0.023498893720912406
1658789530587901,0.6872053101396203,0.6605935759517818,-0.04058899824521234
1658789530603912,0.706614785992218,0.4289005874723433,0.007995727473868897
1658789530619912,0.7256580453192951,0.17621118486305054,0.07965209430075504
1658789530635912,0.7135728999771116,0.12701609826810145,0.10431067368581637
1658789530651911,0.707469291218433,0.2661783779659723,0.07244983596551435
1658789530667911,0.7152819104295416,0.44538033112077535,0.0060425726710917615
1658789530683911,0.7343251697566187,0.3117112993057143,0.04376287479972518
1658789530699911,0.784863050278477,0.02789349202716096,0.13446250095368928
1658789530715911,0.8102540627145798,-0.12884718089570457,0.20355535210193043
1658789530731910,0.795971618219272,0.00970473792629889,0.2133211261158161
1658789530747910,0.8068360418097198,0.2016021972991533,0.10943770504310635
1658789530763910,0.8206301976043333,0.1721828030823227,0.11602960250247918
1658789530779910,0.854566262302586,0.025574120698863112,0.19000534065766406
1658789530795910,0.8756847486076147,-0.13067826352330814,0.25470359349965666
1658789530811909,0.8512703135728996,-0.20892652780956755,0.24676890211337454
1658789530827909,0.8379644464789804,-0.12726024261844815,0.2280918593118182
1658789530843909,0.8634775310902567,0.026916914625772392,0.19073777370870548
1658789530859909,0.8894789044022282,-0.03546196688792236,0.238101777676051
1658789530875908,0.9408712901503016,-0.25592431525139236,0.31512932021057427
1658789530891908,0.9351338979171437,-0.36542305638208594,0.3347829404135192
1658789530907908,0.8871595330739304,-0.28754100862134724,0.31610589761196284
1658789530923889,0.8667734798199431,-0.16925307087815655,0.2888838025482565
1658789530939889,0.8452887769893946,-0.13409628442816812,0.33026626993209707
1658789530955888,0.8755626764324411,-0.19391165026321833,0.3489433127336534
1658789530971888,0.9090104524299996,-0.3344167238879989,0.3830014496070806
1658789530987888,0.9470969710841537,-0.3790951400015259,0.37860685130083205
1658789531003888,0.9325703822384988,-0.3194018463416497,0.36737621118486263
1658789531019888,0.9086442359044788,-0.2932784008545051,0.3532158388647284
1658789531035887,0.8843518730449382,-0.3248950942244604,0.39411001754787556
1658789531051887,0.8552986953536275,-0.32050049591821184,0.43830014496070824
1658789531067887,0.8382085908293275,-0.30048065918974576,0.43610284580758396
1658789531083887,0.8207522697795069,-0.3739681086442359,0.419867246509499
1658789531099887,0.8266117341878383,-0.44489204242008107,0.41181048294804334
1658789531115886,0.8318608377203018,-0.3959411001754787,0.40961318379491907
1658789531131886,0.8435797665369646,-0.36285954070344095,0.4120546272983905
1658789531147886,0.8533455405508503,-0.36505683985656523,0.42145418478675545
1658789531163886,0.863965819790951,-0.3743343251697566,0.41937895780880474
1658789531179885,0.8642099641412981,-0.34650186923018245,0.42267490653849116
1658789531195885,0.8773937590600447,-0.32330815594720397,0.4339055466544597
1658789531211885,0.8878919661249718,-0.3253833829251547,0.4387884336614025
1658789531227885,0.8850843060959797,-0.35199511711299314,0.4317082475013354
1658789531243896,0.8755626764324411,-0.30475318532082074,0.421576256961929
1658789531259896,0.8531013962005032,-0.24933241779201953,0.40668345159075336
1658789531275896,0.8341802090485997,-0.2091706721599147,0.39423208972304913
1658789531291895,0.8339360646982525,-0.23993286030365457,0.3825131609063863
1658789531307895,0.854566262302586,-0.240665293354696,0.36188296330205194
1658789531323895,0.8504158083466846,-0.2133211261158161,0.3392996108949413
1658789531339895,0.820141908903639,-0.18146028839551365,0.3255054551003278
1658789531355895,0.7912108033875027,-0.14483863584344236,0.3132982375829707
1658789531371894,0.7766842145418478,-0.08856336308842616,0.2976729991607536
1658789531387894,0.8008545052262148,-0.06366063935301769,0.2746013580529487
1658789531403894,0.8205081254291597,-0.06292820630197626,0.25726710917830165
1658789531419894,0.819287403677424,-0.05865568017090084,0.2645914396887159
1658789531435894,0.7704585336079957,0.001159685664148924,0.23968871595330743
1658789531451893,0.7559319447623407,0.03289845120927737,0.17071793698023985
1658789531467893,0.7645990691996642,0.1398336766613264,0.12018005645838059
1658789531483893,0.7904783703364613,0.20782787823300541,0.11444266422522276
1658789531499893,0.7931639581902798,0.2726482032501716,0.14557106889448423
1658789531515893,0.7549553673609521,0.2747234302281223,0.11688410772869418
1658789531531892,0.7144274052033266,0.2153963530937668,0.047913328755626594
1658789531547892,0.7340810254062715,0.271671625848783,-0.04351873044937804
1658789531563873,0.7693598840314335,0.3977721828030827,-0.05426108186465228
1658789531579873,0.7468986037994965,0.4031433585107198,-0.04718089570458517
1658789531595873,0.7144274052033266,0.46857404440375383,-0.06512550545510054
1658789531611872,0.6814679179064624,0.46674296177615027,-0.12652780956740672
1658789531627872,0.681589990081636,0.4732127870603495,-0.1555809872587166
1658789531643872,0.7182116426337073,0.499824521248188,-0.13604943923094526
1658789531659872,0.7210193026626994,0.6499732967116811,-0.12884718089570457
1658789531675871,0.6820782787823303,0.6276340886549177,-0.16266117341878372
1658789531691871,0.6518043793392847,0.5585412375066756,-0.20294499122606258
1658789531707871,0.6260471503776612,0.6380102235446712,-0.18133821622034008
1658789531723871,0.5739223315785456,0.8054932478828105,-0.1885404745555812
1658789531739871,0.5651331349660484,0.8552986953536275,-0.24090943770504314
1658789531755870,0.5879606317235062,0.8422369726100554,-0.3057297627222093
1658789531771870,0.607370107576104,0.6801251239795532,-0.26739909971770803
1658789531787870,0.5481651026169221,0.677317463950561,-0.23614862287327387
1658789531803870,0.4795605401693752,0.8827649347676818,-0.29034866865033937
1658789531819870,0.47345693141069667,1.0513466086823833,-0.3530937666895553
1658789531835869,0.46894026092927454,0.9236591134508281,-0.38385595483329515
1658789531851869,0.48786144808117804,0.7948729686427098,-0.35187304493781957
1658789531867869,0.462836652170596,0.825268940260929,-0.3273365377279318
1658789531883880,0.40582894636453837,0.8845960173952854,-0.34308384832532246
1658789531899880,0.3356374456397342,1.0456092164492254,-0.389593347066453
1658789531915880,0.3486991683833063,0.9695582513160907,-0.4426947432669568
1658789531931880,0.35724422064545625,0.9031509880216682,-0.41193255512321647
1658789531947879,0.4064393072404062,0.9807888914320593,-0.36664377813382165
1658789531963879,0.34747844663157057,0.9950713359273671,-0.34772259098191816
1658789531979879,0.28827344167238866,1.0048371099412527,-0.36920729381246664
1658789531995879,0.29633020523384435,1.0541542687113754,-0.39740596627756153
1658789532011879,0.3251392385748071,1.135332265201801,-0.3992370489051651
1658789532027878,0.36603341725795335,1.148393987945373,-0.381902800030518
1658789532043878,0.31476310368505356,1.0545204852368961,-0.37750820172426947
1658789532059878,0.2692301823453116,1.0540321965362018,-0.40363164721141365
1658789532075878,0.22858014801251247,1.0789349202716103,-0.40241092545967794
1658789532091878,0.273380636301213,1.2201724269474328,-0.4064393072404058
1658789532107877,0.2940108339055465,1.287800411993591,-0.3744563973449302
1658789532123877,0.27069504844739445,1.188555733577478,-0.34821087968261244
1658789532139877,0.27325856412603944,1.1796444647898072,-0.35358205539024956
1658789532155877,0.30133516441596075,1.4533302815289542,-0.3966735332265201
1658789532171877,0.3292896925307085,1.5214465552758067,-0.4256046387426564
1658789532187876,0.3014572365911343,1.3636072327763786,-0.41571679255359717
1658789532203888,0.2918135347524222,1.2006408789196614,-0.3944762340733958
1658789532219887,0.3012130922407872,1.2845044632639047,-0.38300144960708016
1658789532235887,0.31183337148088786,1.3744716563668264,-0.4054627298390172
1658789532251887,0.28375677119096654,1.3462729839017316,-0.43720149538414566
1658789532267887,0.2654459449149309,1.1741512169069965,-0.39850461585412367
1658789532283887,0.28827344167238866,1.1953917753871979,-0.35992980849927525
1658789532299886,0.2944991226062408,1.2637521934843976,-0.32721446555275824
1658789532315886,0.26349279011215376,1.260212100404364,-0.3202563515678647
1658789532331886,0.2764324406805523,1.1674372472724501,-0.3142748149843597
1658789532347886,0.34296177615014845,1.0840619516289003,-0.29010452429999223
1658789532363886,0.37982757305256776,1.1667048142214087,-0.27789730678263513
1658789532379885,0.3716487373159376,1.164629587243458,-0.2654459449149309
1658789532395885,0.3642023346303498,1.0626993209735254,-0.2435950255588617
1658789532411885,0.3771419851987492,0.9745632104982072,-0.2595864805065995
1658789532427885,0.4313420309758147,1.0186312657358663,-0.24164187075608456
1658789532443884,0.4881055924315252,1.0614785992217897,-0.23590447852292673
1658789532459884,0.47443350881208524,1.014724956130312,-0.20807202258335256
1658789532475884,0.45636682688639674,0.8462653543907832,-0.20526436255436042
1658789532491884,0.48786144808117804,0.7810788128480963,-0.21222247653925397
1658789532507884,0.48688487067978947,0.8102540627145798,-0.2171053635461968
1658789532523864,0.5200885023270008,0.782299534599832,-0.20770580605783184
1658789532539864,0.4951857785915923,0.7432364385442893,-0.204531929503319
1658789532555864,0.4918898298619059,0.6282444495307855,-0.17022964827954512
1658789532571864,0.5436484321355,0.6040741588464176,-0.1552147707331959
1658789532587864,0.598825055313954,0.6286106660563062,-0.12799267566948958
1658789532603863,0.6286106660563062,0.6175020981155104,-0.09649805447470827
1658789532619863,0.642038605325399,0.5363241016250857,-0.05230792706187515
1658789532635863,0.6260471503776612,0.4566109712367439,-0.056946669718470844
1658789532651863,0.657419699397269,0.4446478980697339,-0.03668268863965807
1658789532667863,0.7273670557717251,0.5501182574196992,-0.025818265049210254
1658789532683862,0.7342030975814451,0.5608606088349735,-0.014465552758068156
1658789532699862,0.7149156939040209,0.36261539635309337,0.00579842832074462
1658789532715862,0.7003891050583659,0.2179598687724118,0.018371862363622427
1658789532731862,0.727977416647593,0.3019455252918286,0.02923628595407024
1658789532747861,0.7726558327611199,0.4557564660105289,0.007507438773174613
1658789532763861,0.7864499885557334,0.43707942320897253,0.04229800869764233
1658789532779861,0.7859616998550392,0.26727702754253446,0.07794308384832505
1658789532795861,0.795971618219272,0.05401693751430514,0.12530708781567146
1658789532811861,0.8073243305104141,0.14557106889448423,0.12750438696879574
1658789532827860,0.8056153200579841,0.3674982833600362,0.08270389868009431
1658789532843872,0.801098649576562,0.41132219424734906,0.0319218738078888
1658789532859871,0.8441901274128325,0.11798275730525631,0.053284504463263715
1658789532875871,0.910597390707256,0.01739528496223386,0.15130846112764207
1658789532891871,0.9297627222095066,0.07513542381933291,0.19452201113908618
1658789532907871,0.8791027695124747,0.14728007934691423,0.19183642328526762
1658789532923871,0.8412603952086668,0.18805218585488692,0.130556191348135
1658789532939870,0.8367437247272447,0.06561379415579438,0.13080033569848215
1658789532955870,0.8749523155565724,0.028381780727855244,0.18744182497901907
1658789532971870,0.8979018844892046,0.021789883268482413,0.243228809033341
1658789532987870,0.8675059128709846,-0.07354848554207694,0.2537270160982681
1658789533003870,0.8457770656900889,-0.12506294346532387,0.25128557259479667
1658789533019869,0.8350347142748147,-0.09576562142366685,0.23175402456702532
1658789533035869,0.8808117799649047,-0.015442130159456724,0.25262836652170595
1658789533051869,0.896070801861601,0.018249790188448856,0.29303425650415793
1658789533067869,0.8963149462119482,-0.13104448004882885,0.3519951171129927
1658789533083869,0.8688487067978938,-0.1765774013885708,0.3743343251697562
1658789533099868,0.8645761806668188,-0.1677882047760737,0.36554512855725907
1658789533115868,0.9250019073777374,-0.14312962539101237,0.3793392843518735
1658789533131868,0.9459983215075916,-0.10785076676585037,0.39667353322652055
1658789533147868,0.9219501029983981,-0.19098191805905262,0.4014343480582898
1658789533163849,0.8883802548256661,-0.2570229648279545,0.42401770046540044
1658789533179848,0.8893568322270546,-0.238101777676051,0.41644922560463904
1658789533195848,0.9141374837872895,-0.1948882276646069,0.40338750286106695
1658789533211848,0.9141374837872895,-0.2280918593118182,0.3989929045548184
1658789533227848,0.912306401159686,-0.2982833600366215,0.4044861524376291
1658789533243847,0.9060807202258339,-0.35992980849927525,0.43109788662546755
1658789533259847,0.9151140611886781,-0.28155947203784226,0.46564431219958813
1658789533275847,0.8755626764324411,-0.2229648279545282,0.44867627985046177
1658789533291847,0.8426031891355761,-0.3333180743114368,0.4607614251926453
1658789533307847,0.8152590218966962,-0.35565728236820027,0.47345693141069667
1658789533323846,0.817578393224994,-0.3627374685282674,0.4581979095140003
1658789533339846,0.8527351796749825,-0.3572442206454567,0.47186999313344025
1658789533355846,0.8570077058060575,-0.32928969253070894,0.44379339284351893
1658789533371846,0.8489509422446018,-0.33380636301213107,0.4116884107728698
1658789533387846,0.8551766231784539,-0.30438696879530003,0.42267490653849116
1658789533403845,0.8635996032654303,-0.2477454795147631,0.4304875257495997
1658789533419845,0.8786144808117804,-0.24261844815747313,0.432684824902724
1658789533435845,0.8740978103303574,-0.2663004501411459,0.3988708323796448
1658789533451845,0.854566262302586,-0.27240405889982444,0.3716487373159376
1658789533467845,0.8524910353246353,-0.18646524757763006,0.35553521019302625
1658789533483856,0.8336919203479054,-0.18536659800106792,0.3246509498741128
1658789533499856,0.8535896849011975,-0.1820706492713815,0.30560769054703574
1658789533515855,0.8535896849011975,-0.1392233157854581,0.29169146257724865
1658789533531855,0.8302738994430454,-0.08453498130769832,0.2642252231631952
1658789533547855,0.8352788586251618,-0.018127718013275285,0.2418860151064317
1658789533563855,0.8649423971923396,0.04461738002594018,0.1965972381170369
1658789533579855,0.8976577401388575,0.04864576180666802,0.1625391012436106
1658789533595854,0.8823987182421611,-0.02801556420233453,0.21149004348821254
1658789533611854,0.8415045395590139,0.04730296787975874,0.1965972381170369
1658789533627854,0.8157473105973905,0.2074616617074847,0.1423971923399714
1658789533643854,0.8246585793850612,0.24884412909132525,0.06695658808270366
1658789533659854,0.8393072404058897,0.11309987029831348,0.03985656519417091
1658789533675853,0.8573739223315782,0.201968413824674,0.057190814068817986
1658789533691853,0.8412603952086668,0.4364690623331047,0.050720988784618726
1658789533707853,0.8007324330510412,0.39581902800030555,0.0327763790341038
1658789533723853,0.8119630731670098,0.2510414282444495,0.010070954451819603
1658789533739853,0.8379644464789804,0.24628061341268026,-0.014709697108415298
1658789533755852,0.8451667048142211,0.34381628137636344,-0.033875028610665936
1658789533771852,0.8274662394140533,0.5130083161669337,-0.05621423666742942
1658789533787852,0.7941405355916684,0.52484931715877,-0.10455481803616395
1658789533803833,0.7785152971694513,0.3876401922636763,-0.11602960250247962
1658789533819832,0.7898680094605934,0.39703974975204126,-0.10028229190508897
1658789533835832,0.7371328297856108,0.5719691767757684,-0.08709849698634331
1658789533851832,0.725413900968948,0.6243381399252304,-0.127016098268101
1658789533867832,0.7067368581673916,0.5081254291599908,-0.1774319066147858
1658789533883832,0.7473868925001907,0.4632028686961167,-0.15887693598840302
1658789533899831,0.7270008392462044,0.6018768596932933,-0.1328755626764324
1658789533915831,0.6686503395132375,0.6466773479819947,-0.11725032425421533
1658789533931831,0.6413061722743576,0.6863508049134053,-0.1820706492713815
1658789533947831,0.6216525520714118,0.560128175783932,-0.22796978713664462
1658789533963831,0.6367895017929355,0.509224078736553,-0.19342336156252404
1658789533979830,0.617624170290684,0.6724345769436182,-0.16559090562294942
1658789533995830,0.5722133211261156,0.860547798886091,-0.2100251773861297
1658789534011830,0.5364461738002593,0.8053711757076369,-0.2764324406805523
1658789534027830,0.5894254978255891,0.6476539253833833,-0.2687418936446173
1658789534043830,0.6083466849774926,0.690135042343786,-0.2003814755474176
1658789534059829,0.5748989089799341,0.7998779278248263,-0.20563057907988114
1658789534075829,0.5228961623559929,0.8858167391470211,-0.26483558403906304
1658789534091829,0.5055619134813458,0.833813992523079,-0.32635996032654324
1658789534107829,0.49115739681086446,0.7201647974364844,-0.2974288548104065
1658789534123840,0.4690623331044481,0.8169680323491262,-0.26105134660868234
1658789534139840,0.42523842221713615,0.948439765011063,-0.2611734187838559
1658789534155840,0.35895323109788624,0.9607690547035936,-0.321599145494774
1658789534171839,0.3645685511558705,0.8108644235904476,-0.36664377813382165
1658789534187839,0.35931944762340695,0.7786373693446249,-0.3307545586327918
1658789534203839,0.38068207827878275,0.8640878919661246,-0.305241474021515
1658789534219839,0.35089646753643056,0.9713893339436943,-0.32843518730449395
1658789534235839,0.28656443121995867,0.9899443045700771,-0.3617608911268788
1658789534251838,0.26312657358663305,0.8864271000228889,-0.3644464789806974
1658789534267838,0.2804608224612801,0.8357671473258561,-0.3176928358892197
1658789534283838,0.2737468528267337,1.0442664225223162,-0.3286793316548411
1658789534299838,0.2377355611505303,1.1317921721217674,-0.33856717784390034
1658789534315837,0.20392156862745114,1.0370641641870755,-0.37750820172426947
1658789534331837,0.2100251773861297,0.9540550850690472,-0.3916685740444037
