Timestamp (microseconds),Accel X (g),Accel Y (g),Accel Z (g)
1658789930845520,-0.1686427100022887,0.9678492408636608,0.2897383077744715
1658789930861517,-0.16302738994430443,0.9679713130388343,0.2977950713359272
1658789930877514,-0.16168459601739515,0.968337529564355,0.3079270618753336
1658789930893512,-0.15448233768215447,0.954421301594568,0.3096360723277636
1658789930909509,-0.15130846112764162,0.9572289616235601,0.2893720912489508
1658789930925507,-0.1547264820325016,0.9641870756084536,0.28741893644617367
1658789930941504,-0.16046387426565945,0.9600366216525522,0.29510948348210864
1658789930957502,-0.1610742351415273,0.9595483329518579,0.28278019378957797
1658789930973499,-0.16266117341878372,0.9650415808346686,0.2692301823453116
1658789930989496,-0.167421988250553,0.9619897764553293,0.27203784237430373
1658789931005494,-0.16913099870298298,0.9585717555504694,0.2818036163881894
1658789931021491,-0.15545891508354304,0.9528343633173115,0.2868085755703058
1658789931037489,-0.15570305943389018,0.9451438162813766,0.2852216372930494
1658789931053486,-0.16009765774013873,0.9462424658579387,0.29462119478141435
1658789931069483,-0.16498054474708157,0.9636987869077593,0.29254596780346365
1658789931085481,-0.16437018387121372,0.9824979018844893,0.2944991226062408
1658789931101478,-0.15460440985732804,0.9638208590829329,0.2965743495841915
1658789931117476,-0.16095216296635373,0.9323262378881516,0.2932784008545051
1658789931133473,-0.16241702906843658,0.948439765011063,0.2847333485923551
1658789931149470,-0.1502098115510795,0.9586938277256429,0.2976729991607536
1658789931165466,-0.1426413366903181,0.9419699397268637,0.2969405661097122
1658789931181463,-0.15582513160906375,0.946730754558633,0.29498741130693507
1658789931197461,-0.15008773937590592,0.9690699626153965,0.3024338139925229
1658789931213458,-0.1392233157854581,0.9604028381780729,0.3010910200656136
1658789931229456,-0.1455710688944838,0.9413595788509959,0.31317616540779714
1658789931245453,-0.15301747158007162,0.9357442587930116,0.3267261768520635
1658789931261450,-0.14984359502555877,0.9578393224994279,0.33881132219424703
1658789931277448,-0.1455710688944838,0.9715114061188679,0.3367360952162963
1658789931293445,-0.14728007934691378,0.97944609750515,0.32562752727550137
1658789931309443,-0.14203097581445023,0.9799343862058443,0.31219958800640857
1658789931325440,-0.13189898527504385,0.9701686121919586,0.3019455252918286
1658789931341437,-0.12860303654535743,0.9513694972152287,0.28583199816891725
1658789931357435,-0.1383688105592431,0.9418478675516901,0.2781414511329823
1658789931373432,-0.13360799572747384,0.950148775463493,0.2952315556572822
1658789931389430,-0.12677195391775387,0.9333028152895402,0.28741893644617367
1658789931405427,-0.1354390783550774,0.9163347829404138,0.2919356069275958
1658789931421424,-0.14654764629587236,0.9257343404287788,0.30475318532082074
1658789931437422,-0.14630350194552522,0.9497825589379723,0.30438696879530003
1658789931453419,-0.14068818188754095,0.9650415808346686,0.30048065918974576
1658789931469417,-0.1450827801937895,0.9551537346456094,0.30170138094148147
1658789931485382,-0.16034180209048587,0.9574731059739072,0.3057297627222093
1658789931501379,-0.15301747158007162,0.9813992523079271,0.3031662470435643
1658789931517377,-0.13482871747920955,0.9771267261768521,0.2938887617303729
1658789931533374,-0.12457465476462959,0.9425803006027316,0.30182345311665504
1658789931549371,-0.13873502708476382,0.9154802777141988,0.29755092698558006
1658789931565369,-0.15204089417868305,0.941603723201343,0.29791714351110077
1658789931581366,-0.14166475928892952,0.96406500343328,0.281925688563363
1658789931597364,-0.13018997482261385,0.9615014877546351,0.2850995651178758
1658789931613361,-0.1299458304722667,0.9334248874647137,0.30609597924773
1658789931629358,-0.14630350194552522,0.9295185778591595,0.3067063401235979
1658789931645356,-0.14373998626688023,0.9654077973601893,0.29510948348210864
1658789931661353,-0.13177691309987027,0.9893339436942092,0.2986495765621422
1658789931677351,-0.12823682001983672,0.9578393224994279,0.30768291752498644
1658789931693348,-0.13470664530403598,0.928786144808118,0.2998702983138779
1658789931709345,-0.1417868314641031,0.9607690547035936,0.2915693904020751
1658789931725343,-0.14459449149309522,0.9870145723659114,0.2995040817883572
1658789931741340,-0.13568322270542454,0.9752956435492486,0.305241474021515
1658789931757338,-0.1325093461509117,0.9369649805447473,0.308659494926375
1658789931773335,-0.1388570992599374,0.9324483100633252,0.30890363927672215
1658789931789332,-0.14654764629587236,0.9490501258869308,0.3031662470435643
1658789931805175,-0.1480125123979552,0.9741969939726864,0.3090257114518957
1658789931821172,-0.1426413366903181,0.9789578088044557,0.305241474021515
1658789931837168,-0.12774853131914243,0.9568627450980394,0.30682841229877145
1658789931853165,-0.13604943923094526,0.9372091248950944,0.2991378652628365
1658789931869161,-0.15204089417868305,0.9553978789959565,0.30218966964217575
1658789931885158,-0.1488670176241702,0.9867704280155642,0.31122301060502
1658789931901154,-0.1388570992599374,0.9621118486305029,0.31305409323262356
1658789931917151,-0.14630350194552522,0.9361104753185323,0.30853742275120144
1658789931933147,-0.14447241931792165,0.9473411154345008,0.31097886625467286
1658789931949144,-0.13763637750820168,0.9370870527199209,0.2974288548104065
1658789931965140,-0.14435034714274808,0.9490501258869308,0.2919356069275958
1658789931981136,-0.1497215228503852,0.954421301594568,0.29340047302967864
1658789931997133,-0.15924315251392374,0.9627222095063708,0.30939192797741644
1658789932013129,-0.15570305943389018,0.9569848172732129,0.30768291752498644
1658789932029126,-0.14398413061722737,0.936476691844053,0.3074387731746393
1658789932045122,-0.1522850385290302,0.9384298466468302,0.32025635156786425
1658789932061119,-0.15387197680628661,0.9616235599298086,0.3184252689402607
1658789932077115,-0.13690394445716025,0.9668726634622722,0.31390859845883856
1658789932093112,-0.12603952086671244,0.9409933623254751,0.2907148851758601
1658789932109108,-0.13617151140611883,0.9391622796978716,0.29217975127794293
1658789932124939,-0.14862287327382306,0.9536888685435265,0.3128099488822764
1658789932140935,-0.14312962539101237,0.942458228427558,0.306950484473945
1658789932156931,-0.1383688105592431,0.9486839093614101,0.30060273136491933
1658789932172927,-0.14251926451514452,0.9650415808346686,0.30609597924773
1658789932188923,-0.15106431677729448,0.975173571374075,0.30939192797741644
1658789932204918,-0.14447241931792165,0.9766384374761579,0.3201342793926907
1658789932220914,-0.13824673838406953,0.9566186007476922,0.30096894789044004
1658789932236910,-0.14398413061722737,0.9439230945296408,0.28534370946822296
1658789932252906,-0.1514305333028152,0.9490501258869308,0.28412298771648725
1658789932268902,-0.14984359502555877,0.955275806820783,0.29291218432898436
1658789932284898,-0.1514305333028152,0.9455100328068973,0.2943770504310672
1658789932300894,-0.15191882200350948,0.9613794155794615,0.28754100862134724
1658789932316890,-0.14911116197451735,0.9748073548485543,0.29498741130693507
1658789932332886,-0.1409323262378881,0.954421301594568,0.3014572365911343
1658789932348882,-0.1493553063248645,0.932204165712978,0.3167162584878307
1658789932364878,-0.16241702906843658,0.9445334554055087,0.3153734645609214
1658789932380874,-0.14837872892347592,0.9556420233463037,0.2977950713359272
1658789932396870,-0.15118638895246805,0.9578393224994279,0.29205767910276936
1658789932412866,-0.15033188372625306,0.9688258182650493,0.28656443121995867
1658789932428862,-0.1572899977111466,0.9677271686884872,0.3020675974670022
1658789932444702,-0.15411612115663376,0.9572289616235601,0.3104905775539786
1658789932460697,-0.14789044022278164,0.9419699397268637,0.29584191653315006
1658789932476693,-0.14837872892347592,0.9513694972152287,0.2905928130006865
1658789932492688,-0.1593652246890973,0.9689478904402229,0.3010910200656136
1658789932508684,-0.15753414206149374,0.9685816739147022,0.3014572365911343
1658789932524679,-0.14728007934691378,0.9652857251850158,0.2859540703440908
1658789932540675,-0.1505760280766002,0.9523460746166172,0.29132524605172794
1658789932556670,-0.16168459601739515,0.9636987869077593,0.2910811017013808
1658789932572666,-0.16290531776913086,0.978591592278935,0.30255588616769646
1658789932588661,-0.1547264820325016,0.9822537575341421,0.3007248035400929
1658789932604657,-0.1409323262378881,0.9384298466468302,0.29205767910276936
1658789932620652,-0.14654764629587236,0.9186541542687117,0.3028000305180436
1658789932636648,-0.15753414206149374,0.9427023727779051,0.32025635156786425
1658789932652643,-0.15875486381322945,0.964919508659495,0.29962615396353076
1658789932668639,-0.15326161593041876,0.9945830472266728,0.2797283894102387
1658789932684634,-0.15204089417868305,0.9840848401617457,0.2857099259937437
1658789932700630,-0.15655756466010518,0.9539330128938737,0.3024338139925229
1658789932716625,-0.1517967498283359,0.9267109178301673,0.31647211413748355
1658789932732621,-0.14776836804760807,0.9218280308232245,0.3029221026932172
1658789932748616,-0.15106431677729448,0.9298847943846802,0.305241474021515
1658789932764465,-0.16266117341878372,0.9512474250400551,0.29840543221179505
1658789932780460,-0.15374990463111304,0.980300602731365,0.30926985580224287
1658789932796454,-0.1400778210116731,0.9618677042801558,0.29083695735103365
1658789932812449,-0.14398413061722737,0.945021744106203,0.2973067826352329
1658789932828443,-0.15960936903944445,0.9506370641641873,0.310368505378805
1658789932844438,-0.1589990081635766,0.9636987869077593,0.3170824750133514
1658789932860432,-0.15240711070420376,0.9662623025864043,0.3096360723277636
1658789932876427,-0.1366598001068131,0.9506370641641873,0.3049973296711679
1658789932892421,-0.13873502708476382,0.9262226291294731,0.30218966964217575
1658789932908416,-0.1535057602807659,0.9392843518730452,0.29413290608072007
1658789932924410,-0.15301747158007162,0.9628442816815443,0.28741893644617367
1658789932940405,-0.15790035858701446,0.9628442816815443,0.30133516441596075
1658789932956400,-0.16205081254291587,0.945876249332418,0.31232166018158214
1658789932972394,-0.16217288471808944,0.9505149919890137,0.3067063401235979
1658789932988389,-0.15777828641184088,0.96748302433814,0.3108567940794993
1658789933004383,-0.15082017242694734,0.9564965285725187,0.312077515831235
1658789933020378,-0.15033188372625306,0.9491721980621044,0.3082932784008543
1658789933036372,-0.15777828641184088,0.9469748989089801,0.3081712062256807
1658789933052367,-0.1589990081635766,0.9619897764553293,0.306950484473945
1658789933068361,-0.15680170901045232,0.9638208590829329,0.30389868009460574
1658789933084228,-0.1430075532158388,0.9513694972152287,0.30255588616769646
1658789933100222,-0.1433737697413595,0.9280537117570766,0.30011444266422505
1658789933116216,-0.15680170901045232,0.9345235370412759,0.30438696879530003
1658789933132210,-0.164858472571908,0.9715114061188679,0.3082932784008543
1658789933148204,-0.1564354924849316,0.9857938506141757,0.3065842679484243
1658789933164199,-0.13995574883649953,0.9667505912870986,0.3048752574959943
1658789933180193,-0.13556115053025097,0.9387960631723509,0.31354238193331785
1658789933196187,-0.16205081254291587,0.9379415579461359,0.32233157854581496
1658789933212181,-0.16559090562294942,0.9564965285725187,0.31488517586022713
1658789933228175,-0.14752422369726093,0.953566796368353,0.2932784008545051
1658789933244169,-0.1333638513771267,0.9286640726329445,0.27997253376058584
1658789933260163,-0.14361791409170666,0.9251239795529109,0.28278019378957797
1658789933276157,-0.15594720378423732,0.9608911268787672,0.3057297627222093
1658789933292151,-0.16034180209048587,0.970046540016785,0.31061264972915215
1658789933308145,-0.16351567864499872,0.9558861676966508,0.30768291752498644
1658789933324139,-0.1581445029373616,0.9540550850690472,0.3184252689402607
1658789933340133,-0.1555809872587166,0.9613794155794615,0.3300221255817499
1658789933356127,-0.14898908979934378,0.9672388799877929,0.32538338292515423
1658789933372121,-0.14483863584344236,0.9710231174181736,0.3036545357442586
1658789933388116,-0.15960936903944445,0.9634546425574122,0.31464103150988
1658789933403961,-0.15338368810559233,0.9638208590829329,0.30890363927672215
1658789933419954,-0.14581521324483093,0.9380636301213094,0.29681849393453863
1658789933435948,-0.14398413061722737,0.9375753414206152,0.2897383077744715
1658789933451942,-0.14569314106965736,0.9483176928358894,0.3028000305180436
1658789933467935,-0.1447165636682688,0.9394064240482187,0.30731670099946573
1658789933483929,-0.15045395590142663,0.9406271457999544,0.31146715495536714
1658789933499922,-0.15887693598840302,0.9615014877546351,0.31647211413748355
1658789933515916,-0.1572899977111466,0.9827420462348364,0.3297779812314028
1658789933531910,-0.1442282749675745,0.9573510337987337,0.31818112458991354
1658789933547903,-0.13348592355230027,0.9259784847791259,0.3074387731746393
1658789933563897,-0.1471580071717402,0.9224383916990924,0.29633020523384435
1658789933579890,-0.16327153429465158,0.9575951781490808,0.3040207522697793
1658789933595884,-0.1526512550545509,0.968337529564355,0.2985275043869686
1658789933611878,-0.14117647058823524,0.9420920119020373,0.2910811017013808
1658789933627871,-0.1467917906462195,0.9253681239032581,0.3024338139925229
1658789933643865,-0.1535057602807659,0.9400167849240866,0.31476310368505356
1658789933659858,-0.15594720378423732,0.9589379720759901,0.3301441977569235
1658789933675852,-0.14996566720073234,0.9633325703822386,0.3222095063706414
1658789933691846,-0.1476462958724345,0.9556420233463037,0.3041428244449529
1658789933707839,-0.1610742351415273,0.9582055390249486,0.3090257114518957
1658789933723755,-0.15631342030975803,0.9781033035782407,0.32281986724650924
1658789933739748,-0.14105439841306167,0.9499046311131458,0.3074387731746393
1658789933755741,-0.14019989318684667,0.9248798352025638,0.2894941634241244
1658789933771734,-0.1535057602807659,0.9389181353475244,0.29498741130693507
1658789933787727,-0.1607080186160066,0.9594262607766844,0.2995040817883572
1658789933803720,-0.15399404898146019,0.9610131990539408,0.3040207522697793
1658789933819713,-0.14874494544899663,0.9420920119020373,0.30682841229877145
1658789933835706,-0.1547264820325016,0.9335469596398873,0.31012436102845786
1658789933851699,-0.16241702906843658,0.9617456321049822,0.31989013504234354
1658789933867693,-0.15582513160906375,0.9718776226443886,0.3142748149843593
1658789933883686,-0.15033188372625306,0.9575951781490808,0.31012436102845786
1658789933899679,-0.16095216296635373,0.953566796368353,0.3124437323567557
1658789933915672,-0.1724269474326694,0.9569848172732129,0.3108567940794993
1658789933931665,-0.1535057602807659,0.9737087052719922,0.3074387731746393
1658789933947658,-0.14398413061722737,0.9491721980621044,0.2982833600366215
1658789933963651,-0.15374990463111304,0.9146257724879838,0.3002365148393986
1658789933979644,-0.16217288471808944,0.9490501258869308,0.30096894789044004
1658789933995638,-0.1593652246890973,0.9621118486305029,0.30170138094148147
1658789934011631,-0.1581445029373616,0.9508812085145344,0.30341039139391146
1658789934027624,-0.1610742351415273,0.9442893110551616,0.3134203097581443
1658789934043487,-0.16498054474708157,0.9626001373311972,0.31061264972915215
1658789934059480,-0.15619134813458446,0.983718623636225,0.312077515831235
1658789934075472,-0.15240711070420376,0.9604028381780729,0.30780498970016
1658789934091465,-0.16241702906843658,0.9289082169832916,0.312077515831235
1658789934107458,-0.17145037003128083,0.9457541771572444,0.31390859845883856
1658789934123450,-0.1522850385290302,0.9633325703822386,0.2926680399786372
1658789934139443,-0.14190890363927666,0.9550316624704358,0.2804608224612801
1658789934155436,-0.15301747158007162,0.9331807431143666,0.30304417486839075
1658789934171428,-0.16595712214847014,0.9427023727779051,0.31403067063401213
1658789934187421,-0.15680170901045232,0.9679713130388343,0.30682841229877145
1658789934203414,-0.1480125123979552,0.9711451895933472,0.29547570000762935
1658789934219406,-0.15167467765316234,0.9429465171282523,0.31110093842984643
1658789934235399,-0.16644541084916442,0.9302510109102009,0.31598382543678927
1658789934251392,-0.17486839093614082,0.9660181582360572,0.31354238193331785
1658789934267384,-0.1598535133897916,0.9831082627603571,0.3032883192187379
1658789934283377,-0.14544899671931022,0.9595483329518579,0.2969405661097122
1658789934299369,-0.1471580071717402,0.9268329900053409,0.30011444266422505
1658789934315362,-0.1593652246890973,0.9259784847791259,0.3024338139925229
1658789934331355,-0.16681162737468513,0.9538109407187001,0.29803921568627434
1658789934347347,-0.1572899977111466,0.9585717555504694,0.3023117418173493
1658789934363250,-0.1560692759594109,0.9350118257419702,0.3096360723277636
1658789934379243,-0.165712977798123,0.9478294041351951,0.31097886625467286
1658789934395236,-0.16974135957885084,0.9749294270237279,0.31317616540779714
1658789934411228,-0.15997558556496516,0.9705348287174793,0.3049973296711679
1658789934427221,-0.1502098115510795,0.9314717326619366,0.30560769054703574
1658789934443214,-0.15704585336079946,0.9234149691004809,0.3029221026932172
1658789934459206,-0.16131837949187444,0.9479514763103687,0.3040207522697793
1658789934475199,-0.16412603952086657,0.9612573434042879,0.2923018234531165
1658789934491191,-0.15753414206149374,0.9597924773022051,0.2977950713359272
1658789934507184,-0.15667963683527875,0.9525902189669644,0.2974288548104065
1658789934523177,-0.15594720378423732,0.9499046311131458,0.31354238193331785
1658789934539169,-0.16205081254291587,0.9500267032883194,0.3124437323567557
1658789934555162,-0.16351567864499872,0.9628442816815443,0.3128099488822764
1658789934571155,-0.162294956893263,0.9663843747615779,0.305241474021515
1658789934587147,-0.1522850385290302,0.9575951781490808,0.30060273136491933
1658789934603140,-0.15912108033875016,0.9446555275806823,0.28790722514686795
1658789934619133,-0.16388189517051943,0.9545433737697415,0.29254596780346365
1658789934635125,-0.16083009079118016,0.9593041886015108,0.2926680399786372
1658789934651118,-0.16205081254291587,0.9494163424124515,0.2910811017013808
1658789934667111,-0.1581445029373616,0.9457541771572444,0.29925993743801005
1658789934682983,-0.164003967345693,0.9486839093614101,0.30560769054703574
1658789934698975,-0.16974135957885084,0.9716334782940415,0.31268787670710285
1658789934714967,-0.16717784390020585,0.9690699626153965,0.30939192797741644
1658789934730960,-0.1585107194628823,0.9567406729228658,0.3049973296711679
1658789934746952,-0.15545891508354304,0.9514915693904022,0.3010910200656136
1658789934762944,-0.162294956893263,0.9546654459449151,0.2935225452048522
1658789934778936,-0.16510261692225514,0.9521019302662701,0.29120317387655437
1658789934794928,-0.15582513160906375,0.9538109407187001,0.29169146257724865
1658789934810920,-0.15631342030975803,0.9365987640192266,0.29169146257724865
1658789934826913,-0.16803234912642084,0.9464866102082858,0.2973067826352329
1658789934842905,-0.16876478217746227,0.9612573434042879,0.31317616540779714
1658789934858897,-0.162294956893263,0.946730754558633,0.3058518348973829
1658789934874889,-0.15973144121461802,0.9512474250400551,0.29840543221179505
1658789934890881,-0.15960936903944445,0.9588158999008165,0.3032883192187379
1658789934906873,-0.16595712214847014,0.9715114061188679,0.31134508278019357
1658789934922865,-0.1585107194628823,0.9702906843671322,0.2981612878614479
1658789934938858,-0.1467917906462195,0.9485618371862365,0.2940108339055465
1658789934954850,-0.15753414206149374,0.9308613717860688,0.3029221026932172
1658789934970842,-0.16839856565194156,0.9302510109102009,0.31305409323262356
1658789934986834,-0.1652246890974287,0.9464866102082858,0.30926985580224287
1658789935002777,-0.16266117341878372,0.9655298695353629,0.30853742275120144
1658789935018768,-0.16058594644083302,0.9696803234912643,0.29925993743801005
1658789935034760,-0.15875486381322945,0.9505149919890137,0.2995040817883572
1658789935050752,-0.15790035858701446,0.9698023956664379,0.2991378652628365
1658789935066743,-0.15301747158007162,0.9540550850690472,0.29925993743801005
1658789935082735,-0.15387197680628661,0.9285420004577709,0.28656443121995867
1658789935098727,-0.16217288471808944,0.9113298237582974,0.2985275043869686
1658789935114719,-0.16620126649881728,0.9445334554055087,0.3045090409704736
1658789935130710,-0.164003967345693,0.9740749217975129,0.30011444266422505
1658789935146702,-0.15594720378423732,0.9755397878995957,0.30475318532082074
1658789935162694,-0.15387197680628661,0.9369649805447473,0.3175707637140457
1658789935178685,-0.1715724422064544,0.9193865873197531,0.32074464026855853
1658789935194677,-0.17547875181200867,0.9616235599298086,0.31647211413748355
1658789935210669,-0.15790035858701446,0.9829861905851836,0.29425497825589364
1658789935226660,-0.1581445029373616,0.9652857251850158,0.2995040817883572
1658789935242652,-0.16034180209048587,0.9473411154345008,0.30841535057602787
1658789935258644,-0.16644541084916442,0.933913176165408,0.3098802166781107
1658789935274635,-0.16437018387121372,0.9428244449530787,0.30389868009460574
1658789935290627,-0.16473640039673443,0.9500267032883194,0.2985275043869686
1658789935306619,-0.16058594644083302,0.9610131990539408,0.3087815671015486
1658789935322540,-0.17047379262989226,0.9496604867627987,0.3128099488822764
1658789935338532,-0.17047379262989226,0.9431906614785994,0.3124437323567557
1658789935354523,-0.16534676127260228,0.9469748989089801,0.3041428244449529
1658789935370515,-0.162294956893263,0.9534447241931794,0.29291218432898436
1658789935386507,-0.1703517204547187,0.9687037460898758,0.29669642175936506
1658789935402498,-0.16412603952086657,0.970901045243,0.31219958800640857
1658789935418490,-0.16034180209048587,0.9439230945296408,0.2981612878614479
1658789935434482,-0.15619134813458446,0.9345235370412759,0.29974822613870433
1658789935450473,-0.17096208133058655,0.9451438162813766,0.3002365148393986
1658789935466465,-0.17096208133058655,0.9663843747615779,0.3067063401235979
1658789935482457,-0.165712977798123,0.9694361791409172,0.2998702983138779
1658789935498448,-0.1564354924849316,0.9517357137407494,0.2957198443579765
1658789935514440,-0.1607080186160066,0.9422140840772109,0.2985275043869686
1658789935530432,-0.1765774013885708,0.9749294270237279,0.3029221026932172
1658789935546424,-0.16839856565194156,0.9886015106431678,0.29633020523384435
1658789935562415,-0.16437018387121372,0.951857785915923,0.29681849393453863
1658789935578407,-0.16510261692225514,0.9250019073777374,0.3007248035400929
1658789935594399,-0.1690089265278094,0.9226825360494395,0.3079270618753336
1658789935610390,-0.16888685435263584,0.9481956206607158,0.2960860608834972
1658789935626382,-0.15753414206149374,0.9920195315480278,0.26398107881284805
1658789935642273,-0.15753414206149374,0.9904325932707714,0.2893720912489508
1658789935658264,-0.16375982299534586,0.9514915693904022,0.30731670099946573
1658789935674255,-0.16473640039673443,0.933058670939193,0.29889372091248934
1658789935690246,-0.16046387426565945,0.946730754558633,0.2885175860227358
1658789935706237,-0.16620126649881728,0.9384298466468302,0.30133516441596075
1658789935722229,-0.17145037003128083,0.9485618371862365,0.31488517586022713
1658789935738220,-0.16009765774013873,0.9549095902952622,0.3014572365911343
1658789935754211,-0.15289539940489805,0.945876249332418,0.28534370946822296
1658789935770202,-0.16766613260090013,0.9506370641641873,0.3057297627222093
1658789935786193,-0.18365758754863792,0.9805447470817121,0.3079270618753336
1658789935802185,-0.1698634317540244,1.0052033264667735,0.30096894789044004
1658789935818176,-0.1555809872587166,0.9859159227893493,0.31134508278019357
1658789935834167,-0.1531395437552452,0.9192645151445795,0.3007248035400929
1658789935850158,-0.17779812314030652,0.9112077515831238,0.3096360723277636
1658789935866150,-0.18731975280384505,0.9362325474937059,0.3217212176699471
1658789935882141,-0.1727931639581901,0.9594262607766844,0.2924238956282901
1658789935898132,-0.15326161593041876,0.9787136644541086,0.2683756771190966
1658789935914123,-0.14496070801861594,0.9695582513160907,0.2897383077744715
1658789935930114,-0.15289539940489805,0.9538109407187001,0.29791714351110077
1658789935946106,-0.15802243076218803,0.9564965285725187,0.30341039139391146
1658789935962036,-0.16620126649881728,0.9513694972152287,0.29962615396353076
1658789935978026,-0.162294956893263,0.9495384145876251,0.31146715495536714
1658789935994017,-0.15802243076218803,0.9455100328068973,0.32281986724650924
1658789936010008,-0.15741206988632017,0.9423361562523844,0.30975814450293715
1658789936025999,-0.15753414206149374,0.9391622796978716,0.2981612878614479
1658789936041989,-0.17181658655680154,0.9318379491874573,0.3041428244449529
1658789936057980,-0.1791409170672158,0.9607690547035936,0.3062180514229036
1658789936073971,-0.16424811169604014,0.9916533150225071,0.3098802166781107
1658789936089962,-0.14435034714274808,0.9538109407187001,0.30682841229877145
1658789936105952,-0.1505760280766002,0.9073014419775696,0.3007248035400929
1658789936121943,-0.1791409170672158,0.9218280308232245,0.3201342793926907
1658789936137934,-0.18353551537346435,0.9635767147325858,0.31940184634164925
1658789936153925,-0.15790035858701446,0.9800564583810178,0.2999923704890515
1658789936169915,-0.13788052185854882,0.946730754558633,0.2886396581979094
1658789936185906,-0.1502098115510795,0.8966811627374689,0.30731670099946573
1658789936201897,-0.1812161440451665,0.9231708247501338,0.3124437323567557
1658789936217888,-0.17169451438162797,0.9730983443961243,0.31390859845883856
1658789936233878,-0.15289539940489805,0.9732204165712979,0.29047074082551294
1658789936249869,-0.14056610971236738,0.9597924773022051,0.3020675974670022
1658789936265860,-0.1509422446021209,0.9428244449530787,0.3028000305180436
1658789936281738,-0.162294956893263,0.9652857251850158,0.3096360723277636
1658789936297728,-0.16119630731670087,0.9690699626153965,0.3048752574959943
1658789936313718,-0.1581445029373616,0.952712291142138,0.2993820096131836
1658789936329709,-0.15704585336079946,0.9469748989089801,0.312077515831235
1658789936345699,-0.1564354924849316,0.9503929198138401,0.2995040817883572
1658789936361689,-0.16095216296635373,0.950148775463493,0.2898603799496451
1658789936377679,-0.17145037003128083,0.948439765011063,0.29584191653315006
1658789936393670,-0.17682154573891795,0.9555199511711301,0.3037766079194322
1658789936409660,-0.1627832455939573,0.9699244678416115,0.30780498970016
1658789936425650,-0.1564354924849316,0.9580834668497751,0.30853742275120144
1658789936441640,-0.1707179369802394,0.946730754558633,0.3053635461966886
1658789936457631,-0.17547875181200867,0.964919508659495,0.31110093842984643
1658789936473621,-0.17218280308232226,0.9586938277256429,0.3218432898451207
1658789936489611,-0.15838864728770874,0.9368429083695737,0.3082932784008543
1658789936505602,-0.16241702906843658,0.9423361562523844,0.29974822613870433
1658789936521592,-0.164858472571908,0.9662623025864043,0.30463111314564717
1658789936537582,-0.16058594644083302,0.9513694972152287,0.3028000305180436
1658789936553572,-0.15252918287937733,0.930495155260548,0.3081712062256807
1658789936569563,-0.16131837949187444,0.9261005569542995,0.30548561837186217
1658789936585553,-0.1724269474326694,0.9651636530098422,0.31268787670710285
1658789936601532,-0.16681162737468513,0.9801785305561914,0.31696040283817783
1658789936617522,-0.15362783245593947,0.9505149919890137,0.3053635461966886
1658789936633512,-0.14605935759517807,0.931349660486763,0.3117112993057143
1658789936649502,-0.16803234912642084,0.9370870527199209,0.31097886625467286
1658789936665493,-0.1774319066147858,0.9669947356374458,0.31122301060502
1658789936681483,-0.1636377508201723,0.9763942931258107,0.30426489662012646
1658789936697473,-0.15460440985732804,0.9499046311131458,0.3081712062256807
1658789936713463,-0.15582513160906375,0.9264667734798202,0.31146715495536714
1658789936729454,-0.16375982299534586,0.9318379491874573,0.30634012359807716
1658789936745444,-0.16668955519951156,0.9481956206607158,0.30731670099946573
1658789936761434,-0.1694972152285037,0.9589379720759901,0.31122301060502
1658789936777424,-0.15997558556496516,0.9672388799877929,0.3032883192187379
1658789936793415,-0.15338368810559233,0.9532005798428322,0.3079270618753336
1658789936809405,-0.15973144121461802,0.935622186617838,0.308659494926375
1658789936825395,-0.16302738994430443,0.9315938048371102,0.3012130922407872
1658789936841385,-0.16266117341878372,0.9621118486305029,0.2960860608834972
1658789936857376,-0.15069810025177377,0.9778591592278936,0.29791714351110077
1658789936873366,-0.15582513160906375,0.9481956206607158,0.2982833600366215
1658789936889356,-0.16620126649881728,0.941603723201343,0.3029221026932172
1658789936905346,-0.16998550392919798,0.9555199511711301,0.31439688715953285
1658789936921264,-0.16766613260090013,0.9397726405737394,0.3082932784008543
1658789936937254,-0.1517967498283359,0.9353780422674909,0.3079270618753336
1658789936953244,-0.16058594644083302,0.9451438162813766,0.30170138094148147
1658789936969234,-0.16803234912642084,0.9783474479285879,0.29791714351110077
1658789936985223,-0.16253910124361015,0.9724879835202564,0.2952315556572822
1658789937001213,-0.16424811169604014,0.9448996719310294,0.3057297627222093
1658789937017203,-0.16876478217746227,0.9461203936827651,0.31805905241474
1658789937033193,-0.165712977798123,0.9595483329518579,0.31110093842984643
1658789937049183,-0.1535057602807659,0.9508812085145344,0.29706263828488577
1658789937065172,-0.15802243076218803,0.9386739909971773,0.2960860608834972
1658789937081162,-0.1765774013885708,0.9525902189669644,0.305241474021515
1658789937097152,-0.1741359578850994,0.97944609750515,0.31146715495536714
1658789937113142,-0.15338368810559233,0.9704127565423057,0.2998702983138779
1658789937129131,-0.15118638895246805,0.9391622796978716,0.29718471046005934
1658789937145121,-0.161440451667048,0.9245136186770431,0.31122301060502
1658789937161111,-0.17438010223544653,0.9470969710841537,0.3142748149843593
1658789937177101,-0.1707179369802394,0.9727321278706036,0.3040207522697793
1658789937193091,-0.1627832455939573,0.9762722209506371,0.3007248035400929
1658789937209080,-0.1535057602807659,0.949294270237278,0.30426489662012646
1658789937225070,-0.16852063782711513,0.9214618142977038,0.3175707637140457
1658789937241027,-0.17694361791409152,0.9528343633173115,0.31317616540779714
1658789937257017,-0.1627832455939573,0.9608911268787672,0.3036545357442586
1658789937273007,-0.16119630731670087,0.9440451667048144,0.3023117418173493
1658789937288997,-0.16717784390020585,0.9506370641641873,0.30890363927672215
1658789937304987,-0.164858472571908,0.9597924773022051,0.31354238193331785
1658789937320976,-0.15826657511253517,0.9462424658579387,0.30267795834287003
1658789937336966,-0.14874494544899663,0.9214618142977038,0.2897383077744715
1658789937352956,-0.16388189517051943,0.9374532692454416,0.29217975127794293
1658789937368946,-0.17633325703822367,0.9990997177080949,0.31146715495536714
1658789937384935,-0.16180666819256873,0.9976348516060121,0.31293202105745
1658789937400925,-0.16412603952086657,0.9430685893034259,0.29840543221179505
1658789937416915,-0.15741206988632017,0.9263447013046466,0.3115892271305407
1658789937432905,-0.15753414206149374,0.9280537117570766,0.3096360723277636
1658789937448895,-0.16046387426565945,0.9396505683985659,0.30341039139391146
1658789937464884,-0.15863279163805588,0.9397726405737394,0.30218966964217575
1658789937480874,-0.16754406042572656,0.9497825589379723,0.3037766079194322
1658789937496864,-0.16961928740367727,0.9626001373311972,0.30475318532082074
1658789937512854,-0.16339360646982515,0.9738307774471657,0.31610589761196284
1658789937528844,-0.1560692759594109,0.9634546425574122,0.31317616540779714
1658789937544833,-0.1610742351415273,0.945021744106203,0.31805905241474
1658789937560791,-0.1572899977111466,0.9369649805447473,0.31293202105745
1658789937576780,-0.16839856565194156,0.9425803006027316,0.29962615396353076
1658789937592770,-0.17096208133058655,0.9604028381780729,0.30084687571526647
1658789937608760,-0.1644922560463873,0.9536888685435265,0.3070725566491186
1658789937624750,-0.15790035858701446,0.9259784847791259,0.2977950713359272
1658789937640740,-0.16681162737468513,0.9530785076676587,0.30389868009460574
1658789937656729,-0.16595712214847014,0.9817654688334478,0.31403067063401213
1658789937672719,-0.16375982299534586,0.968337529564355,0.31439688715953285
1658789937688709,-0.15912108033875016,0.9329365987640195,0.3167162584878307
1658789937704699,-0.16913099870298298,0.910597390707256,0.3150072480354007
1658789937720688,-0.17486839093614082,0.9391622796978716,0.31146715495536714
1658789937736678,-0.16302738994430443,0.9682154573891815,0.3079270618753336
1658789937752668,-0.15533684290836947,0.9514915693904022,0.31024643320363143
1658789937768658,-0.17267109178301654,0.9508812085145344,0.3053635461966886
1658789937784648,-0.17718776226443866,0.9729762722209507,0.31219958800640857
1658789937800637,-0.16437018387121372,0.9667505912870986,0.3124437323567557
1658789937816627,-0.14874494544899663,0.9279316395819031,0.31317616540779714
1658789937832617,-0.16119630731670087,0.9070572976272224,0.3104905775539786
1658789937848607,-0.167421988250553,0.9511253528648815,0.3023117418173493
1658789937864596,-0.17401388570992582,0.9793240253299764,0.3132982375829707
1658789937880523,-0.16546883344777585,0.9615014877546351,0.30511940184634145
1658789937896513,-0.15887693598840302,0.9271992065308616,0.31317616540779714
1658789937912502,-0.16754406042572656,0.9251239795529109,0.3096360723277636
1658789937928491,-0.1712062256809337,0.9754177157244222,0.30060273136491933
1658789937944481,-0.166567483024338,0.9829861905851836,0.2990157930876629
1658789937960470,-0.15716792553597303,0.9512474250400551,0.30597390707255645
1658789937976459,-0.16034180209048587,0.9160906385900667,0.31647211413748355
1658789937992448,-0.1808499275196458,0.945021744106203,0.2999923704890515
1658789938008438,-0.16974135957885084,0.9981231403067063,0.30841535057602787
1658789938024427,-0.15704585336079946,0.9733424887464714,0.30267795834287003
1658789938040416,-0.15338368810559233,0.9245136186770431,0.3041428244449529
1658789938056406,-0.1724269474326694,0.9256122682536052,0.30218966964217575
1658789938072395,-0.17840848401617437,0.9735866330968186,0.30926985580224287
1658789938088384,-0.17022964827954512,0.980300602731365,0.3048752574959943
1658789938104374,-0.16180666819256873,0.9523460746166172,0.3104905775539786
1658789938120363,-0.15326161593041876,0.9239032578011752,0.3023117418173493
1658789938136352,-0.1690089265278094,0.9517357137407494,0.2991378652628365
1658789938152341,-0.17352559700923154,0.9774929427023729,0.3070725566491186
1658789938168331,-0.17560082398718224,0.9606469825284201,0.30560769054703574
1658789938184320,-0.16754406042572656,0.935622186617838,0.31635004196231
1658789938200286,-0.15741206988632017,0.9215838864728774,0.2991378652628365
1658789938216276,-0.165712977798123,0.9523460746166172,0.3031662470435643
1658789938232265,-0.17291523613336368,0.9776150148775464,0.31305409323262356
1658789938248254,-0.16705577172503228,0.948439765011063,0.3136644541084914
1658789938264244,-0.16498054474708157,0.916578927290761,0.30939192797741644
1658789938280233,-0.16681162737468513,0.9369649805447473,0.30060273136491933
1658789938296222,-0.16595712214847014,0.9701686121919586,0.30438696879530003
1658789938312212,-0.1610742351415273,0.9673609521629665,0.30780498970016
1658789938328201,-0.15289539940489805,0.939894712748913,0.30975814450293715
1658789938344190,-0.16119630731670087,0.9226825360494395,0.3041428244449529
1658789938360180,-0.1762111848630501,0.9572289616235601,0.30853742275120144
1658789938376169,-0.17462424658579367,0.9740749217975129,0.32062256809338496
1658789938392158,-0.1660791943236437,0.9452658884565501,0.3222095063706414
1658789938408147,-0.15960936903944445,0.9240253299763488,0.30841535057602787
1658789938424137,-0.1703517204547187,0.9497825589379723,0.30170138094148147
1658789938440126,-0.16827649347676799,0.9672388799877929,0.31024643320363143
1658789938456115,-0.16510261692225514,0.9605249103532465,0.3091477836270693
1658789938472105,-0.16058594644083302,0.932204165712978,0.30548561837186217
1658789938488094,-0.1690089265278094,0.9276874952315559,0.30853742275120144
1658789938504083,-0.17352559700923154,0.9351338979171437,0.30463111314564717
1658789938520019,-0.1770656900892651,0.9409933623254751,0.3057297627222093
1658789938536008,-0.1736476691844051,0.9583276112001222,0.317204547188525
1658789938551998,-0.16974135957885084,0.9728542000457772,0.313786526283665
1658789938567987,-0.162294956893263,0.9662623025864043,0.312077515831235
1658789938583976,-0.17206073090714868,0.9646753643091479,0.3015793087663079
1658789938599966,-0.16827649347676799,0.9634546425574122,0.30084687571526647
1658789938615955,-0.165712977798123,0.9367208361944002,0.2981612878614479
1658789938631944,-0.17010757610437155,0.9306172274357216,0.30609597924773
1658789938647934,-0.1774319066147858,0.9461203936827651,0.3090257114518957
1658789938663923,-0.1715724422064544,0.9662623025864043,0.3049973296711679
1658789938679912,-0.16913099870298298,0.9596704051270315,0.30304417486839075
1658789938695901,-0.16815442130159441,0.9584496833752958,0.3036545357442586
1658789938711891,-0.16791027695124727,0.9539330128938737,0.3104905775539786
1658789938727880,-0.16961928740367727,0.9529564354924851,0.30560769054703574
1658789938743869,-0.17291523613336368,0.9555199511711301,0.30170138094148147
1658789938759859,-0.16974135957885084,0.9528343633173115,0.30341039139391146
1658789938775848,-0.16620126649881728,0.937331197070268,0.3067063401235979
1658789938791837,-0.16534676127260228,0.9342793926909287,0.3132982375829707
1658789938807827,-0.17376974135957868,0.946730754558633,0.3100022888532843
1658789938823816,-0.17438010223544653,0.9472190432593273,0.29840543221179505
1658789938839782,-0.1765774013885708,0.9705348287174793,0.28656443121995867
1658789938855771,-0.16766613260090013,0.9824979018844893,0.30731670099946573
1658789938871760,-0.16546883344777585,0.9387960631723509,0.30975814450293715
1658789938887749,-0.1677882047760737,0.9278095674067295,0.30048065918974576
1658789938903738,-0.17169451438162797,0.933058670939193,0.3045090409704736
1658789938919726,-0.1745021744106201,0.9611352712291144,0.30719462882429216
1658789938935715,-0.17047379262989226,0.9772487983520257,0.31561760891126855
1658789938951704,-0.16302738994430443,0.9593041886015108,0.30780498970016
1658789938967693,-0.17169451438162797,0.9500267032883194,0.3023117418173493
1658789938983682,-0.1741359578850994,0.9600366216525522,0.3032883192187379
1658789938999671,-0.15912108033875016,0.9491721980621044,0.30084687571526647
1658789939015659,-0.15655756466010518,0.9291523613336388,0.29925993743801005
1658789939031648,-0.16388189517051943,0.941603723201343,0.29803921568627434
1658789939047637,-0.17547875181200867,0.9685816739147022,0.3037766079194322
1658789939063626,-0.1715724422064544,0.96577401388571,0.3142748149843593
1658789939079615,-0.1694972152285037,0.9257343404287788,0.31012436102845786
1658789939095604,-0.1782864118410008,0.9297627222095066,0.3224536507209885
1658789939111592,-0.18146028839551365,0.9639429312581065,0.3195239185168228
1658789939127581,-0.164858472571908,0.9671168078126193,0.30853742275120144
1658789939143570,-0.1585107194628823,0.9477073319600215,0.30426489662012646
1658789939159546,-0.16717784390020585,0.9278095674067295,0.3136644541084914
1658789939175534,-0.17608911268787653,0.9528343633173115,0.3057297627222093
1658789939191523,-0.1727931639581901,0.9728542000457772,0.3003585870145722
1658789939207512,-0.16681162737468513,0.9644312199588008,0.30780498970016
1658789939223501,-0.16351567864499872,0.933913176165408,0.32318608377202995
1658789939239490,-0.17560082398718224,0.9276874952315559,0.31683833066300426
1658789939255478,-0.17206073090714868,0.9571068894483865,0.3115892271305407
1658789939271467,-0.15973144121461802,0.9629663538567179,0.29633020523384435
1658789939287456,-0.15484855420767518,0.9466086823834594,0.2957198443579765
1658789939303445,-0.1703517204547187,0.951857785915923,0.3015793087663079
1658789939319434,-0.1703517204547187,0.9650415808346686,0.3074387731746393
1658789939335423,-0.16253910124361015,0.9542992294193944,0.30511940184634145
1658789939351411,-0.1669336995498587,0.9408712901503016,0.30719462882429216
1658789939367400,-0.1669336995498587,0.9397726405737394,0.31024643320363143
1658789939383389,-0.16791027695124727,0.9536888685435265,0.31403067063401213
1658789939399378,-0.1547264820325016,0.9507591363393608,0.3220874341954678
1658789939415367,-0.1564354924849316,0.9374532692454416,0.2944991226062408
1658789939431356,-0.16009765774013873,0.9547875181200887,0.2995040817883572
1658789939447344,-0.165712977798123,0.9582055390249486,0.30939192797741644
1658789939463333,-0.16827649347676799,0.9497825589379723,0.3041428244449529
1658789939479309,-0.1610742351415273,0.929640650034333,0.30511940184634145
1658789939495298,-0.1619287403677423,0.9241474021515224,0.3036545357442586
1658789939511286,-0.17486839093614082,0.9456321049820708,0.30511940184634145
1658789939527275,-0.17254901960784297,0.9779812314030671,0.30890363927672215
1658789939543264,-0.1593652246890973,0.9737087052719922,0.30267795834287003
1658789939559253,-0.15411612115663376,0.9462424658579387,0.3134203097581443
1658789939575242,-0.1619287403677423,0.9312275883115895,0.3049973296711679
1658789939591230,-0.17169451438162797,0.9420920119020373,0.310368505378805
1658789939607219,-0.161440451667048,0.9574731059739072,0.29462119478141435
1658789939623208,-0.15777828641184088,0.9672388799877929,0.2953536278324558
1658789939639197,-0.16375982299534586,0.9600366216525522,0.29791714351110077
1658789939655186,-0.1644922560463873,0.951857785915923,0.31122301060502
1658789939671175,-0.17084000915541298,0.9446555275806823,0.313786526283665
1658789939687163,-0.1749904631113144,0.9601586938277258,0.3045090409704736
1658789939703152,-0.16717784390020585,0.9473411154345008,0.315495536736095
1658789939719141,-0.164003967345693,0.9447775997558558,0.313786526283665
1658789939735130,-0.15826657511253517,0.9575951781490808,0.3132982375829707
1658789939751119,-0.161440451667048,0.950148775463493,0.2973067826352329
1658789939767108,-0.17608911268787653,0.9523460746166172,0.29010452429999223
1658789939783096,-0.15924315251392374,0.9481956206607158,0.2985275043869686
1658789939799072,-0.16131837949187444,0.933058670939193,0.3058518348973829
1658789939815061,-0.1690089265278094,0.9361104753185323,0.31232166018158214
1658789939831050,-0.17779812314030652,0.9612573434042879,0.30768291752498644
1658789939847038,-0.167421988250553,0.970901045243,0.31219958800640857
1658789939863027,-0.16095216296635373,0.9434348058289466,0.31183337148088786
1658789939879016,-0.166567483024338,0.9451438162813766,0.31219958800640857
1658789939895005,-0.16644541084916442,0.953566796368353,0.3104905775539786
1658789939910994,-0.1694972152285037,0.9577172503242544,0.29974822613870433
1658789939926983,-0.15704585336079946,0.9634546425574122,0.3015793087663079
1658789939942971,-0.15655756466010518,0.9419699397268637,0.29755092698558006
1658789939958960,-0.16461432822156086,0.9320820935378045,0.2986495765621422
1658789939974949,-0.17169451438162797,0.9461203936827651,0.30634012359807716
1658789939990938,-0.16498054474708157,0.9654077973601893,0.3108567940794993
1658789940006927,-0.163149462119478,0.9636987869077593,0.3067063401235979
1658789940022915,-0.16668955519951156,0.9470969710841537,0.31683833066300426
1658789940038904,-0.16717784390020585,0.938185702296483,0.3067063401235979
1658789940054893,-0.16681162737468513,0.9569848172732129,0.3020675974670022
1658789940070882,-0.16559090562294942,0.9624780651560236,0.2981612878614479
1658789940086871,-0.17291523613336368,0.9532005798428322,0.29962615396353076
1658789940102860,-0.1698634317540244,0.9444113832303351,0.31183337148088786
1658789940118805,-0.16839856565194156,0.9334248874647137,0.31683833066300426
1658789940134793,-0.16937514305333012,0.9428244449530787,0.312077515831235
1658789940150781,-0.17084000915541298,0.9550316624704358,0.3058518348973829
1658789940166770,-0.16961928740367727,0.9477073319600215,0.3115892271305407
1658789940182758,-0.16498054474708157,0.947585259784848,0.30609597924773
1658789940198746,-0.16681162737468513,0.9562523842221715,0.30548561837186217
1658789940214735,-0.17755397878995938,0.9577172503242544,0.30646219577325073
1658789940230723,-0.1669336995498587,0.9550316624704358,0.3125658045319293
1658789940246711,-0.16009765774013873,0.9344014648661023,0.30511940184634145
1658789940262700,-0.16437018387121372,0.9389181353475244,0.2995040817883572
1658789940278688,-0.17767605096513295,0.9611352712291144,0.31293202105745
1658789940294676,-0.17096208133058655,0.9722438391699093,0.3062180514229036
1658789940310665,-0.16339360646982515,0.9654077973601893,0.30646219577325073
1658789940326653,-0.15484855420767518,0.9457541771572444,0.30731670099946573
1658789940342641,-0.16754406042572656,0.9185320820935381,0.3028000305180436
1658789940358630,-0.1876859693293662,0.9549095902952622,0.32074464026855853
1658789940374618,-0.17145037003128083,0.9826199740596628,0.3167162584878307
1658789940390607,-0.1593652246890973,0.9580834668497751,0.3019455252918286
1658789940406595,-0.161440451667048,0.9336690318150609,0.3058518348973829
1658789940422583,-0.17340352483405796,0.9380636301213094,0.3075608453498129
1658789940438568,-0.17230487525749583,0.9556420233463037,0.3107347219043257
1658789940454556,-0.17145037003128083,0.951003280689708,0.30634012359807716
1658789940470544,-0.16839856565194156,0.9478294041351951,0.30731670099946573
1658789940486533,-0.1719386587319751,0.9420920119020373,0.30719462882429216
1658789940502521,-0.17206073090714868,0.9568627450980394,0.31122301060502
1658789940518509,-0.16632333867399085,0.9500267032883194,0.30597390707255645
1658789940534498,-0.16827649347676799,0.9455100328068973,0.3145189593347064
1658789940550486,-0.1712062256809337,0.9380636301213094,0.3158617532616157
1658789940566475,-0.17352559700923154,0.9513694972152287,0.30768291752498644
1658789940582463,-0.1677882047760737,0.9571068894483865,0.3007248035400929
1658789940598451,-0.16205081254291587,0.9500267032883194,0.3081712062256807
1658789940614440,-0.16302738994430443,0.9329365987640195,0.3170824750133514
1658789940630428,-0.17059586480506583,0.9419699397268637,0.3057297627222093
1658789940646416,-0.17352559700923154,0.9596704051270315,0.3065842679484243
1658789940662405,-0.17230487525749583,0.9668726634622722,0.30597390707255645
1658789940678393,-0.16205081254291587,0.9521019302662701,0.31403067063401213
1658789940694381,-0.16620126649881728,0.9264667734798202,0.31122301060502
1658789940710370,-0.17438010223544653,0.9462424658579387,0.3074387731746393
1658789940726358,-0.1765774013885708,0.9639429312581065,0.30389868009460574
1658789940742346,-0.166567483024338,0.9689478904402229,0.3036545357442586
1658789940758300,-0.15167467765316234,0.9483176928358894,0.3031662470435643
1658789940774289,-0.16498054474708157,0.9264667734798202,0.30182345311665504
1658789940790277,-0.18536659800106792,0.9470969710841537,0.31512932021057427
1658789940806265,-0.17804226749065366,0.9646753643091479,0.3100022888532843
1658789940822254,-0.16253910124361015,0.9643091477836272,0.3019455252918286
1658789940838242,-0.164003967345693,0.9534447241931794,0.31305409323262356
1658789940854231,-0.17779812314030652,0.9468528267338066,0.32025635156786425
1658789940870219,-0.17181658655680154,0.9474631876096744,0.3053635461966886
1658789940886207,-0.1669336995498587,0.9483176928358894,0.29669642175936506
1658789940902196,-0.16754406042572656,0.9516136415655758,0.31122301060502
1658789940918184,-0.16961928740367727,0.9383077744716566,0.3192797741664757
1658789940934172,-0.16852063782711513,0.9362325474937059,0.3091477836270693
1658789940950161,-0.16839856565194156,0.9370870527199209,0.30463111314564717
1658789940966149,-0.1741359578850994,0.9419699397268637,0.2999923704890515
1658789940982137,-0.17181658655680154,0.973464560921645,0.31635004196231
1658789940998126,-0.1636377508201723,0.9685816739147022,0.3196459906919964
1658789941014114,-0.16681162737468513,0.9395284962233923,0.3062180514229036
1658789941030102,-0.17682154573891795,0.9362325474937059,0.31903562981612854
1658789941046091,-0.16913099870298298,0.9418478675516901,0.31769283588921926
1658789941062079,-0.16839856565194156,0.9488059815365837,0.3079270618753336
1658789941078064,-0.16729991607537942,0.9528343633173115,0.3065842679484243
1658789941094052,-0.16681162737468513,0.946730754558633,0.30341039139391146
1658789941110040,-0.17560082398718224,0.9453879606317237,0.31903562981612854
1658789941126029,-0.17560082398718224,0.9488059815365837,0.32404058899824495
1658789941142017,-0.16754406042572656,0.9406271457999544,0.3007248035400929
1658789941158005,-0.16290531776913086,0.9523460746166172,0.30634012359807716
1658789941173994,-0.17425803006027296,0.9478294041351951,0.31647211413748355
1658789941189982,-0.1803616388189515,0.9499046311131458,0.31390859845883856
1658789941205970,-0.17267109178301654,0.9573510337987337,0.3049973296711679
1658789941221959,-0.16205081254291587,0.9547875181200887,0.29681849393453863
1658789941237947,-0.16681162737468513,0.9423361562523844,0.3167162584878307
1658789941253935,-0.17340352483405796,0.945876249332418,0.31110093842984643
1658789941269924,-0.1736476691844051,0.9578393224994279,0.30951400015259
1658789941285912,-0.17230487525749583,0.9470969710841537,0.30682841229877145
1658789941301900,-0.1677882047760737,0.9466086823834594,0.3040207522697793
1658789941317889,-0.17486839093614082,0.9489280537117573,0.3162279697871364
1658789941333877,-0.17962920576791008,0.9551537346456094,0.31525139238574784
1658789941349866,-0.17633325703822367,0.9593041886015108,0.31110093842984643
1658789941365854,-0.16791027695124727,0.9436789501792937,0.30926985580224287
1658789941381842,-0.17523460746166153,0.935622186617838,0.31097886625467286
1658789941397796,-0.17425803006027296,0.9540550850690472,0.31891355764095497
1658789941413785,-0.17218280308232226,0.952712291142138,0.30255588616769646
1658789941429773,-0.1749904631113144,0.9494163424124515,0.2990157930876629
1658789941445761,-0.1727931639581901,0.9483176928358894,0.3091477836270693
1658789941461750,-0.1690089265278094,0.9533226520180058,0.31024643320363143
1658789941477738,-0.16791027695124727,0.9574731059739072,0.3087815671015486
1658789941493726,-0.17596704051270295,0.9578393224994279,0.3119554436560614
1658789941509715,-0.17694361791409152,0.9446555275806823,0.3098802166781107
1658789941525703,-0.17059586480506583,0.9444113832303351,0.30768291752498644
1658789941541691,-0.17608911268787653,0.9459983215075916,0.3201342793926907
1658789941557680,-0.17047379262989226,0.9474631876096744,0.3014572365911343
1658789941573668,-0.16388189517051943,0.9566186007476922,0.30353246356908503
1658789941589656,-0.16620126649881728,0.9534447241931794,0.3107347219043257
1658789941605645,-0.1762111848630501,0.9519798580910965,0.3057297627222093
1658789941621633,-0.1817044327458608,0.9541771572442208,0.3192797741664757
1658789941637622,-0.1812161440451665,0.9514915693904022,0.32355230029755067
1658789941653610,-0.17462424658579367,0.9732204165712979,0.31610589761196284
1658789941669598,-0.17645532921339724,1.0098420691233692,0.3375906004425113
1658789941685587,-0.1585107194628823,0.9966582742046235,0.312077515831235
1658789941701575,-0.15082017242694734,0.9801785305561914,0.2926680399786372
1658789941717559,-0.16717784390020585,0.9779812314030671,0.29303425650415793
1658789941733548,-0.17633325703822367,1.0011749446860456,0.2864423590447851
1658789941749536,-0.16827649347676799,1.0014190890363928,0.28253604943923083
1658789941765524,-0.15667963683527875,0.9727321278706036,0.30060273136491933
1658789941781513,-0.15619134813458446,0.9579613946746015,0.3062180514229036
1658789941797501,-0.16388189517051943,0.9699244678416115,0.33295185778591563
1658789941813490,-0.16424811169604014,0.9776150148775464,0.3183031967650871
1658789941829478,-0.16437018387121372,1.0058136873426413,0.3225757228961621
1658789941845466,-0.1686427100022887,1.041458762493324,0.3451590753032727
1658789941861455,-0.14813458457312878,1.0384069581139848,0.3382009613183792
1658789941877443,-0.13519493400473026,0.9994659342336156,0.33453879606317205
1658789941893431,-0.14874494544899663,0.9928740367742428,0.3595635919737541
1658789941909420,-0.14569314106965736,0.96406500343328,0.350774395361257
1658789941925408,-0.12310978866254674,0.966628519111925,0.31976806286716997
1658789941941396,-0.10589761196307323,0.9934843976501107,0.31525139238574784
1658789941957385,-0.09674219882505541,0.9796902418554971,0.2953536278324558
1658789941973373,-0.07672236209658978,0.9621118486305029,0.2926680399786372
1658789941989361,-0.08551155870908689,0.9536888685435265,0.3136644541084914
1658789942005350,-0.09942778667887398,0.9586938277256429,0.3361257343404285
1658789942021338,-0.08099488822766476,0.9613794155794615,0.32782482642862565
1658789942037323,-0.059754329747462975,0.97944609750515,0.34161898222323916
1658789942053311,-0.05267414358739586,0.98628213931487,0.3335622186617835
1658789942069299,-0.02410925459678026,0.9698023956664379,0.31488517586022713
1658789942085288,-0.0012817578393224949,0.9608911268787672,0.3203784237430378
1658789942101276,-0.00982681010147246,0.9662623025864043,0.3242847333485921
1658789942117264,-0.02667277027542525,0.9815213244831007,0.31781490806439283
1658789942133253,0.0018921187151903496,0.9632104982070651,0.3187914854657814
1658789942149241,0.015564202334630295,0.9506370641641873,0.3209887846189057
1658789942165229,0.02386511024643312,0.9530785076676587,0.34003204394598274
1658789942181218,0.04376287479972518,0.9312275883115895,0.3277027542534521
1658789942197206,0.05035477225909801,0.9406271457999544,0.33368429083695705
1658789942213194,0.023498893720912406,0.9980010681315328,0.3666437781338212
1658789942229183,0.011291676203555312,1.0122835126268406,0.3683527885862512
1658789942245171,0.053040360112916574,0.9976348516060121,0.34210727092393345
1658789942261160,0.1041886015106428,0.9772487983520257,0.31439688715953285
1658789942277148,0.12323186083771986,0.9485618371862365,0.31683833066300426
1658789942293136,0.10955977721827992,0.9560082398718244,0.31683833066300426
1658789942309125,0.11517509727626418,0.9650415808346686,0.31696040283817783
1658789942325113,0.11663996337834703,0.9829861905851836,0.34747844663157057
1658789942341101,0.08599984740978073,0.9684596017395286,0.350774395361257
1658789942357025,0.11529716945143775,0.9661402304112308,0.3363698786907756
1658789942373013,0.17108415350576056,0.9394064240482187,0.33246356908522134
1658789942389001,0.18121614404516695,0.9434348058289466,0.33295185778591563
1658789942404988,0.16522468909742916,0.9813992523079271,0.3775082017242699
1658789942420976,0.15362783245593992,0.9999542229343099,0.3766536964980549
1658789942436964,0.1873197528038455,0.9970244907301442,0.3368581673914699
1658789942452952,0.23907835507743957,0.9741969939726864,0.3390554665445942
1658789942468940,0.2356603341725796,0.9538109407187001,0.36432440680552336
1658789942484928,0.207095445181964,1.0009308003356985,0.36932936598763977
1658789942500916,0.2162508583199818,1.0227817196917677,0.35419241626611697
1658789942516904,0.2503089951934081,0.9851834897383078,0.3662775616083005
1658789942532891,0.273380636301213,0.9184100099183645,0.345647364003967
1658789942548879,0.3107347219043257,0.9195086594949267,0.29413290608072007
1658789942564867,0.35223926146333984,0.9198748760204474,0.2721599145494773
1658789942580855,0.3755550469214928,0.9000991836423289,0.2680094605935759
1658789942596843,0.345647364003967,0.883863584344244,0.31598382543678927
1658789942612831,0.3037766079194322,0.9282978561074238,0.344792858777752
1658789942628819,0.32196536202029424,0.9519798580910965,0.3205004959182114
1658789942644806,0.39288929579613985,0.9463645380331123,0.3192797741664757
1658789942660794,0.4375677119096668,0.9175555046921495,0.3585870145723655
1658789942676788,0.4170595864805069,0.8996108949416346,0.4061951628900591
1658789942692776,0.40766002899214193,0.8799572747386897,0.3795834287022206
1658789942708764,0.45136186770428033,0.8855725947966739,0.3277027542534521
1658789942724752,0.4901808194094759,0.867383840695811,0.3515068284122984
1658789942740739,0.492988479438468,0.804516670481422,0.34796673533226485
1658789942756727,0.5166704814221408,0.7656977187762264,0.306950484473945
1658789942772715,0.546211947814145,0.789990081635767,0.29718471046005934
1658789942788703,0.5069047074082551,0.7971923399710077,0.3065842679484243
1658789942804691,0.5130083161669337,0.7401846341649501,0.31732661936369855
1658789942820679,0.6276340886549177,0.6249485008010982,0.3032883192187379
1658789942836667,0.7157701991302359,0.555855649652857,0.2859540703440908
1658789942852655,0.6493629358358133,0.5933318074311433,0.280216678110933
1658789942868642,0.5488975356679635,0.6941634241245138,0.3308766308079649
1658789942884630,0.6057831692988476,0.6741435873960482,0.2855878538185701
1658789942900618,0.7404287785152972,0.5886930647745476,0.25763332570382236
1658789942916606,0.7720454718852521,0.48957045853360803,0.31183337148088786
1658789942932594,0.75385671778439,0.48017090104524307,0.31781490806439283
1658789942948582,0.7166247043564509,0.5272907606622415,0.29254596780346365
1658789942964570,0.7273670557717251,0.46344701304646385,0.280216678110933
1658789942980558,0.8035400930800334,0.3561455710688941,0.2738689250019073
1658789942996521,0.8102540627145798,0.44452582589456036,0.2821698329137101
1658789943012508,0.7396963454642558,0.5189898527504386,0.3452811474784463
1658789943028496,0.7746089875638971,0.47479972533760595,0.3079270618753336
1658789943044484,0.852857251850156,0.3423514152742806,0.3209887846189057
1658789943060472,0.8328374151216904,0.31317616540779714,0.37726405737392277
1658789943076460,0.779736018921187,0.4005798428320748,0.4108339055466548
1658789943092448,0.820141908903639,0.3795834287022206,0.3860532539864199
1658789943108436,0.896070801861601,0.2695963988708323,0.31647211413748355
1658789943124424,0.9014419775692382,0.17792019531548053,0.3201342793926907
1658789943140411,0.8672617685206374,0.1943999389639126,0.3457694361791406
1658789943156399,0.8451667048142211,0.26068513008316163,0.34039826047150346
1658789943172387,0.8600595101853967,0.1928130006866562,0.29132524605172794
1658789943188375,0.9256122682536052,0.07049668116273722,0.2840009155413137
1658789943204363,0.8893568322270546,0.050720988784618726,0.32611581597619566
1658789943220351,0.8456549935149154,0.07159533073929936,0.3594415197985805
1658789943236339,0.8334477759975583,0.09686427100022854,0.34259555962462773
1658789943252327,0.8930189974822618,0.03265430685893023,0.3222095063706414
1658789943268314,0.9545433737697415,-0.019348439765010994,0.32782482642862565
1658789943284302,0.9682154573891815,-0.022034027618829555,0.3574883649958034
1658789943300290,0.9195086594949267,-0.008850232700083893,0.37982757305256776
1658789943316284,0.8794689860379954,-0.03350881208514522,0.3892271305409327
1658789943332272,0.8727550164034481,-0.08160524910353262,0.4170595864805069
1658789943348260,0.8422369726100554,-0.13031204699778742,0.44782177462424677
1658789943364247,0.8896009765774018,-0.2692301823453116,0.4506294346532389
1658789943380235,0.914869916838331,-0.4104676890211336,0.43866636148622895
1658789943396223,0.9219501029983981,-0.4700389105058367,0.46637674525062955
1658789943412211,0.908033875028611,-0.39520866712443725,0.47565423056382095
1658789943428199,0.8773937590600447,-0.24628061341268026,0.43060959792477327
1658789943444187,0.8705577172503238,-0.1417868314641031,0.38324559395742774
1658789943460175,0.8748302433813988,-0.13324177920195313,0.37311360341802047
1658789943476163,0.8709239337758445,-0.14447241931792165,0.41217669947356406
1658789943492150,0.8745860990310517,-0.12005798428320746,0.4514839398794539
1658789943508138,0.9325703822384988,-0.18158236057068722,0.46173800259403386
1658789943524126,0.9519798580910965,-0.25506981002517737,0.4606393530174717
1658789943540114,0.894361791409171,-0.25848783093003735,0.4528267338063632
1658789943556102,0.8472419317921718,-0.19256885633630905,0.4396429388876175
1658789943572090,0.8538338292515446,-0.10089265278095683,0.4157167925535976
1658789943588078,0.862256809338521,-0.05548180361638799,0.3867856870374613
1658789943604066,0.8670176241702903,-0.06793316548409267,0.37152666514076405
1658789943620053,0.8472419317921718,-0.04742504005493231,0.3778744182497906
1658789943636016,0.8217288471808954,0.04388494697489875,0.37653162432288134
1658789943652004,0.818432898451209,0.11798275730525631,0.39667353322652055
1658789943667992,0.8368657969024182,0.11273365377279276,0.4018005645838105
1658789943683980,0.8485847257190811,0.06683451590753009,0.37409018081940903
1658789943699968,0.8317387655451283,0.08343633173113574,0.3784847791256585
1658789943715956,0.7565423056382086,0.23468375677119102,0.40082398718242196
1658789943731944,0.715159838254368,0.33783474479285847,0.4263370717936983
1658789943747932,0.7490959029526207,0.31866941329060783,0.38959334706645343
1658789943763919,0.8030518043793391,0.24298466468299385,0.35773250934615053
1658789943779907,0.7700923170824749,0.2835126268406194,0.3712825207904169
1658789943795895,0.6825665674830246,0.4015564202334634,0.3998474097810334
1658789943811883,0.6804913405050739,0.464545662623026,0.38446631570916345
1658789943827871,0.7372549019607844,0.4745555809872588,0.31854734111543426
1658789943843859,0.7183337148088809,0.5216754406042572,0.3284351873044935
1658789943859847,0.6312962539101248,0.600534065766384,0.3766536964980549
1658789943875835,0.6314183260852984,0.6201876859693289,0.35053025101090984
1658789943891822,0.6857404440375374,0.5805142290379184,0.27826352330815585
1658789943907810,0.6621805142290382,0.5977264057373919,0.27997253376058584
1658789943923798,0.5617151140611885,0.7467765316243229,0.3117112993057143
1658789943939786,0.5103227283131151,0.8377203021286332,0.30731670099946573
1658789943955780,0.6172579537651632,0.7447013046463722,0.2318760967421989
1658789943971768,0.6690165560387582,0.6880598153658353,0.16034180209048632
1658789943987755,0.5452353704127564,0.8299076829175247,0.2251621271076525
1658789944003743,0.4452582589456018,0.9278095674067295,0.2714274814984359
1658789944019731,0.5165484092469672,0.8710460059510181,0.18915083543144906
1658789944035719,0.5839322499427784,0.785717555504692,0.15082017242694779
1658789944051707,0.420721751735714,0.8239261463340197,0.26056305790798806
1658789944067695,0.2448157473105974,0.930495155260548,0.30890363927672215
1658789944083683,0.3519951171129927,0.9489280537117573,0.19037155718318477
1658789944099671,0.5440146486610207,0.8899671931029225,0.07879758907454004
1658789944115658,0.46930647745479526,0.883863584344244,0.14789044022278208
1658789944131646,0.21832608529793252,0.9687037460898758,0.23956664377813386
1658789944147634,0.0613412680247194,1.0845502403295946,0.2667887388418402
1658789944163622,0.16656748302433844,1.0514686808575568,0.18634317540245693
1658789944179610,0.3831235217822542,0.9564965285725187,0.09027237354085571
1658789944195598,0.39337758449683413,0.8767833981841768,0.14679179064621994
1658789944211586,0.17999542229343124,0.8887464713511868,0.20685130083161685
1658789944227573,0.05242999923704872,1.0315709163042648,0.18573281452658907
1658789944243561,0.14264133669031853,1.081010147249561,0.11029221026932134
1658789944259549,0.237247272449836,1.026688029297322,0.13336385137712714
1658789944275543,0.1809719996948198,0.9750514991989014,0.14691386282139351
1658789944291531,0.10211337453269209,1.034378576333257,0.16485847257190844
1658789944307519,0.048157473105973736,1.1081101701380938,0.16815442130159486
1658789944323506,0.035217822537575216,1.1144579232471195,0.20880445563439398
1658789944339494,0.08734264133669001,1.0718547341115432,0.17645532921339768
1658789944355482,0.12152285038528987,1.094071869993133,0.17865262836652196
1658789944371470,0.027649347676813818,1.1164110780498966,0.2670328831921873
1658789944387458,-0.05926604104676869,1.1772030212863358,0.2695963988708323
1658789944403446,0.01617456321049815,1.2492256046387427,0.15594720378423776
1658789944419434,0.12127870603494273,1.230914778362707,0.08307011520561502
1658789944435422,0.0726939803158615,1.222369726100557,0.17486839093614126
1658789944451409,-0.028503852903028815,1.228351262684062,0.19647516594186332
1658789944467397,-0.06182955672541368,1.2812085145342182,0.12164492256046344
1658789944483385,-0.05279621576256943,1.334187838559548,0.1448386358434428
1658789944499373,-0.015808346684977437,1.2830395971618218,0.18915083543144906
1658789944515361,0.0040894178683146265,1.2190737773708706,0.203677424277104
1658789944531349,0.0037232013427939137,1.2487373159380484,0.206240939955749
1658789944547337,-0.006652933546959616,1.2544747081712062,0.22455176623178463
1658789944563325,-0.018127718013275285,1.2273746852826735,0.22980086976424818
1658789944579312,-0.014709697108415298,1.2261539635309378,0.21844815747310609
1658789944595276,0.012146181429770309,1.21699855039292,0.20782787823300541
1658789944611263,0.020813305867093845,1.172320134279393,0.2255283436331732
1658789944627251,-0.009094377050431035,1.1601129167620359,0.2649576562142366
1658789944643239,-0.012756542305638163,1.1554741741054402,0.2612954909590295
1658789944659227,0.045471885252155175,1.1813534752422372,0.21222247653925397
1658789944675215,0.13006790264744073,1.1139696345464252,0.22455176623178463
1658789944691203,0.14752422369726137,1.0159456778820477,0.2410315098802167
1658789944707191,0.12396429388876129,1.027542534523537,0.26654459449149304
1658789944723178,0.14813458457312922,1.0485389486533911,0.21771572442206466
1658789944739166,0.20440985732814543,1.0028839551384756,0.20233463035019472
1658789944755154,0.24689097428854812,0.9092545967803467,0.20477607385366614
1658789944771142,0.28876173037308295,0.8892347600518811,0.20209048599984758
1658789944787130,0.3313649195086592,0.837232013427939,0.23175402456702532
1658789944803118,0.33331807431143634,0.8418707560845347,0.1902494850080112
1658789944819106,0.33868925001907346,0.8903334096284432,0.23285267414358746
1658789944835094,0.38287937743190703,0.8208743419546805,0.2792401007095444
1658789944851081,0.48273441672388806,0.7700923170824749,0.20941481651026184
1658789944867069,0.5331502250705729,0.8292973220416568,0.19342336156252404
1658789944883057,0.4859082932784009,0.7946288242923627,0.2792401007095444
1658789944899045,0.45172808422980104,0.758129243915465,0.32526131074998066
1658789944915039,0.523994811932555,0.6958724345769438,0.2780193789578087
1658789944931027,0.6478980697337304,0.6223849851224532,0.23968871595330743
1658789944947014,0.707469291218433,0.5916227969787133,0.22442969405661106
1658789944963002,0.6131074998092618,0.597116044861524,0.28998245212481866
1658789944978990,0.5171587701228351,0.5995574883649955,0.3457694361791406
1658789944994978,0.5871061264972912,0.5676966506446934,0.31854734111543426
1658789945010966,0.7516594186312657,0.46051728084229815,0.21698329137102323
1658789945026954,0.7918211642633706,0.44953078507667676,0.18426794842450622
1658789945042942,0.654001678492409,0.49628442816815443,0.27533379110399014
1658789945058930,0.6033417257953761,0.5031204699778744,0.33246356908522134
1658789945074917,0.7473868925001907,0.37445639734492975,0.27826352330815585
1658789945090905,0.8950942244602125,0.2356603341725796,0.2234531166552225
1658789945106893,0.8693369954985881,0.23749141680018315,0.25262836652170595
1658789945122881,0.7897459372854199,0.2704509040970473,0.34161898222323916
1658789945138869,0.7714351110093842,0.2368810559243153,0.3623712520027462
1658789945154857,0.8250247959105819,0.18951705195696977,0.3494316014343477
1658789945170845,0.9051041428244453,0.19964904249637616,0.3157396810864421
1658789945186833,0.919996948195621,0.15350576028076635,0.2932784008545051
1658789945202820,0.8996108949416346,0.0680552376592658,0.29498741130693507
1658789945218808,0.901197833218891,0.026184481574730967,0.3196459906919964
1658789945234771,0.9081559472037846,0.10138094148165067,0.3075608453498129
1658789945250759,0.9481956206607158,0.14166475928892996,0.28790722514686795
1658789945266747,0.9558861676966508,0.06390478370336439,0.29010452429999223
1658789945282735,0.8856946669718475,-0.007507438773174613,0.348210879682612
1658789945298723,0.8047608148317691,-0.0061646448462653325,0.42853437094682256
1658789945314711,0.8457770656900889,0.0017700465400167786,0.48102540627145807
1658789945330699,0.9394064240482187,-0.06878767071030767,0.43732356755931967
1658789945346686,0.9392843518730452,-0.15741206988632017,0.3678644998855569
1658789945362674,0.918287937743191,-0.206240939955749,0.33417257953765134
1658789945378662,0.8843518730449382,-0.18609903105210934,0.36725413900968906
1658789945394650,0.8789806973373011,-0.20941481651026184,0.4112001220721755
1658789945410638,0.8548104066529332,-0.25470359349965666,0.41681544213015975
1658789945426626,0.8625009536888681,-0.32294193942168326,0.4245059891660947
1658789945442614,0.8955825131609068,-0.2881513694972151,0.46381322957198456
1658789945458602,0.911451895933471,-0.20697337300679042,0.4699168383306631
1658789945474589,0.896070801861601,-0.16473640039673443,0.4346379797055011
1658789945490577,0.8987563897154196,-0.18011749446860437,0.4354924849317161
1658789945506565,0.8743419546807045,-0.16424811169604014,0.4574654764629589
1658789945522553,0.8668955519951167,-0.1342183566033417,0.4691844052796217
1658789945538541,0.896070801861601,-0.12896925307087814,0.4347600518806747
1658789945554535,0.9351338979171437,-0.1867093919279772,0.4213321126115819
1658789945570522,0.8997329671168082,-0.19671931029221046,0.4187685969329369
1658789945586510,0.8805676356145575,-0.16058594644083302,0.39667353322652055
1658789945602498,0.8675059128709846,-0.12848096437018386,0.38104829480430347
1658789945618486,0.8378423743038068,-0.07489127946898622,0.3661554894331269
1658789945634474,0.8311284046692604,-0.017639429312581,0.3657892729076062
1658789945650462,0.8529793240253296,0.023743038071259548,0.3518730449378191
1658789945666450,0.8705577172503238,0.07733272297245719,0.3587090867475391
1658789945682438,0.8384527351796747,0.11053635461966849,0.38239108873121275
1658789945698425,0.7739986266880292,0.11969176775768631,0.42108796826123474
1658789945714413,0.7998779278248263,0.1616845960173956,0.43060959792477327
1658789945730401,0.8607919432364382,0.19855039291981402,0.37482261387045046
1658789945746389,0.8399176012817575,0.23797970550087744,0.3679865720607305
1658789945762377,0.7186999313344016,0.31122301060502,0.3721370260166319
1658789945778365,0.6354467078660262,0.386297398336767,0.4439154650186925
1658789945794353,0.6668192568856339,0.4468451972228582,0.41718165865568047
1658789945810341,0.7374990463111315,0.4131532768749526,0.3323414969100478
1658789945826328,0.7456778820477608,0.4086366063935305,0.30975814450293715
1658789945842316,0.7200427252613109,0.4750438696879531,0.32452887769893923
1658789945858304,0.6748760204470896,0.5542687113756006,0.3411306935225449
1658789945874298,0.6284885938811327,0.5507286182955671,0.3335622186617835
1658789945890286,0.6304417486839098,0.5579308766308078,0.29291218432898436
1658789945906273,0.650583657587549,0.6393530174715805,0.2671549553673609
1658789945922261,0.6245822842755775,0.7038071259632259,0.24335088120851456
1658789945938249,0.5620813305867092,0.7029526207370109,0.29291218432898436
1658789945954237,0.5349813076981764,0.6776836804760817,0.2654459449149309
1658789945970225,0.5246051728084229,0.7114976729991609,0.23285267414358746
1658789945986213,0.5176470588235293,0.803662165255207,0.23150988021667818
1658789946002201,0.5188677805752651,0.8422369726100554,0.2293125810635539
1658789946018189,0.5227740901808193,0.8788586251621275,0.20636301213092256
1658789946034176,0.5060502021820401,0.8922865644312203,0.16998550392919842
1658789946050164,0.45160601205462747,0.8939955748836503,0.14435034714274853
1658789946066152,0.4022888532845048,0.9591821164263372,0.1599755855649656
1658789946082140,0.392278934920272,0.9857938506141757,0.1704737926298927
1658789946098128,0.4289005874723433,0.9419699397268637,0.10052643625543567
1658789946114116,0.4246280613412683,0.8904554818036168,0.1041886015106428
1658789946130104,0.3165941863126571,0.9259784847791259,0.1129777981231399
1658789946146092,0.21783779659723823,1.0437781338216219,0.11969176775768631
1658789946162079,0.2448157473105974,1.0562294956893261,0.0814831769283586
1658789946178067,0.34882124055847985,0.9402609292744337,0.09979400320439424
1658789946194030,0.2814373998626687,0.8839856565194175,0.07623407339589505
1658789946210018,0.10589761196307279,1.039749752040894,0.12982375829709358
1658789946226005,0.03582818341344307,1.1546196688792252,0.12713817044327502
1658789946241993,0.1520408941786835,1.1358205539024953,0.03472953383688093
1658789946257980,0.26276035706111234,1.0314488441290912,0.027161058976119534
1658789946273967,0.17865262836652196,1.0495155260547797,0.1369039444571607
1658789946289955,0.037537193865873064,1.0919966430151824,0.17084000915541342
1658789946305942,-0.006408789196612474,1.1739070725566494,0.20135805294880615
1658789946321930,0.060975051499198685,1.1540093080033573,0.13080033569848215
1658789946337917,0.11200122072175134,1.152666514076448,0.09234760051880642
1658789946353904,0.07318226901655578,1.1602349889372094,0.13531700617990428
1658789946369892,0.009216449225604606,1.1855039291981386,0.13507286182955713
1658789946385879,4.272526131074983E-4,1.1951476310368507,0.09344625009536855
1658789946401867,0.04583810177767589,1.1938048371099415,0.0861219195849543
1658789946417854,0.059632257572289404,1.208697642481117,0.12372014953841415
1658789946433841,0.008606088349736751,1.2234683756771192,0.13482871747921
1658789946449829,-0.017273212787060288,1.244831006332494,0.13495078965438356
1658789946465816,-0.005188067444876765,1.2107728694590678,0.1515526054779892
1658789946481804,0.001159685664148924,1.2287174792095827,0.14288548104066567
1658789946497791,0.013366903181506018,1.262531471732662,0.13507286182955713
1658789946513794,0.02008087281605242,1.2669260700389104,0.15777828641184133
1658789946529781,0.019592584115358136,1.2476386663614862,0.17206073090714913
1658789946545768,0.011291676203555312,1.2028381780727857,0.18072785534447267
1658789946561756,0.013244831006332447,1.1866025787747008,0.17364766918440555
1658789946577743,0.033752956435492365,1.163775082017243,0.1940337224383919
1658789946593731,0.04827954528114731,1.1115281910429538,0.2133211261158161
1658789946609718,0.06732280460822437,1.1059128709849695,0.22101167315175108
1658789946625705,0.08258182650492074,1.108598458838788,0.21222247653925397
1658789946641693,0.07354848554207649,1.1142137788967723,0.1919584954604412
1658789946657680,0.10492103456168422,1.0948043030441745,0.17962920576791053
1658789946673668,0.1642481116960406,1.0331578545815212,0.17486839093614126
1658789946689655,0.19806210421911974,1.0208285648889905,0.17779812314030696
1658789946705642,0.20404364080262472,1.0159456778820477,0.19342336156252404
1658789946721630,0.21149004348821254,1.0264438849469748,0.22357518883039607
1658789946737617,0.2620279240100709,0.9947051194018464,0.2255283436331732
1658789946753605,0.3314869916838328,0.9778591592278936,0.19085984588387905
1658789946769592,0.3518730449378191,0.9684596017395286,0.20135805294880615
1658789946785579,0.3203784237430378,0.9073014419775696,0.25983062485694663
1658789946801567,0.33698023956664347,0.8471198596169982,0.2410315098802167
1658789946817554,0.4158388647287712,0.8344243533989468,0.19012741283283763
1658789946833526,0.4527046616311896,0.8216067750057219,0.19879453727016116
1658789946849514,0.4561226825360496,0.7886472877088577,0.22906843671320676
1658789946865501,0.47724116884107737,0.7737544823376821,0.2482337682154574
1658789946881488,0.4787060349431602,0.7625238422217135,0.28363469901579297
1658789946897476,0.4682078278782331,0.7605706874189364,0.30609597924773
1658789946913463,0.5391317616540778,0.6973373006790267,0.2918135347524222
1658789946929451,0.6572976272220954,0.6160372320134275,0.239810788128481
1658789946945438,0.6986800946059359,0.6011444266422519,0.2225986114290075
1658789946961425,0.593698023956664,0.678171969176776,0.2869306477454794
1658789946977413,0.5260700389105057,0.6792706187533382,0.3132982375829707
1658789946993400,0.6237277790493625,0.6015106431677726,0.2525062943465324
1658789947009388,0.7290760662241551,0.497261005569543,0.23846799420157172
1658789947025375,0.7573968108644236,0.4031433585107198,0.2743572137026016
1658789947041362,0.75385671778439,0.36725413900968906,0.2936446173800258
1658789947057350,0.7342030975814451,0.3892271305409327,0.32782482642862565
1658789947073337,0.6736552986953539,0.4389105058365761,0.3570000762951091
1658789947089325,0.7068589303425652,0.44037537193865894,0.343083848325322
1658789947105312,0.8655527580682074,0.33710231174181704,0.2826581216144044
1658789947121299,0.9600366216525522,0.23077744716563675,0.20782787823300541
1658789947137287,0.8489509422446018,0.26483558403906304,0.2630045014114595
1658789947153289,0.7012436102845809,0.39581902800030555,0.36224917982757265
1658789947169277,0.7620355535210193,0.43659113450827824,0.36066224155031623
1658789947185264,0.9656519417105365,0.2507972838941024,0.2726482032501716
1658789947201252,1.0045929655909056,0.07147325856412579,0.23065537499046318
1658789947217239,0.8729991607537952,0.0365606164644845,0.33026626993209707
1658789947233226,0.8181887541008619,0.11493095292591704,0.393133440146487
1658789947249214,0.8283207446402683,0.29596398870832363,0.37824063477531134
1658789947265201,0.8279545281147476,0.29510948348210864,0.33026626993209707
1658789947281189,0.9052262149996189,0.15301747158007206,0.32269779507133567
1658789947297176,0.9915312428473335,0.07318226901655578,0.38568703746089916
1658789947313163,0.8883802548256661,0.10016021972991496,0.4700389105058367
1658789947329151,0.8003662165255205,0.13360799572747428,0.5105668726634622
1658789947345138,0.8849622339208061,0.09820706492713782,0.463691157396811
1658789947361126,1.0297398336766612,0.02777141985198739,0.3743343251697562
1658789947377113,1.037186236362249,-0.011535820553902454,0.33575951781490776
1658789947393100,0.9521019302662701,-0.020447089341573133,0.35675593194476196
1658789947409088,0.8336919203479054,0.004943923094529623,0.38410009918364274
1658789947425075,0.7189440756847487,0.04962233920805659,0.4146181429770355
1658789947441063,0.7093003738460366,0.03997863736934448,0.4251163500419626
1658789947457050,0.8400396734569311,-0.06268406195162912,0.4196231021591519
1658789947473022,0.9319600213626309,-0.18573281452658863,0.43573662928206325
1658789947489009,0.9524681467917908,-0.20978103303578255,0.4711375600823988
1658789947504997,0.9295185778591595,-0.1359273670557717,0.4900587472343023
1658789947520984,0.900343327992676,-0.045593957427328746,0.4822461280231938
1658789947536972,0.8767833981841768,0.009948882276646032,0.47186999313344025
1658789947552959,0.8762951094834825,0.01239032578011745,0.4691844052796217
1658789947568946,0.8910658426794846,0.004455634393835339,0.47943846799420164
1658789947584934,0.8892347600518811,-0.006652933546959616,0.47479972533760595
1658789947600921,0.9059586480506603,-0.0357061112382695,0.4564888990615703
1658789947616909,0.905470359349966,-0.019836728465705278,0.4246280613412683
1658789947632896,0.8694590676737617,0.02032501716639956,0.3881284809643706
1658789947648883,0.831250476844434,0.08270389868009431,0.3875181200885027
1658789947664871,0.8343022812237733,0.1289692530708786,0.3993591210803391
1658789947680858,0.8501716639963375,0.12018005645838059,0.37689784084840205
1658789947696846,0.8706797894254974,0.09893949797817925,0.3792172121766999
1658789947712833,0.8582284275577932,0.14544899671931066,0.39325551232166056
1658789947728820,0.8107423514152741,0.2213778896772718,0.42023346303501974
1658789947744808,0.8253910124361026,0.2562905317769131,0.4026550698100255
1658789947760795,0.8461432822156096,0.2490882734416724,0.3717708094911112
1658789947776783,0.8343022812237733,0.2611734187838559,0.3510185397116041
1658789947792785,0.824414435034714,0.31012436102845786,0.3519951171129927
1658789947808773,0.797680628671702,0.34918745708400056,0.36481269550621764
1658789947824760,0.7494621194781415,0.3831235217822542,0.3716487373159376
1658789947840747,0.7309071488517587,0.42902265964751685,0.3721370260166319
1658789947856735,0.7686274509803921,0.4320744640268561,0.3444266422522313
1658789947872722,0.8203860532539862,0.40717174029144765,0.2927901121538108
1658789947888710,0.804516670481422,0.43524834058136896,0.26483558403906304
1658789947904697,0.7130846112764173,0.5206988632028686,0.3277027542534521
1658789947920684,0.646311131456474,0.5821011673151748,0.36017395284962195
1658789947936672,0.6734111543450068,0.5955291065842676,0.3049973296711679
1658789947952659,0.7359121080338751,0.54535744258793,0.25604638742656594
1658789947968647,0.7224841687647823,0.535957885099565,0.24310673685816742
1658789947984634,0.6317845426108191,0.6399633783474483,0.26776531624322875
1658789948000621,0.5849088273441669,0.7263904783703365,0.26556801709010447
1658789948016609,0.6343480582894641,0.7361562523842222,0.22992294193942175
1658789948032596,0.6477759975585569,0.7250476844434273,0.2150301365682461
1658789948048584,0.5863736934462498,0.7249256122682537,0.2717936980239566
1658789948064571,0.5298542763408864,0.7728999771114671,0.2843671320668344
1658789948080558,0.52143129625391,0.8098878461890591,0.22870222018768604
1658789948096546,0.5142290379186694,0.8136720836194398,0.22919050888838033
1658789948112548,0.5156939040207522,0.7671625848783092,0.18500038147554765
1658789948128536,0.5434042877851528,0.794262607766842,0.11883726253147131
1658789948144523,0.5127641718165865,0.9027847714961474,0.10663004501411422
1658789948160511,0.39826047150377697,1.0379186694132905,0.2141756313420311
1658789948176498,0.3565117875944148,0.9810330357824064,0.23456168459601745
1658789948192485,0.4750438696879531,0.8527351796749825,0.12603952086671288
1658789948208473,0.5072709239337758,0.7896238651102463,0.11798275730525631
1658789948224460,0.31439688715953285,0.9198748760204474,0.17547875181200911
1658789948240448,0.18927290760662263,1.0463416495002669,0.2272373540856032
1658789948256435,0.31403067063401213,0.982009613183795,0.12323186083771986
1658789948272422,0.4191348134584576,0.9066910811017017,0.07672236209658934
1658789948288410,0.29169146257724865,0.9561303120469979,0.16437018387121416
1658789948304397,0.13495078965438356,1.036942092011902,0.20587472343022828
1658789948320385,0.18084992751964624,1.0862592507820246,0.14166475928892996
1658789948336372,0.30182345311665504,0.9864042114900435,0.09515526054779855
1658789948352359,0.28656443121995867,0.9326924544136723,0.09173723964293856
1658789948368347,0.15362783245593992,0.9889677271686885,0.14886701762417065
1658789948384334,0.04596017395284946,1.067093919279774,0.20428778515297186
1658789948400322,0.08172732127870574,1.0512245365072097,0.13043411917296144
1658789948416309,0.17450217441062055,0.9928740367742428,0.0794079499504079
1658789948432281,0.12506294346532432,1.0291294728007934,0.15631342030975848
1658789948448269,0.03289845120927737,1.112870984969863,0.18133821622034052
1658789948464256,0.06305027847714939,1.1640192263675901,0.15106431677729493
1658789948480243,0.11895933470664488,1.1105516136415652,0.12298771648737272
1658789948496231,0.11041428244449492,1.047440299076829,0.13824673838406998
1658789948512218,0.04132143129625376,1.0680704966811625,0.14178683146410354
1658789948528205,-0.01239032578011745,1.1737850003814758,0.12823682001983716
1658789948544193,0.012024109254596738,1.2111390859845885,0.10345616845960137
1658789948560180,0.03668268863965807,1.1554741741054402,0.11419851987487561
1658789948576168,0.004943923094529623,1.1641412985427637,0.15008773937590636
1658789948592155,-0.013366903181506018,1.2036926832990007,0.14178683146410354
1658789948608142,-0.008850232700083893,1.2207827878233006,0.15082017242694779
1658789948624130,-0.01104753185320817,1.2134584573128864,0.17938506141756339
1658789948640117,-0.015686274509803866,1.2245670252536813,0.15423819333180777
1658789948656105,0.004333562218661768,1.2517891203173876,0.1582665751125356
1658789948672092,0.02545204852368954,1.1878233005264365,0.16095216296635417
1658789948688079,0.016906996261539575,1.105790798809796,0.1461814297703521
1658789948704067,-0.03826962691691449,1.1599908445868623,0.16900892652780986
1658789948720054,-0.042786297398336615,1.2217593652246892,0.15277332722972492
1658789948736042,0.017273212787060288,1.19649042496376,0.13043411917296144
1658789948752044,0.04498359655146089,1.1363088426031895,0.1494773785000385
1658789948768032,0.04583810177767589,1.0807660028992139,0.16412603952086702
1658789948784019,0.07110704203860507,1.075883115892271,0.1599755855649656
1658789948800006,0.06964217593652222,1.140459296559091,0.17120622568093413
1658789948815994,0.05035477225909801,1.1581597619592587,0.21344319829098968
1658789948831981,0.09637598229953426,1.0954146639200424,0.203677424277104
1658789948847969,0.16644541084916487,1.0720988784618903,0.21026932173647683
1658789948863956,0.19244678416113548,1.0501258869306476,0.2150301365682461
1658789948879943,0.18487830930037408,1.0515907530327304,0.20135805294880615
1658789948895931,0.1928130006866562,1.0504921034561683,0.19598687724116903
1658789948911918,0.2167391470206761,1.0108186465247577,0.20843823910887327
1658789948927906,0.2482337682154574,0.9715114061188679,0.20099183642328544
1658789948943893,0.2995040817883572,0.9529564354924851,0.1528953994048985
1658789948959880,0.3401541161211563,0.9215838864728774,0.15643549248493205
1658789948975868,0.3224536507209885,0.8728770885786217,0.19342336156252404
1658789948991855,0.31390859845883856,0.896070801861601,0.23065537499046318
1658789949007843,0.35419241626611697,0.8947280079346918,0.2146639200427254
1658789949023830,0.4289005874723433,0.8972915236133368,0.17828641184100125
1658789949039817,0.4719920653086138,0.8247806515602347,0.22821393148699176
1658789949055805,0.4809033340962845,0.7842526894026092,0.281071183337148
1658789949071777,0.49250019073777374,0.8056153200579841,0.27570000762951086
1658789949087764,0.5137407492179751,0.8181887541008619,0.23627069504844744
1658789949103752,0.5383993286030364,0.8474860761425189,0.2121004043640804
1658789949119739,0.569527733272297,0.7406729228656443,0.24969863431754025
1658789949135727,0.6284885938811327,0.6146944380865182,0.2238193331807432
1658789949151714,0.6433813992523083,0.6277561608300912,0.1986724650949876
1658789949167701,0.582345311665522,0.6549782558937975,0.2587319752803845
1658789949183689,0.5863736934462498,0.5657434958419163,0.29047074082551294
1658789949199676,0.7044174868390938,0.41718165865568047,0.2540932326237888
1658789949215664,0.7727779049362935,0.36932936598763977,0.21344319829098968
1658789949231651,0.7562981612878614,0.41889066910811046,0.2525062943465324
1658789949247638,0.7501945525291829,0.4616159304188603,0.27106126497291516
1658789949263626,0.7656977187762264,0.44794384679942034,0.274235141527428
1658789949279613,0.691844052796216,0.43915465018692323,0.29974822613870433
1658789949295601,0.7016098268101016,0.3692072938124662,0.34930952925917413
1658789949311588,0.8736095216296631,0.32196536202029424,0.2771648737315937
1658789949327575,0.9431906614785994,0.31317616540779714,0.27191577019913016
1658789949343563,0.8084229800869762,0.317204547188525,0.34418249790188415
1658789949359550,0.7354238193331808,0.33490501258869276,0.36603341725795335
1658789949375537,0.8114747844663155,0.279362172884718,0.32660410467688994
1658789949391540,0.9632104982070651,0.1893949797817962,0.27618829633020514
1658789949407528,0.9722438391699093,0.16986343175402485,0.27203784237430373
1658789949423515,0.8118410009918362,0.18280308232242337,0.34503700312809915
1658789949439502,0.784008545052262,0.1961089494163426,0.34711223010604986
1658789949455490,0.9092545967803467,0.14837872892347637,0.2999923704890515
1658789949471477,0.9707789730678265,0.09637598229953426,0.2842450598916608
1658789949487465,0.9141374837872895,0.06622415503166224,0.32782482642862565
1658789949503452,0.8732433051041424,0.07623407339589505,0.37860685130083205
1658789949519439,0.8856946669718475,0.07623407339589505,0.37531090257114563
1658789949535427,0.9650415808346686,0.03411917296101308,0.3355153734645606
1658789949551414,1.0200961318379491,4.272526131074983E-4,0.313786526283665
1658789949567402,0.9916533150225071,-0.00982681010147246,0.32660410467688994
1658789949583389,0.8903334096284432,0.03533989471274879,0.3967956054016941
1658789949599376,0.8057373922331577,0.06146334019989297,0.44074158846417966
1658789949615364,0.8471198596169982,0.018371862363622427,0.43744563973449324
1658789949631351,0.9302510109102009,-0.091737239642939,0.391424429694057
1658789949647338,0.950148775463493,-0.15631342030975803,0.3943541618982227
1658789949663326,0.9110856794079503,-0.13690394445716025,0.420721751735714
1658789949679313,0.8844739452201118,-0.1308003356984817,0.4242618448157476
1658789949695301,0.905470359349966,-0.13983367666132596,0.40924696726939835
1658789949711273,0.8751964599069204,-0.14728007934691378,0.41474021515220905
1658789949727260,0.8477302204928661,-0.12127870603494317,0.4501411459525446
1658789949743248,0.8758068207827883,-0.10638590066376752,0.4595407034409096
1658789949759235,0.8856946669718475,-0.09893949797817969,0.4253604943923097
1658789949775222,0.9160906385900667,-0.10699626153963537,0.4132753490501262
1658789949791210,0.9121843289845124,-0.06585793850614197,0.4035095750362405
1658789949807197,0.864820325017166,0.003356984817273201,0.42645914396887186
1658789949823185,0.8609140154116117,0.014465552758068156,0.42987716487373184
1658789949839172,0.8991226062409403,-0.02777141985198739,0.419867246509499
1658789949855159,0.9007095445181967,-0.052063782711528006,0.4237735561150533
1658789949871147,0.8738536659800102,-0.004333562218661768,0.4175478751812012
1658789949887134,0.850293736171511,0.07452506294346506,0.42853437094682256
1658789949903122,0.8448004882887004,0.11639581902799989,0.39411001754787556
1658789949919109,0.855420767528801,0.13250934615091214,0.3688410772869455
1658789949935096,0.8462653543907832,0.14227512016479782,0.37274738689249975
1658789949951084,0.8092774853131912,0.18878461890592835,0.3747005416952769
1658789949967071,0.7910887312123291,0.23297474631876103,0.3926451514457927
1658789949983059,0.8103761348897534,0.2843671320668344,0.34503700312809915
1658789949999046,0.8488288700694282,0.27789730678263513,0.29889372091248934
1658789950015033,0.8516365300984203,0.2714274814984359,0.280216678110933
1658789950031036,0.7534905012588693,0.3729915312428469,0.34247348744945416
1658789950047023,0.7058823529411766,0.42975509269855827,0.3883726253147177
1658789950063011,0.7644769970244907,0.41095597772182835,0.30426489662012646
1658789950078998,0.7871824216067749,0.4303654535744261,0.26605630579079875
1658789950094986,0.7249256122682537,0.4976272220950637,0.3115892271305407
1658789950110973,0.7398184176394293,0.4812695506218052,0.3003585870145722
1658789950126960,0.75043869687953,0.4977492942702373,0.25934233615625235
1658789950142948,0.6691386282139318,0.5943083848325319,0.25226214999618524
1658789950158935,0.6115205615320054,0.6723125047684446,0.273380636301213
1658789950174923,0.652292668039979,0.7042954146639202,0.25055313954375524
1658789950190910,0.744457160296025,0.613351644159609,0.21441977569237824
1658789950206897,0.7302967879758908,0.578072785534447,0.2175936522468911
1658789950222885,0.5938200961318376,0.6830548561837189,0.21149004348821254
1658789950238872,0.47809567406729236,0.8341802090485997,0.22699320973525605
1658789950254860,0.5077592126344701,0.8455329213397418,0.2103913939116504
1658789950270847,0.6016327153429462,0.76923781185626,0.1453269245441371
1658789950286834,0.5864957656214234,0.7847409781033035,0.17877470054169553
1658789950302822,0.5421835660334171,0.792553597314412,0.15082017242694779
1658789950318809,0.47907225146868093,0.8323491264209961,0.12152285038528987
1658789950334797,0.394842450598917,0.9085221637293053,0.1604638742656599
1658789950350769,0.3460135805294877,0.9607690547035936,0.25433737697413594
1658789950366756,0.43402761882963325,0.9162127107652402,0.1587548638132299
1658789950382743,0.5093461509117265,0.8404058899824518,0.03350881208514522
1658789950398731,0.3833676661326013,0.930495155260548,0.09222552834363285
1658789950414718,0.23077744716563675,1.0253452353704127,0.18780804150453978
1658789950430706,0.31989013504234354,1.0233920805676355,0.06707866025787723
1658789950446693,0.40802624551766264,0.9781033035782407,0.03338673990997165
1658789950462680,0.25311665522240023,0.9831082627603571,0.12457465476462914
1658789950478668,0.15277332722972492,1.0287632562752727,0.18023956664377838
1658789950494655,0.2528725108720531,1.0316929884794384,0.059754329747462975
1658789950510643,0.3195239185168228,1.0149691004806591,0.031067368581673804
1658789950526630,0.19354543373769761,1.0009308003356985,0.0852674143587393
1658789950542617,0.07843137254901933,1.0823529411764703,0.132265201800565
1658789950558605,0.11212329289692491,1.0905317769130995,0.10663004501411422
1658789950574592,0.22235446707866036,0.9779812314030671,0.05352864881361086
1658789950590580,0.20892652780956755,0.9394064240482187,0.08136110475318503
1658789950606567,0.03607232776379021,1.0254673075455862,0.12860303654535787
1658789950622554,-0.031067368581673804,1.1924620431830322,0.12664988174258074
1658789950638542,0.10052643625543567,1.2134584573128864,0.02801556420233453
1658789950654529,0.15924315251392418,1.0797894254978253,0.039002059967955915
1658789950670532,0.026916914625772392,1.052567330434119,0.11969176775768631
1658789950686519,-0.037781338216220206,1.1703669794766158,0.16070801861600703
1658789950702507,0.019104295414663852,1.2089417868314642,0.062317845426107965
1658789950718494,0.05365072098878443,1.1674372472724501,0.07367055771725006
1658789950734481,0.0040894178683146265,1.210406652933547,0.12018005645838059
1658789950750469,-0.014465552758068156,1.254840924696727,0.14032196536202068
1658789950766456,-0.009948882276646032,1.2603341725795376,0.13287556267643286
1658789950782444,0.006775005722133187,1.228351262684062,0.12103456168459559
1658789950798431,0.006408789196612474,1.1767147325856415,0.12359807736324058
1658789950814418,-0.0040894178683146265,1.2088197146562907,0.12481879911497629
1658789950830406,-0.008850232700083893,1.2055237659266043,0.11859311818112417
1658789950846393,0.007873655298695326,1.1830624856946672,0.11212329289692491
1658789950862381,-0.003479056992446772,1.1718318455786987,0.1453269245441371
1658789950878368,0.005065995269703194,1.1337453269245445,0.1284809643701843
1658789950894355,0.021179522392614558,1.1602349889372094,0.14007782101167354
1658789950910343,0.03961242084382377,1.1592584115358209,0.14581521324483138
1658789950926330,0.07025253681239008,1.0978561074235138,0.17022964827954556
1658789950942318,0.0747692072938122,1.0601358052948804,0.15802243076218847
1658789950958305,0.07440299076829149,1.086137178606851,0.1561913481345849
1658789950974292,0.08380254825665645,1.1038376440070188,0.1663233386739913
1658789950990295,0.1117570763714042,1.1046921492332338,0.16144045166704846
1658789951006282,0.13360799572747428,1.098100251773861,0.16229495689326345
1658789951022270,0.1868314641031512,1.0523231860837718,0.13006790264744073
1658789951038257,0.24505989166094455,1.0030060273136492,0.11505302510109061
1658789951054245,0.22858014801251247,0.9605249103532465,0.14117647058823568
1658789951070232,0.20733958953231113,0.9647974364843215,0.14630350194552566
1658789951086219,0.22394140535591678,1.0133821622034027,0.1465476462958728
1658789951102207,0.26727702754253446,0.9964141298542764,0.14642557412069923
1658789951118194,0.3132982375829707,0.9328145265888459,0.14972152285038565
1658789951134182,0.3485770962081327,0.8626230258640417,0.1721828030823227
1658789951150169,0.37103837644006976,0.8474860761425189,0.17877470054169553
1658789951166156,0.3571221484702827,0.9120622568093388,0.2048981460288397
1658789951182144,0.349919890135042,0.9212176699473567,0.2112458991378654
1658789951198131,0.38776226443884987,0.9318379491874573,0.21112382696269183
1658789951214119,0.45136186770428033,0.853711757076371,0.23712520027466244
1658789951230106,0.5047074082551308,0.8194094758525976,0.23456168459601745
1658789951246093,0.5280231937132829,0.8324711985961697,0.2318760967421989
1658789951262081,0.5390096894789043,0.7876707103074692,0.21857022964827966
1658789951278068,0.5429159990844585,0.7798580910963606,0.20465400167849257
1658789951294056,0.5739223315785456,0.7503166247043564,0.2091706721599147
1658789951310028,0.6076142519264511,0.6760967421988253,0.20965896086060898
1658789951326015,0.6106660563057904,0.6435034714274819,0.17145037003128127
1658789951342002,0.5891813534752419,0.6448462653543912,0.1885404745555812
1658789951357990,0.5764858472571905,0.6038300144960704,0.2735027084763866
1658789951373977,0.6378881513694976,0.5974822613870447,0.2692301823453116
1658789951389965,0.7110093842984666,0.6157930876630804,0.22858014801251247
1658789951405952,0.731395437552453,0.6060273136491947,0.23260852979324032
1658789951421939,0.718577859159228,0.5679407949950406,0.2826581216144044
1658789951437927,0.6793926909285117,0.5326619363698786,0.33246356908522134
1658789951453914,0.7154039826047152,0.48859388113221947,0.3380788891432056
1658789951469902,0.8433356221866175,0.43866636148622895,0.2781414511329823
1658789951485889,0.9219501029983981,0.3721370260166319,0.23114366369115746
1658789951501876,0.7965819790951398,0.3566338597695884,0.2804608224612801
1658789951517864,0.6503395132372018,0.43366140230411254,0.36725413900968906
1658789951533851,0.7261463340199894,0.467963683527886,0.35089646753643056
1658789951549839,0.8913099870298318,0.3893492027161063,0.27313649195086587
1658789951565826,0.9118181124589917,0.2171053635461968,0.28363469901579297
1658789951581813,0.8206301976043333,0.1713282978561077,0.3392996108949413
1658789951597801,0.8155031662470433,0.22369726100556964,0.39240100709544556
1658789951613788,0.8754406042572676,0.25311665522240023,0.37689784084840205
1658789951629791,0.8737315938048367,0.2158846417944611,0.3688410772869455
1658789951645778,0.8493171587701225,0.15167467765316278,0.3792172121766999
1658789951661766,0.8776379034103918,0.11346608682383419,0.3959411001754791
1658789951677753,0.9224383916990924,0.0995498588540471,0.3847104600595106
1658789951693740,0.9273212787060352,0.0739147020675972,0.35846494239719195
1658789951709728,0.8891126878767075,0.09112687876707071,0.3847104600595106
1658789951725715,0.8860608834973682,0.07684443427176291,0.4590524147402153
1658789951741703,0.9103532463569088,0.09039444571602928,0.4452582589456018
1658789951757690,0.9091325246051731,0.07806515602349862,0.42767986572060757
1658789951773677,0.8686045624475467,0.018127718013275285,0.4162050812542919
1658789951789665,0.8378423743038068,-0.05352864881361086,0.43317311360341826
1658789951805652,0.814160372320134,-0.11078049897001607,0.46210421911955457
1658789951821640,0.8574959945067517,-0.16168459601739515,0.4784618905928131
1658789951837627,0.8924086366063939,-0.17901884489204223,0.463691157396811
1658789951853614,0.8688487067978938,-0.14752422369726093,0.4683299000534067
1658789951869602,0.8999771114671553,-0.14142061493858238,0.4632028686961167
1658789951885589,0.8980239566643782,-0.13482871747920955,0.4635690852216374
1658789951901577,0.8595712214847024,-0.11383230334935535,0.4776073853665981
1658789951917564,0.8595712214847024,-0.06451514457923269,0.46393530174715814
1658789951933551,0.8747081712062252,-0.028625925078202386,0.42975509269855827
1658789951949524,0.8750743877317468,-0.04229800869764233,0.4351262684061954
1658789951965511,0.8758068207827883,-0.08087281605249119,0.45038529030289176
1658789951981498,0.8928969253070882,-0.09112687876707115,0.4497749294270239
1658789951997486,0.8823987182421611,-0.04180971999694805,0.42389562829022687
1658789952013473,0.8538338292515446,0.016540779736018862,0.41681544213015975
1658789952029461,0.8291752498664833,0.06012054627298369,0.41181048294804334
1658789952045448,0.854566262302586,0.0823376821545736,0.4162050812542919
1658789952061435,0.8499275196459903,0.11248950942244562,0.42194247348744973
1658789952077423,0.8319829098954754,0.1419089036392771,0.423285267414359
1658789952093410,0.8056153200579841,0.18707560845349835,0.4274357213702604
1658789952109398,0.8090333409628441,0.2293125810635539,0.3981383993286034
1658789952125385,0.8350347142748147,0.27020675974670016,0.34674601358052914
1658789952141372,0.8251468680857554,0.3165941863126571,0.32355230029755067
1658789952157360,0.7725337605859464,0.37482261387045046,0.3224536507209885
1658789952173347,0.7178454261081866,0.42731364919508685,0.36823071641107763
1658789952189334,0.7501945525291829,0.43866636148622895,0.347356374456397
1658789952205322,0.815869382772564,0.4364690623331047,0.30646219577325073
1658789952221309,0.7696040283817807,0.4497749294270239,0.2918135347524222
1658789952237297,0.6988021667811095,0.497261005569543,0.2914473182269015
1658789952253284,0.7096665903715573,0.5535362783245592,0.3037766079194322
1658789952269287,0.761547264820325,0.5897917143511098,0.24579232471198598
1658789952285274,0.7169909208819716,0.6839093614099339,0.2872968642710001
1658789952301262,0.6308079652094305,0.7644769970244907,0.34637979705500843
1658789952317249,0.6618142977035175,0.6538796063172354,0.31061264972915215
1658789952333236,0.6842755779354546,0.6685282673380639,0.24286259250782027
1658789952349224,0.591134508278019,0.7197985809109637,0.2848554207675287
1658789952365211,0.6162813763637747,0.7034409094377052,0.22833600366216533
1658789952381199,0.7531242847333486,0.6903791866941331,0.09405661097123641
1658789952397186,0.6590066376745254,0.7919432364385441,0.15570305943389062
1658789952413173,0.46430151827267885,0.8806897077897311,0.2926680399786372
1658789952429161,0.510078583962768,0.8030518043793391,0.26520180056458376
1658789952445148,0.6641336690318154,0.6391088731212333,0.13702601663233427
1658789952461135,0.5956511787594412,0.7019760433356224,0.14923323414969136
1658789952477123,0.3938658731975284,0.9212176699473567,0.3049973296711679
1658789952493110,0.2881513694972151,0.9536888685435265,0.3392996108949413
1658789952509098,0.4079041733424891,0.8185549706263826,0.21405355916685753
1658789952525085,0.5137407492179751,0.7272449835965515,0.1491111619745178
1658789952541072,0.39630731670099983,0.8251468680857554,0.24933241779201953
1658789952557060,0.2427405203326467,0.9566186007476922,0.34345006485084273
1658789952573047,0.28827344167238866,0.9671168078126193,0.29132524605172794
1658789952589019,0.41046768902113406,0.8383306630045011,0.18744182497901907
1658789952605007,0.3230640115968564,0.9090104524299996,0.23126573586633103
1658789952620994,0.2318760967421989,0.98457312886244,0.26813153276874946
1658789952636982,0.2641031509880216,0.9856717784390021,0.22906843671320676
1658789952652969,0.34161898222323916,0.9055924315251396,0.15777828641184133
1658789952668956,0.3203784237430378,0.8916762035553525,0.1654688334477763
1658789952684944,0.20062561989776473,0.9997100785839628,0.2280918593118182
1658789952700931,0.0861219195849543,1.0495155260547797,0.27240405889982444
1658789952716919,0.1410543984130621,1.0153353170061798,0.22125581750209822
1658789952732906,0.23248645761806674,0.9732204165712979,0.1410543984130621
1658789952748893,0.16888685435263628,1.0661173418783854,0.1839017318989855
1658789952764881,0.08538948653391287,1.1010299839780266,0.27118333714808873
1658789952780868,0.07989623865110218,1.0952925917448688,0.24579232471198598
1658789952796856,0.14752422369726137,1.036942092011902,0.19720759899290474
1658789952812843,0.12481879911497629,1.0043488212405585,0.17230487525749627
1658789952828830,0.023498893720912406,1.1493705653467616,0.21844815747310609
1658789952844818,-0.04217593652246876,1.2770580605783168,0.272526131074998
1658789952860805,0.009460593575951748,1.1784237430380715,0.1893949797817962
1658789952876793,0.06878767071030722,1.1098191805905238,0.12335393301289344
1658789952892780,0.039002059967955915,1.1295948729686431,0.13250934615091214
1658789952908783,0.013122758831158876,1.2022278171969178,0.10736247806515564
1658789952924770,0.0432745860990309,1.187090867475395,0.09771877622644354
1658789952940757,0.015197985809109582,1.1195849546044094,0.14203097581445068
1658789952956745,-0.04449530785076661,1.1597467002365152,0.18500038147554765
1658789952972732,-0.04852368963149445,1.262775616083009,0.14935530632486493
1658789952988720,-0.0037232013427939137,1.261066605630579,0.1629053177691313
1658789953004707,-0.00836194399938961,1.2182192721446556,0.19256885633630905
1658789953020694,-0.0042114900434881974,1.2083314259555964,0.18536659800106836
1658789953036682,0.018127718013275285,1.228351262684062,0.17206073090714913
1658789953052669,-0.005065995269703194,1.2304264896620127,0.1835355153734648
1658789953068657,-0.009338521400778177,1.18794537270161,0.21649500267032895
1658789953084644,0.0060425726710917615,1.1233691920347901,0.21185626001373326
1658789953100631,0.019348439765010994,1.1363088426031895,0.2095368886854354
1658789953116619,0.024963759822995257,1.1426565957122152,0.2318760967421989
1658789953132606,0.03729304951552592,1.1078660257877466,0.2246738384069582
1658789953148594,0.06622415503166224,1.1073777370870523,0.22113374532692465
1658789953164581,0.11773861295490917,1.1064011596856638,0.2121004043640804
1658789953180568,0.16693369954985915,1.060257877470054,0.20477607385366614
1658789953196556,0.1763332570382241,1.0524452582589454,0.22919050888838033
1658789953212543,0.1398336766613264,1.083573662928206,0.24676890211337454
1658789953228546,0.14435034714274853,1.108598458838788,0.2554360265506981
1658789953244533,0.2255283436331732,1.0178988326848248,0.21637293049515538
1658789953260521,0.33624780651560204,0.910597390707256,0.19586480506599546
1658789953276508,0.3667658503089948,0.8428473334859232,0.2150301365682461
1658789953292495,0.30597390707255645,0.9058365758754867,0.2532387273975738
1658789953308483,0.28668650339513224,0.9147478446631574,0.25934233615625235
1658789953324470,0.37567711909666635,0.9224383916990924,0.22577248798352034
1658789953340458,0.4351262684061954,0.8058594644083312,0.25397116044861523
1658789953356445,0.4530708781567103,0.7359121080338751,0.23700312809948887
1658789953372432,0.5033646143282215,0.7367666132600901,0.23749141680018315
1658789953388420,0.5010452429999237,0.7626459143968871,0.2339513237201496
1658789953404407,0.45087357900358604,0.7516594186312657,0.28168154421301583
1658789953420395,0.4867627985046159,0.6728007934691389,0.2897383077744715
1658789953436382,0.5991912718394747,0.6239719233997096,0.24591439688715955
1658789953452369,0.6692607003891053,0.5753871976806284,0.24383916990920884
1658789953468357,0.6288548104066534,0.6405737392233162,0.2633707179369802
1658789953484344,0.597116044861524,0.6128633554589147,0.31390859845883856
1658789953500332,0.6328831921873812,0.537666895551995,0.31488517586022713
1658789953516319,0.6914778362706953,0.42987716487373184,0.3361257343404285
1658789953532306,0.7468986037994965,0.4129091325246055,0.32611581597619566
1658789953548278,0.7293202105745022,0.44245059891660965,0.31854734111543426
1658789953564266,0.7417715724422065,0.3917906462195777,0.3015793087663079
1658789953580253,0.7647211413748378,0.2974288548104065,0.2990157930876629
1658789953596241,0.7907225146868084,0.3259937438010221,0.3527275501640341
1658789953612228,0.7906004425116349,0.39154650186923057,0.35883115892271267
1658789953628215,0.8305180437933926,0.30890363927672215,0.34247348744945416
1658789953644203,0.8866712443732361,0.1763332570382241,0.2735027084763866
1658789953660190,0.8335698481727318,0.23041123064011604,0.29462119478141435
1658789953676178,0.7733882658121614,0.3544365606164641,0.40875867856870407
1658789953692165,0.8118410009918362,0.38739604791332916,0.38153658350499775
1658789953708152,0.9292744335088123,0.22113374532692465,0.31805905241474
1658789953724140,0.9584496833752958,0.09442282749675712,0.3270923933775842
1658789953740127,0.8783703364614333,0.11541924162661132,0.4141298542763412
1658789953756115,0.8532234683756768,0.17865262836652196,0.46771953917753883
1658789953772102,0.912306401159686,0.18414587624933265,0.4191348134584576
1658789953788089,0.9187762264438852,0.11200122072175134,0.3495536736095213
1658789953804077,0.8760509651331354,0.04315251392385733,0.35761043717097696
1658789953820064,0.9387960631723509,0.0252079041733424,0.35687800411993553
1658789953836052,1.001052872510872,0.059876401922636546,0.34088654917219774
1658789953852039,0.9223163195239188,0.1138323033493549,0.3717708094911112
1658789953868042,0.7974364843213548,0.135683222705425,0.4303654535744261
1658789953884029,0.7327382314793622,0.07635614557106862,0.4793163958190281
1658789953900016,0.7711909666590371,-0.03204394598306237,0.48358892195010306
1658789953916004,0.8443121995880061,-0.1275043869687953,0.52826733806363
1658789953931991,0.917433432516976,-0.18158236057068722,0.5126420996414129
1658789953947979,0.9606469825284201,-0.1509422446021209,0.4889600976577402
1658789953963966,0.9546654459449151,-0.09015030136568258,0.46393530174715814
1658789953979953,0.8854505226215004,-0.039124132143129486,0.43866636148622895
1658789953995941,0.8396734569314104,-0.016906996261539575,0.42279697871366473
1658789954011928,0.8573739223315782,-0.013244831006332447,0.42059967956054045
1658789954027916,0.9126726176852067,-0.021789883268482413,0.4137636377508205
1658789954043903,0.9250019073777374,-0.011291676203555312,0.40045777065690125
1658789954059890,0.8946059357595182,0.011535820553902454,0.39081406881818914
1658789954075878,0.8560311284046689,0.0386358434424352,0.38617532616159345
1658789954091865,0.8627450980392153,0.07074082551308436,0.38410009918364274
1658789954107853,0.9010757610437174,0.09295796139467427,0.3883726253147177
1658789954123840,0.8932631418326089,0.11041428244449492,0.36981765468833405
1658789954139827,0.8456549935149154,0.12884718089570502,0.37640955214770777
1658789954155815,0.8310063324940868,0.15350576028076635,0.3812924391546506
1658789954171802,0.8448004882887004,0.18548867017624193,0.33661402304112276
1658789954187774,0.8666514076447696,0.22284275577935464,0.2982833600366215
1658789954203762,0.8125734340428776,0.30133516441596075,0.3053635461966886
1658789954219749,0.7459220263981079,0.4041199359121084,0.33795681696803204
1658789954235736,0.7472648203250172,0.4392767223620968,0.3192797741664757
1658789954251724,0.8266117341878383,0.36688792248416835,0.2766765850308994
1658789954267711,0.8522468909742882,0.344792858777752,0.2544594491493095
1658789954283699,0.768383306630045,0.44879835202563534,0.3007248035400929
1658789954299686,0.682444495307851,0.5370565346761271,0.33795681696803204
1658789954315673,0.7284657053482873,0.498970016021973,0.2562905317769131
1658789954331661,0.804516670481422,0.45844205386434744,0.18341344319829123
1658789954347648,0.7440909437705043,0.5076371404592965,0.2280918593118182
1658789954363636,0.6726787212939653,0.5784390020599677,0.26068513008316163
1658789954379623,0.6707255664911882,0.6187228198672461,0.23126573586633103
1658789954395610,0.7053940642404823,0.5762417029068434,0.13629358358129284
1658789954411598,0.655710688944839,0.6320286869611662,0.1276264591439693
1658789954427585,0.5591515983825435,0.7759517814908063,0.2086823834592204
1658789954443573,0.5050736247806515,0.8745860990310517,0.26569008926527804
1658789954459560,0.5552452887769892,0.7672846570534828,0.2401770046540017
1658789954475547,0.6265354390783555,0.5972381170366976,0.17328145265888484
1658789954491535,0.5694056610971234,0.6364232852674148,0.11248950942244562
1658789954507507,0.48908216983291375,0.8373540856031125,0.10833905546654421
1658789954523494,0.47394522011139095,0.9947051194018464,0.15863279163805633
1658789954539482,0.4527046616311896,0.9380636301213094,0.1537499046311135
1658789954555469,0.4055848020141912,0.9295185778591595,0.17962920576791053
1658789954571457,0.3737239642938883,0.8585946440833139,0.19769588769359903
1658789954587444,0.4423285267414361,0.853711757076371,0.13006790264744073
1658789954603431,0.4397650110627911,0.9208514534218359,0.10943770504310635
1658789954619419,0.33075455863279135,0.9524681467917908,0.13287556267643286
1658789954635406,0.2857099259937437,0.9882352941176471,0.10724040588998207
1658789954651394,0.2923018234531165,1.0163118944075684,0.09881742580300568
1658789954667381,0.29584191653315006,0.9367208361944002,0.08795300221255786
1658789954683368,0.25311665522240023,0.9571068894483865,0.09442282749675712
1658789954699356,0.13665980010681356,0.9468528267338066,0.1780422674906541
1658789954715343,0.1419089036392771,0.9823758297093157,0.11602960250247918
1658789954731330,0.25299458304722666,1.0453650720988783,0.020569161516746703
1658789954747318,0.22211032272831321,1.0487830930037383,0.0634164950026701
1658789954763305,0.12957961394674644,1.0795452811474782,0.11725032425421489
1658789954779293,0.13092240787365572,1.0710002288853282,0.10199130235751852
1658789954795280,0.1284809643701843,1.0446326390478369,0.06036469062333083
1658789954811267,0.04364080262455161,1.096391241321431,0.14056610971236783
1658789954827270,0.020569161516746703,1.1726863508049137,0.14764629587243494
1658789954843258,0.0802624551766229,1.1607232776379037,0.07818722819867219
1658789954859245,0.027161058976119534,1.1166552224002437,0.05352864881361086
1658789954875232,-0.04522774090180803,1.1667048142214087,0.0823376821545736
1658789954891220,-0.021179522392614558,1.2381170366979477,0.07794308384832505
1658789954907207,0.029724574654764524,1.211017013809415,0.03851377126726163
1658789954923195,0.011535820553902454,1.1792782482642865,0.050598916609445155
1658789954939182,-0.04730296787975874,1.1994201571679257,0.11151293202105705
1658789954955169,-0.04608224612802303,1.2588693064774548,0.1100480659189742
1658789954971157,-0.01751735713740743,1.2928053711757075,0.06121919584954583
1658789954987144,0.006408789196612474,1.2676585030899519,0.04107728694590662
1658789955003131,-0.029968719005111666,1.2671702143892576,0.09906157015335282
1658789955019119,-0.05096513313496587,1.2948805981536582,0.09881742580300568
1658789955035106,0.005310139620050336,1.2967116807812618,0.0776989394979779
1658789955051094,0.026916914625772392,1.192217898832685,0.07330434119172935
1658789955067081,-0.007751583123521755,1.146684977492943,0.12079041733424845
1658789955083068,-0.020813305867093845,1.143877317463951,0.11432059205004919
1658789955099056,0.013855191882200302,1.1520561532005802,0.10833905546654421
1658789955115043,0.04315251392385733,1.1270313572899981,0.09320210574502141
1658789955131031,0.053162432288090145,1.1212939650568394,0.09405661097123641
1658789955147033,0.03936827649347663,1.1374074921797517,0.1117570763714042
1658789955163021,0.05401693751430514,1.1161669336995494,0.12530708781567146
1658789955179008,0.07684443427176291,1.1112840466926066,0.12945754177157287
1658789955194996,0.1155413138017849,1.0769817654688332,0.1582665751125356
1658789955210983,0.15362783245593992,1.0257114518959334,0.1389791714351114
1658789955226970,0.1843900205996798,1.0419470511940183,0.1351949340047307
1658789955242958,0.21454184786755182,1.023270008392462,0.15069810025177421
1658789955258945,0.24432745860990313,1.0094758525978484,0.18219272144655552
1658789955274932,0.23285267414358746,0.9486839093614101,0.19049362935835834
1658789955290920,0.26642252231631947,0.9394064240482187,0.14081025406271497
1658789955306907,0.3212329289692528,0.9606469825284201,0.11981383993285988
1658789955322895,0.3600518806744484,0.9252460517280845,0.133974212252995
1658789955338882,0.40216678110933124,0.8683604180971995,0.1386129549095907
1658789955354869,0.4409857328145268,0.8285648889906154,0.1264057373922336
1658789955370857,0.4409857328145268,0.8129396505683983,0.15814450293736204
1658789955386844,0.41815823605706903,0.8009765774013884,0.1998931868467233
1658789955402832,0.48395513847562377,0.744457160296025,0.2167391470206761
1658789955418819,0.5371786068513007,0.7743648432135499,0.1629053177691313
1658789955434806,0.5318074311436636,0.778881513694972,0.18487830930037408
1658789955450794,0.559273670557717,0.7050278477149616,0.2296787975890746
1658789955466766,0.6466773479819947,0.6166475928892954,0.19183642328526762
1658789955482753,0.6863508049134053,0.6449683375295647,0.17059586480506628
1658789955498741,0.6187228198672461,0.6771953917753875,0.21454184786755182
1658789955514728,0.5636682688639656,0.6923323414969103,0.24835584039063097
1658789955530716,0.6301976043335626,0.6040741588464176,0.2754558632791637
1658789955546703,0.7389639124132144,0.49335469596398873,0.2641031509880216
1658789955562690,0.8046387426565955,0.5104448004882887,0.2074616617074847
1658789955578678,0.7459220263981079,0.5269245441367207,0.2599526970321202
1658789955594665,0.6566872663462275,0.4769970244907302,0.3174486915388721
1658789955610653,0.626413366903182,0.42951094834821113,0.30048065918974576
1658789955626640,0.7216296635385673,0.421576256961929,0.2213778896772718
1658789955642627,0.9031509880216682,0.3280689707789728,0.2112458991378654
1658789955658615,0.9746852826733807,0.3196459906919964,0.1885404745555812
1658789955674602,0.8335698481727318,0.35931944762340695,0.26446936751354233
1658789955690590,0.7171129930571452,0.3150072480354007,0.3062180514229036
1658789955706577,0.8146486610208283,0.20440985732814543,0.30084687571526647
1658789955722564,0.9950713359273671,0.11700617990386775,0.27618829633020514
1658789955738552,1.0148470283054856,0.11114671549553634,0.28668650339513224
1658789955754539,0.9257343404287788,0.14508278019378995,0.3372243839169906
1658789955770527,0.8432135500114439,0.18866254673075478,0.3910582131685363
1658789955786529,0.8042725261310748,0.17499046311131483,0.4052185854886705
1658789955802517,0.8817883573662932,0.10833905546654421,0.3607843137254898
1658789955818504,1.0133821622034027,0.03143358510719452,0.31219958800640857
1658789955834491,0.9995880064087892,0.013000686655985305,0.3262378881513692
1658789955850479,0.9002212558175025,0.023620965896085977,0.37030594338902834
1658789955866466,0.8607919432364382,0.008972304875257464,0.3977721828030827
1658789955882454,0.8732433051041424,-0.027527275501640247,0.3967956054016941
1658789955898441,0.8660410467689017,-0.05120927748531301,0.38117036697947704
1658789955914428,0.8542000457770653,-0.09564354924849328,0.38117036697947704
1658789955930416,0.8959487296864275,-0.13983367666132596,0.3847104600595106
1658789955946403,0.9362325474937059,-0.1400778210116731,0.35468070496681126
1658789955962391,0.9273212787060352,-0.08990615701533544,0.31403067063401213
1658789955978378,0.8941176470588239,-0.017883573662928143,0.3048752574959943
1658789955994365,0.8772716868848711,0.03558403906309593,0.33502708476386633
1658789956010353,0.911451895933471,0.005065995269703194,0.3318532082093535
1658789956026340,0.9457541771572444,-0.03167772945754166,0.33282978561074206
1658789956042328,0.947585259784848,-0.0424200808728159,0.33075455863279135
1658789956058315,0.9315938048371102,0.005188067444876765,0.3342946517128249
1658789956074302,0.9058365758754867,0.06073090714885154,0.31488517586022713
1658789956090290,0.8610360875867853,0.12713817044327502,0.2885175860227358
1658789956106262,0.8198977645532919,0.1835355153734648,0.2936446173800258
1658789956122249,0.8268558785381854,0.24701304646372169,0.3318532082093535
1658789956138237,0.8643320363164717,0.2558022430762188,0.317204547188525
1658789956154224,0.864820325017166,0.23651483939879459,0.30511940184634145
1658789956170211,0.8025635156786448,0.29340047302967864,0.28790722514686795
1658789956186199,0.7783932249942778,0.3808041504539563,0.2670328831921873
1658789956202186,0.801098649576562,0.48700694285496304,0.21734950789654395
