Timestamp (microseconds),Gyro X (°/s),Gyro Y (°/s),Gyro Z (°/s)
1658789936965454,0.5188067444876197,-0.9460593575952316,1.1291676203554744
1658789936981452,0.3967345693140487,-0.213626306553806,1.983672846570471
1658789936997450,-0.8239871824216607,0.09155413138023505,1.9226367589837992
1658789937013449,-2.04470893415737,-0.5188067444876197,1.4953841458761872
1658789937029447,-1.8616006713969,-1.0070954451819034,1.3122758831159445
1658789937045446,1.0070954451819034,-0.9460593575952316,1.6174563210497581
1658789937061444,1.6784924086366573,-0.8850232700083325,1.3733119707026162
1658789937077442,1.5564202334630863,-0.8239871824216607,1.1902037079423735
1658789937093441,1.739528496223329,-0.7019150072480898,0.7629510948347615
1658789937109439,1.8005645838102282,-1.0070954451819034,0.5798428320745188
1658789937125437,1.4343480582895154,-1.6174563210497581,0.6408789196611906
1658789937141436,0.3967345693140487,-2.04470893415737,0.6408789196611906
1658789937157434,-0.8850232700083325,-2.166781109330941,0.7019150072480898
1658789937173432,-1.4343480582895154,-1.983672846570471,0.5798428320745188
1658789937189431,-1.0681315327688026,-1.9226367589837992,0.3967345693140487
1658789937205429,-0.213626306553806,-1.6174563210497581,0.7019150072480898
1658789937221428,0.45777065690094787,-1.8616006713969,0.6408789196611906
1658789937237426,0.6408789196611906,-1.8005645838102282,0.5188067444876197
1658789937253424,1.5564202334630863,-1.3733119707026162,0.8850232700083325
1658789937269423,0.8850232700083325,-1.0070954451819034,0.8850232700083325
1658789937285400,-0.8850232700083325,-0.5188067444876197,1.2512397955290453
1658789937301398,-1.1291676203554744,-1.0681315327688026,0.8239871824216607
1658789937317397,-1.0681315327688026,-1.8005645838102282,0.2746623941404778
1658789937333395,-0.3967345693140487,-2.105745021744042,0.33569848172737693
1658789937349393,-1.8005645838102282,-1.6784924086366573,0.33569848172737693
1658789937365392,-2.9602502479590385,-0.7629510948347615,0.3967345693140487
1658789937381390,-2.5940337224383256,0.15259021896690683,0.45777065690094787
1658789937397389,-1.3122758831159445,0.33569848172737693,0.9460593575952316
1658789937413387,0.09155413138023505,-0.33569848172737693,1.2512397955290453
1658789937429385,1.6174563210497581,-1.0681315327688026,1.1902037079423735
1658789937445384,1.4343480582895154,-1.6174563210497581,1.1291676203554744
1658789937461382,0.6408789196611906,-1.739528496223329,0.8850232700083325
1658789937477380,0.15259021896690683,-1.2512397955290453,1.0070954451819034
1658789937493379,-0.3967345693140487,-0.7019150072480898,1.4343480582895154
1658789937509377,0.9460593575952316,-0.45777065690094787,1.3733119707026162
1658789937525375,1.1291676203554744,-0.7019150072480898,1.739528496223329
1658789937541374,1.2512397955290453,-1.1291676203554744,2.105745021744042
1658789937557372,0.5188067444876197,-1.6174563210497581,2.105745021744042
1658789937573371,-0.7629510948347615,-1.1291676203554744,2.04470893415737
1658789937589369,-1.0681315327688026,-1.0681315327688026,1.6174563210497581
1658789937605346,-0.5798428320745188,-1.4953841458761872,1.0070954451819034
1658789937621345,-0.5188067444876197,-1.6784924086366573,0.7019150072480898
1658789937637343,-0.213626306553806,-1.0681315327688026,0.7629510948347615
1658789937653341,-0.213626306553806,-0.213626306553806,0.7629510948347615
1658789937669340,-0.5798428320745188,-0.5188067444876197,0.5188067444876197
1658789937685338,0.7019150072480898,-1.1291676203554744,0.7019150072480898
1658789937701336,1.983672846570471,-1.4343480582895154,1.1291676203554744
1658789937717335,2.227817196917613,-1.1291676203554744,1.2512397955290453
1658789937733333,1.0070954451819034,-1.0070954451819034,0.9460593575952316
1658789937749332,-1.739528496223329,-1.1291676203554744,0.15259021896690683
1658789937765330,-2.3498893720911838,-0.33569848172737693,0.5798428320745188
1658789937781328,-1.9226367589837992,0.33569848172737693,0.6408789196611906
1658789937797327,-0.45777065690094787,0.6408789196611906,0.5798428320745188
1658789937813325,0.45777065690094787,0.03051804379333589,0.2746623941404778
1658789937829323,-0.2746623941404778,-0.33569848172737693,0.45777065690094787
1658789937845322,-1.1902037079423735,-0.213626306553806,0.213626306553806
1658789937861320,-0.9460593575952316,0.5798428320745188,0.45777065690094787
1658789937877318,0.15259021896690683,0.8850232700083325,0.7019150072480898
1658789937893317,0.5798428320745188,0.33569848172737693,0.5798428320745188
1658789937909315,0.03051804379333589,-0.03051804379333589,0.45777065690094787
1658789937925201,0.15259021896690683,0.213626306553806,0.3967345693140487
1658789937941198,0.45777065690094787,0.33569848172737693,0.33569848172737693
1658789937957196,-0.15259021896690683,-0.2746623941404778,0.33569848172737693
1658789937973193,-1.1291676203554744,-0.6408789196611906,1.0070954451819034
1658789937989191,-1.4953841458761872,-0.3967345693140487,0.8850232700083325
1658789938005188,-0.2746623941404778,-0.03051804379333589,0.8239871824216607
1658789938021185,-0.2746623941404778,-0.5188067444876197,0.213626306553806
1658789938037183,1.2512397955290453,-1.3122758831159445,0.2746623941404778
1658789938053180,0.9460593575952316,-1.6784924086366573,0.45777065690094787
1658789938069178,1.3733119707026162,-1.1291676203554744,0.5188067444876197
1658789938085175,1.0681315327688026,-1.0070954451819034,0.5798428320745188
1658789938101173,-0.3967345693140487,-1.6174563210497581,0.45777065690094787
1658789938117170,-1.4953841458761872,-2.410925459678083,0.5798428320745188
1658789938133167,-2.105745021744042,-2.3498893720911838,0.8850232700083325
1658789938149165,-1.3733119707026162,-1.8005645838102282,0.8850232700083325
1658789938165162,-0.03051804379333589,-1.3733119707026162,1.0681315327688026
1658789938181160,1.8005645838102282,-1.6174563210497581,1.3122758831159445
1658789938197157,1.0070954451819034,-1.9226367589837992,1.3733119707026162
1658789938213154,0.213626306553806,-1.6784924086366573,0.9460593575952316
1658789938229152,-0.2746623941404778,-1.1291676203554744,1.3733119707026162
1658789938245025,-1.0070954451819034,-1.0070954451819034,1.4953841458761872
1658789938261023,-1.2512397955290453,-1.2512397955290453,1.4953841458761872
1658789938277020,-1.4343480582895154,-1.0681315327688026,1.3733119707026162
1658789938293017,-0.3967345693140487,-0.8850232700083325,0.8850232700083325
1658789938309015,0.8850232700083325,-0.7629510948347615,0.8850232700083325
1658789938325012,1.3122758831159445,-1.1902037079423735,0.5188067444876197
1658789938341010,0.5188067444876197,-1.0070954451819034,0.33569848172737693
1658789938357007,-0.213626306553806,-0.5188067444876197,0.6408789196611906
1658789938373005,-0.5188067444876197,-0.03051804379333589,1.1291676203554744
1658789938389002,-1.0070954451819034,-0.45777065690094787,1.3122758831159445
1658789938404999,-1.6784924086366573,-0.2746623941404778,1.8005645838102282
1658789938420997,-0.8850232700083325,0.15259021896690683,1.6784924086366573
1658789938436994,-0.213626306553806,0.5798428320745188,1.2512397955290453
1658789938452992,1.8616006713969,0.7019150072480898,1.0070954451819034
1658789938468989,2.8381780727854675,0.45777065690094787,0.6408789196611906
1658789938484986,3.3264667734797513,-0.33569848172737693,0.2746623941404778
1658789938500984,0.7019150072480898,-0.7019150072480898,0.3967345693140487
1658789938516981,0.03051804379333589,-0.5188067444876197,0.7629510948347615
1658789938532979,-0.9460593575952316,-0.09155413138023505,1.0681315327688026
1658789938548976,-0.8850232700083325,0.33569848172737693,1.3733119707026162
1658789938564880,-1.5564202334630863,0.5798428320745188,1.1902037079423735
1658789938580877,-0.5188067444876197,0.5798428320745188,0.8850232700083325
1658789938596874,0.9460593575952316,0.213626306553806,0.5798428320745188
1658789938612871,1.8616006713969,-0.3967345693140487,0.5188067444876197
1658789938628868,1.983672846570471,-1.1902037079423735,0.5188067444876197
1658789938644865,-0.33569848172737693,-1.6784924086366573,0.3967345693140487
1658789938660862,-1.739528496223329,-1.8005645838102282,0.2746623941404778
1658789938676859,-1.983672846570471,-1.6174563210497581,0.5188067444876197
1658789938692855,-1.4343480582895154,-1.2512397955290453,0.7019150072480898
1658789938708852,0.8239871824216607,-1.2512397955290453,0.6408789196611906
1658789938724849,0.45777065690094787,-1.8005645838102282,0.5188067444876197
1658789938740846,1.4343480582895154,-2.04470893415737,0.5188067444876197
1658789938756843,2.3498893720911838,-1.8616006713969,0.8850232700083325
1658789938772840,2.288853284504512,-1.4953841458761872,1.3122758831159445
1658789938788837,1.6174563210497581,-1.6174563210497581,1.1902037079423735
1658789938804834,0.8850232700083325,-1.6174563210497581,1.3733119707026162
1658789938820831,0.3967345693140487,-1.2512397955290453,1.4343480582895154
1658789938836828,-0.8850232700083325,-1.0070954451819034,1.0681315327688026
1658789938852825,-0.3967345693140487,-0.5188067444876197,0.8850232700083325
1658789938868822,1.3733119707026162,-0.7019150072480898,1.0070954451819034
1658789938884735,2.105745021744042,-1.2512397955290453,1.1291676203554744
1658789938900731,2.410925459678083,-1.6174563210497581,1.3733119707026162
1658789938916728,0.7629510948347615,-1.5564202334630863,1.5564202334630863
1658789938932724,-0.9460593575952316,-1.739528496223329,1.6174563210497581
1658789938948721,-3.2654306858930795,-2.105745021744042,1.4343480582895154
1658789938964717,-2.8992141603723667,-1.8616006713969,1.6174563210497581
1658789938980713,-0.45777065690094787,-2.105745021744042,1.6174563210497581
1658789938996710,1.6784924086366573,-2.655069810025225,1.0681315327688026
1658789939012706,2.5940337224383256,-2.8992141603723667,0.6408789196611906
1658789939028703,1.1902037079423735,-2.8992141603723667,-0.03051804379333589
1658789939044699,-0.03051804379333589,-2.3498893720911838,-0.09155413138023505
1658789939060696,0.45777065690094787,-1.8616006713969,0.33569848172737693
1658789939076692,0.5188067444876197,-1.3122758831159445,0.8850232700083325
1658789939092689,-0.15259021896690683,-1.4343480582895154,0.6408789196611906
1658789939108685,-0.8239871824216607,-1.6784924086366573,0.7629510948347615
1658789939124682,0.213626306553806,-1.8005645838102282,0.9460593575952316
1658789939140678,0.6408789196611906,-1.983672846570471,0.8239871824216607
1658789939156674,-1.0681315327688026,-2.105745021744042,0.7629510948347615
1658789939172671,-2.227817196917613,-1.8005645838102282,0.2746623941404778
1658789939188667,-1.739528496223329,-1.5564202334630863,-0.03051804379333589
1658789939204559,-0.6408789196611906,-1.1902037079423735,0.2746623941404778
1658789939220555,0.7629510948347615,-1.2512397955290453,0.5188067444876197
1658789939236551,0.5798428320745188,-1.0681315327688026,0.8239871824216607
1658789939252547,1.0681315327688026,-1.3122758831159445,0.5188067444876197
1658789939268543,-0.5798428320745188,-1.5564202334630863,0.09155413138023505
1658789939284539,-1.0681315327688026,-1.739528496223329,-0.2746623941404778
1658789939300535,-1.5564202334630863,-1.739528496223329,-0.213626306553806
1658789939316531,-0.33569848172737693,-1.0070954451819034,-0.03051804379333589
1658789939332527,1.2512397955290453,-1.1902037079423735,-0.3967345693140487
1658789939348523,1.1902037079423735,-1.1902037079423735,-0.33569848172737693
1658789939364519,2.3498893720911838,-0.8239871824216607,0.33569848172737693
1658789939380515,1.983672846570471,-0.5798428320745188,0.7019150072480898
1658789939396511,1.0070954451819034,-0.3967345693140487,0.9460593575952316
1658789939412507,-0.2746623941404778,-0.5188067444876197,0.8239871824216607
1658789939428503,-2.410925459678083,-0.7019150072480898,0.33569848172737693
1658789939444499,-3.570611123826893,-0.7629510948347615,0.3967345693140487
1658789939460495,-1.8616006713969,-0.7019150072480898,0.8239871824216607
1658789939476491,0.7019150072480898,-0.6408789196611906,0.8850232700083325
1658789939492487,1.0681315327688026,-0.8850232700083325,0.5188067444876197
1658789939508483,0.8239871824216607,-0.5798428320745188,0.5188067444876197
1658789939524414,0.8850232700083325,0.15259021896690683,0.8850232700083325
1658789939540410,0.45777065690094787,0.2746623941404778,0.8239871824216607
1658789939556406,-0.6408789196611906,0.45777065690094787,1.1902037079423735
1658789939572402,-0.213626306553806,-0.03051804379333589,1.2512397955290453
1658789939588398,0.2746623941404778,-0.8239871824216607,1.4953841458761872
1658789939604394,0.09155413138023505,-1.5564202334630863,1.0681315327688026
1658789939620390,0.45777065690094787,-1.8005645838102282,0.3967345693140487
1658789939636386,0.5188067444876197,-1.6784924086366573,0.3967345693140487
1658789939652382,1.1291676203554744,-1.2512397955290453,0.5188067444876197
1658789939668378,0.03051804379333589,-1.2512397955290453,0.6408789196611906
1658789939684373,-0.15259021896690683,-1.0070954451819034,1.0681315327688026
1658789939700369,1.0070954451819034,-0.8239871824216607,1.9226367589837992
1658789939716365,-0.15259021896690683,-1.0681315327688026,1.8005645838102282
1658789939732361,0.03051804379333589,-1.0681315327688026,1.5564202334630863
1658789939748357,-0.5798428320745188,-1.1291676203554744,1.0070954451819034
1658789939764353,-0.2746623941404778,-1.0070954451819034,1.0681315327688026
1658789939780349,0.33569848172737693,-1.5564202334630863,0.5188067444876197
1658789939796345,-0.7629510948347615,-1.9226367589837992,0.213626306553806
1658789939812341,-0.03051804379333589,-1.2512397955290453,0.7019150072480898
1658789939828337,0.213626306553806,-0.6408789196611906,0.8850232700083325
1658789939844238,0.2746623941404778,-0.213626306553806,1.4343480582895154
1658789939860233,-0.3967345693140487,-0.5798428320745188,1.4953841458761872
1658789939876229,-0.45777065690094787,-0.5188067444876197,1.739528496223329
1658789939892224,1.3733119707026162,0.09155413138023505,2.166781109330941
1658789939908220,0.8239871824216607,-0.15259021896690683,1.6174563210497581
1658789939924215,-0.5188067444876197,-0.8239871824216607,0.7629510948347615
1658789939940211,-0.03051804379333589,-1.0681315327688026,0.45777065690094787
1658789939956206,1.1291676203554744,-0.9460593575952316,0.9460593575952316
1658789939972202,0.9460593575952316,-0.8239871824216607,1.0681315327688026
1658789939988197,-1.3122758831159445,-1.3122758831159445,0.2746623941404778
1658789940004193,-1.4953841458761872,-1.3733119707026162,0.5188067444876197
1658789940020188,1.1902037079423735,-1.3733119707026162,1.1902037079423735
1658789940036184,2.166781109330941,-1.0070954451819034,1.4953841458761872
1658789940052179,1.983672846570471,-0.9460593575952316,1.0070954451819034
1658789940068175,-0.5188067444876197,-1.3122758831159445,0.213626306553806
1658789940084170,-1.4343480582895154,-1.0070954451819034,0.7629510948347615
1658789940100166,-1.3122758831159445,-0.8239871824216607,1.3733119707026162
1658789940116161,-1.739528496223329,-0.7629510948347615,1.5564202334630863
1658789940132157,-1.8616006713969,-0.7629510948347615,1.4343480582895154
1658789940148152,0.7019150072480898,-0.5188067444876197,1.8616006713969
1658789940164032,2.5940337224383256,-0.5188067444876197,1.4953841458761872
1658789940180027,2.8381780727854675,-0.3967345693140487,1.4953841458761872
1658789940196022,1.8616006713969,-0.2746623941404778,1.1902037079423735
1658789940212017,-0.5798428320745188,-0.213626306553806,1.4343480582895154
1658789940228012,-1.6174563210497581,-0.8239871824216607,1.4953841458761872
1658789940244007,-2.04470893415737,-1.2512397955290453,1.3122758831159445
1658789940260002,-1.0681315327688026,-1.0681315327688026,1.3733119707026162
1658789940275997,-1.1902037079423735,-1.0070954451819034,1.2512397955290453
1658789940291992,-1.0681315327688026,-0.8850232700083325,0.8239871824216607
1658789940307987,-0.2746623941404778,-1.2512397955290453,0.5798428320745188
1658789940323982,1.6784924086366573,-1.4343480582895154,0.7629510948347615
1658789940339977,1.5564202334630863,-1.4953841458761872,1.0681315327688026
1658789940355972,0.213626306553806,-1.2512397955290453,1.0681315327688026
1658789940371967,-0.15259021896690683,-1.0681315327688026,0.8850232700083325
1658789940387962,-0.213626306553806,-1.3733119707026162,0.5188067444876197
1658789940403957,-0.5188067444876197,-2.04470893415737,0.7019150072480898
1658789940419952,-0.7019150072480898,-2.410925459678083,0.6408789196611906
1658789940435947,0.15259021896690683,-2.166781109330941,0.5798428320745188
1658789940451942,0.45777065690094787,-1.8005645838102282,0.6408789196611906
1658789940467937,0.213626306553806,-1.6784924086366573,0.45777065690094787
1658789940483886,-0.6408789196611906,-1.6174563210497581,0.213626306553806
1658789940499881,-0.8239871824216607,-1.4343480582895154,0.3967345693140487
1658789940515876,-0.3967345693140487,-0.9460593575952316,0.5798428320745188
1658789940531871,0.213626306553806,-0.8239871824216607,0.5188067444876197
1658789940547866,-0.9460593575952316,-1.1291676203554744,0.5188067444876197
1658789940563861,-1.6174563210497581,-1.1291676203554744,0.6408789196611906
1658789940579856,-0.7019150072480898,-1.0681315327688026,0.8239871824216607
1658789940595852,-0.33569848172737693,-0.9460593575952316,0.6408789196611906
1658789940611847,-0.09155413138023505,-1.1902037079423735,0.5188067444876197
1658789940627842,0.3967345693140487,-0.9460593575952316,0.5798428320745188
1658789940643837,-0.03051804379333589,-0.3967345693140487,0.8239871824216607
1658789940659832,0.03051804379333589,-0.09155413138023505,0.8239871824216607
1658789940675827,-0.09155413138023505,0.03051804379333589,1.0070954451819034
1658789940691822,0.6408789196611906,-0.213626306553806,0.8239871824216607
1658789940707817,0.2746623941404778,-0.03051804379333589,1.1902037079423735
1658789940723812,-0.45777065690094787,0.03051804379333589,1.1291676203554744
1658789940739807,-1.6784924086366573,-0.6408789196611906,0.9460593575952316
1658789940755802,-0.7019150072480898,-1.0681315327688026,1.0681315327688026
1658789940771797,0.6408789196611906,-1.6174563210497581,0.5798428320745188
1658789940787792,1.1902037079423735,-1.2512397955290453,1.1902037079423735
1658789940803741,1.3733119707026162,-1.1291676203554744,1.3122758831159445
1658789940819736,0.3967345693140487,-1.1902037079423735,1.1902037079423735
1658789940835730,-0.213626306553806,-0.9460593575952316,1.5564202334630863
1658789940851725,1.0681315327688026,-0.8239871824216607,1.8005645838102282
1658789940867719,1.9226367589837992,-0.8239871824216607,1.5564202334630863
1658789940883714,1.8005645838102282,-1.2512397955290453,1.2512397955290453
1658789940899708,0.9460593575952316,-1.3122758831159445,0.8239871824216607
1658789940915703,0.8239871824216607,-1.1291676203554744,1.0681315327688026
1658789940931697,0.2746623941404778,-1.3122758831159445,1.0681315327688026
1658789940947692,0.213626306553806,-1.3733119707026162,1.0070954451819034
1658789940963687,-0.3967345693140487,-1.1291676203554744,1.0681315327688026
1658789940979681,-0.8239871824216607,-1.0681315327688026,0.7019150072480898
1658789940995676,0.33569848172737693,-0.6408789196611906,1.1291676203554744
1658789941011670,0.7629510948347615,-0.7629510948347615,1.4343480582895154
1658789941027665,1.1291676203554744,-0.9460593575952316,1.6174563210497581
1658789941043659,0.9460593575952316,-1.1291676203554744,1.739528496223329
1658789941059654,0.5798428320745188,-1.3122758831159445,1.4343480582895154
1658789941075648,0.8239871824216607,-0.8850232700083325,1.4343480582895154
1658789941091643,-0.15259021896690683,-0.5188067444876197,1.2512397955290453
1658789941107638,-2.532997634851654,-0.7629510948347615,0.9460593575952316
1658789941123565,-2.227817196917613,-0.6408789196611906,1.5564202334630863
1658789941139560,-0.09155413138023505,-0.5188067444876197,1.6784924086366573
1658789941155554,0.9460593575952316,-0.5188067444876197,1.4953841458761872
1658789941171549,0.33569848172737693,-0.5798428320745188,1.2512397955290453
1658789941187543,0.5798428320745188,-0.45777065690094787,1.1291676203554744
1658789941203538,1.3122758831159445,-0.45777065690094787,0.9460593575952316
1658789941219533,1.4343480582895154,-0.7629510948347615,0.8239871824216607
1658789941235527,0.9460593575952316,-0.8850232700083325,0.8239871824216607
1658789941251522,-0.5798428320745188,-1.1902037079423735,0.8239871824216607
1658789941267516,-1.3733119707026162,-1.1902037079423735,0.5798428320745188
1658789941283511,-1.5564202334630863,-1.3122758831159445,0.5188067444876197
1658789941299505,-1.4953841458761872,-1.4343480582895154,0.5188067444876197
1658789941315500,0.09155413138023505,-0.7629510948347615,0.8239871824216607
1658789941331494,1.4343480582895154,-0.5188067444876197,0.9460593575952316
1658789941347489,1.0070954451819034,-0.6408789196611906,0.7019150072480898
1658789941363484,1.3733119707026162,-1.0070954451819034,1.0070954451819034
1658789941379478,-0.213626306553806,-1.0681315327688026,1.4343480582895154
1658789941395473,-0.6408789196611906,-1.1902037079423735,1.3122758831159445
1658789941411467,-1.3122758831159445,-1.1902037079423735,1.1291676203554744
1658789941427462,-0.2746623941404778,-1.4953841458761872,1.1291676203554744
1658789941443390,0.2746623941404778,-1.8005645838102282,0.8850232700083325
1658789941459384,0.9460593575952316,-1.6174563210497581,0.8239871824216607
1658789941475378,1.0070954451819034,-1.0070954451819034,0.7629510948347615
1658789941491372,-0.09155413138023505,-1.2512397955290453,0.5188067444876197
1658789941507366,-1.1902037079423735,-1.4953841458761872,0.5798428320745188
1658789941523360,-1.4953841458761872,-1.6174563210497581,0.9460593575952316
1658789941539354,0.5188067444876197,-1.739528496223329,1.1902037079423735
1658789941555348,1.6784924086366573,-1.6784924086366573,1.3122758831159445
1658789941571342,0.5798428320745188,-2.227817196917613,0.2746623941404778
1658789941587336,-0.8239871824216607,-2.288853284504512,0.03051804379333589
1658789941603330,-2.532997634851654,-2.04470893415737,0.5798428320745188
1658789941619324,-3.0212863355459376,-2.04470893415737,0.8239871824216607
1658789941635318,-4.180971999694748,-2.3498893720911838,1.4953841458761872
1658789941651312,-4.364080262455218,-3.692683299000464,1.4953841458761872
1658789941667307,-2.3498893720911838,-5.096513313496644,2.105745021744042
1658789941683301,0.33569848172737693,-7.232776379034021,1.2512397955290453
1658789941699295,0.15259021896690683,-9.308003356984727,-0.45777065690094787
1658789941715289,-1.739528496223329,-11.20012207217519,-2.3498893720911838
1658789941731283,-2.288853284504512,-12.970168612191856,-4.42511635004189
1658789941747277,0.8850232700083325,-14.98435950255589,-6.561379415579495
1658789941763244,3.2654306858930795,-17.303730830853738,-8.087281605249018
1658789941779238,4.852368963149502,-20.416571297779683,-9.67421988250544
1658789941795232,4.42511635004189,-23.407339589532285,-10.711833371480907
1658789941811226,3.2654306858930795,-25.29945830472252,-11.07804989700162
1658789941827221,-0.5188067444876197,-25.848783093003703,-11.01701380941472
1658789941843215,-3.6316472114137923,-25.970855268177274,-11.01701380941472
1658789941859209,-6.134126802471883,-25.970855268177274,-11.01701380941472
1658789941875203,-9.063859006637585,-26.6422522316318,-10.650797283894008
1658789941891197,-9.613183794918768,-27.496757457846797,-9.67421988250544
1658789941907191,-7.4158846417944915,-28.107118333714652,-9.063859006637585
1658789941923185,-4.119935912108076,-28.656443121995835,-9.185931181811156
1658789941939179,-2.9602502479590385,-29.38887617303726,-10.040436408026153
1658789941955173,-2.7771419851987957,-30.914778362706784,-11.810482948043045
1658789941971167,-4.486152437628789,-31.89135576409558,-13.58052948805971
1658789941987161,-4.180971999694748,-32.25757228961629,-13.58052948805971
1658789942003155,-2.410925459678083,-32.01342793926915,-12.664988174258042
1658789942019149,-1.1291676203554744,-32.37964446478986,-12.542915999084471
1658789942035143,2.04470893415737,-32.44068055237676,-11.749446860456146
1658789942051138,7.4158846417944915,-33.478294041352,-11.444266422522333
1658789942067132,7.782101167315204,-34.149691004806755,-11.627374685282575
1658789942083068,6.9886320286868795,-34.088654917219856,-11.932555123216616
1658789942099063,4.058899824521177,-33.78347447928604,-11.932555123216616
1658789942115057,0.15259021896690683,-33.844510566872714,-11.932555123216616
1658789942131051,-3.3264667734797513,-34.21072709239343,-12.176699473563758
1658789942147045,-4.9134050507361735,-34.57694361791414,-12.054627298390187
1658789942163039,-4.180971999694748,-35.06523231860842,-11.261158159761862
1658789942179033,-4.60822461280236,-36.10284580758389,-11.444266422522333
1658789942195027,-6.805523765926637,-36.34699015793103,-11.566338597695903
1658789942211021,-4.60822461280236,-35.67559319447628,-9.979400320439481
1658789942227015,1.0681315327688026,-35.614557106889606,-8.697642481116873
1658789942243009,3.4485389486533222,-36.713206683451745,-8.941786831464015
1658789942259003,5.401693751430457,-38.30014496070817,-10.040436408026153
1658789942274997,4.60822461280236,-39.94811932555126,-11.322194247348762
1658789942290991,1.3122758831159445,-41.59609369039458,-11.932555123216616
1658789942306985,-2.105745021744042,-42.57267109178315,-13.275349050125897
1658789942322980,-2.532997634851654,-43.305104142824575,-13.58052948805971
1658789942338974,-2.4719615472647547,-44.892042420081,-13.58052948805971
1658789942354968,-2.166781109330941,-47.27244983596552,-14.862287327382319
1658789942370962,-4.42511635004189,-49.40871290150312,-16.388189517051842
1658789942386956,-7.721065079728305,-49.897001602197406,-16.571297779812312
1658789942402893,-8.33142595559616,-50.01907377737098,-15.899900816357558
1658789942418886,-6.195162890058782,-50.7515068284124,-15.350576028076603
1658789942434880,-5.3406576638437855,-52.338445105668825,-16.571297779812312
1658789942450873,-7.965209430075447,-53.376058594644064,-16.876478217746126
1658789942466867,-11.20012207217519,-53.98641947051192,-16.510261692225413
1658789942482861,-9.979400320439481,-53.92538338292525,-15.899900816357558
1658789942498854,-1.8616006713969,-53.376058594644064,-15.350576028076603
1658789942514848,5.889982452124741,-55.45128557259477,-15.533684290836845
1658789942530841,8.087281605249018,-59.90691996643022,-17.60891126878755
1658789942546835,9.491111619745197,-65.15602349889377,-21.27107652399468
1658789942562829,8.6366063935302,-69.73373006790257,-24.811169604028237
1658789942578822,0.5798428320745188,-73.09071488517588,-26.6422522316318
1658789942594816,-9.185931181811156,-75.41008621347373,-27.496757457846797
1658789942610809,-15.960936903944457,-76.93598840314326,-29.38887617303726
1658789942626803,-20.721751735713724,-77.97360189211872,-30.4264896620125
1658789942642797,-26.214999618524416,-78.88914320592039,-30.4875257495994
1658789942658790,-26.276035706111088,-79.43846799420157,-28.534370946822264
1658789942674784,-21.69832913710229,-79.43846799420157,-24.811169604028237
1658789942690777,-17.853055619134693,-80.47608148317681,-22.49179827573039
1658789942706771,-13.885709925993751,-80.35400930800324,-20.11139085984587
1658789942722747,-9.246967269398056,-78.70603494316015,-18.280308232242305
1658789942738741,-11.01701380941472,-78.4008545052261,-17.42580300602731
1658789942754735,-15.960936903944457,-77.2411688410773,-17.730983443961122
1658789942770728,-19.745174334325156,-74.37247272449827,-16.510261692225413
1658789942786722,-19.378957808804444,-73.82314793621731,-14.068818188753994
1658789942802715,-24.07873655298681,-77.2411688410773,-14.618142977035177
1658789942818709,-35.00419623102175,-81.69680323491252,-18.158236057068734
1658789942834703,-44.58686198214696,-82.12405584802013,-18.76859693293659
1658789942850696,-45.990691996643136,-79.13328755626753,-16.571297779812312
1658789942866690,-39.88708323796459,-75.65423056382087,-14.496070801861606
1658789942882683,-34.63797970550104,-73.57900358587017,-16.2050812542916
1658789942898677,-29.755092698557974,-74.55558098725874,-18.95170519569683
1658789942914671,-26.276035706111088,-76.93598840314326,-19.317921721217544
1658789942930664,-15.350576028076603,-76.63080796520944,-19.501029983978015
1658789942946658,1.4343480582895154,-73.64003967345684,-17.24269474326684
1658789942962651,10.101472495613052,-74.3114366369116,-17.059586480506596
1658789942978645,1.739528496223329,-76.63080796520944,-21.39314869916825
1658789942994639,-0.15259021896690683,-76.14251926451516,-21.51522087434182
1658789943010632,0.6408789196611906,-73.76211184863041,-17.24269474326684
1658789943026626,-0.33569848172737693,-72.29724574654756,-16.08300907911803
1658789943042572,-7.354848554207592,-73.09071488517588,-14.557106889448278
1658789943058565,-11.566338597695903,-74.00625619897755,-12.115663385976859
1658789943074559,-6.378271152819025,-75.89837491416802,-9.185931181811156
1658789943090552,-3.6316472114137923,-76.93598840314326,-7.11070420386045
1658789943106546,0.5188067444876197,-77.91256580453182,-6.256198977645454
1658789943122540,-2.4719615472647547,-79.56054016937514,-7.17174029144735
1658789943138533,-8.45349813076973,-80.90333409628442,-9.246967269398056
1658789943154527,-9.55214770733187,-81.025406271458,-11.139085984588291
1658789943170520,-12.4208438239109,-81.39162279697871,-13.45845731288614
1658789943186514,-20.721751735713724,-82.12405584802013,-18.280308232242305
1658789943202508,-25.17738612954895,-79.43846799420157,-20.11139085984587
1658789943218501,-24.26184481574728,-75.77630273899445,-20.23346303501944
1658789943234495,-21.27107652399468,-73.15175097276256,-21.820401312275862
1658789943250488,-18.463416495002548,-72.6024261844816,-25.48256656748299
1658789943266482,-17.853055619134693,-71.32066834515899,-29.20576791027679
1658789943282476,-15.167467765316132,-66.49881742580305,-28.656443121995835
1658789943298469,-11.871519035629717,-58.625162127107615,-24.628061341267994
1658789943314463,-9.67421988250544,-49.591821164263365,-20.416571297779683
1658789943330456,-12.664988174258042,-41.16884107728697,-17.42580300602731
1658789943346450,-13.275349050125897,-30.243381399252257,-13.58052948805971
1658789943362426,-7.476920729381163,-23.163195239185143,-11.688410772869474
1658789943378420,-4.669260700389032,-16.998550392919697,-9.67421988250544
1658789943394413,-2.105745021744042,-10.040436408026153,-6.927595941100208
1658789943410406,1.4953841458761872,-1.4343480582895154,-6.317235065232353
1658789943426399,3.6316472114137923,8.575570305943302,-4.303044174868319
1658789943442392,5.889982452124741,17.853055619134693,-2.532997634851654
1658789943458385,9.55214770733187,25.29945830472252,-0.7629510948347615
1658789943474378,11.139085984588291,32.01342793926892,1.1291676203554744
1658789943490371,15.472648203250174,39.21568627450961,4.058899824521177
1658789943506364,19.562066071564686,44.46478980697316,5.279621576256886
1658789943522358,20.294499122606112,48.85938811322194,6.8665598535133086
1658789943538351,17.60891126878755,53.315022507057165,9.73525597009234
1658789943554344,14.190890363927565,58.93034256504143,11.871519035629717
1658789943570337,9.430075532158298,63.69115739681092,12.176699473563758
1658789943586330,5.096513313496644,68.39093614099374,13.275349050125897
1658789943602323,1.9226367589837992,72.41931792172136,12.787060349431613
1658789943618316,1.8005645838102282,76.14251926451516,12.054627298390187
1658789943634309,4.42511635004189,79.86572060730941,12.603952086671143
1658789943650303,12.115663385976859,83.71099412527656,14.312962539101136
1658789943666296,17.914091706721592,86.57969024185559,14.435034714274707
1658789943682220,16.510261692225413,90.05874723430225,14.373998626688035
1658789943698213,16.571297779812312,94.4533455405508,16.1440451667047
1658789943714206,18.89066910811016,100.37384603646933,19.01274128328373
1658789943730199,21.210040436408008,104.76844434271788,20.721751735713724
1658789943746193,19.256885633630873,107.2098878461893,19.562066071564686
1658789943762186,11.749446860456146,108.30853742275121,18.70756084534969
1658789943778179,8.941786831464015,111.48241397726406,21.942473487449433
1658789943794172,13.153276874952326,115.38872358281833,25.116350041962278
1658789943810165,11.383230334935433,116.97566186007498,23.89562829022657
1658789943826158,6.500343327992596,118.07431143663689,22.430762188143717
1658789943842151,7.721065079728305,120.45471885252164,24.933241779201808
1658789943858144,13.885709925993751,121.49233234149688,27.80193789578084
1658789943874138,14.92332341496899,120.39368276493497,26.214999618524416
1658789943890131,9.185931181811156,118.92881666285211,26.153963530937517
1658789943906124,6.195162890058782,118.01327534905022,27.98504615854108
1658789943922117,11.993591210803288,119.17296101319926,31.586175326161538
1658789943938110,20.416571297779683,119.11192492561213,31.464103150987967
1658789943954103,14.435034714274707,116.18219272144643,27.069504844739413
1658789943970096,7.354848554207592,113.25246051728072,25.848783093003703
1658789943986089,16.1440451667047,112.27588311589216,28.595407034408936
1658789944002075,24.322880903333953,110.20065613794168,28.534370946822264
1658789944018068,20.35553521019301,106.53849088273455,23.89562829022657
1658789944034061,13.397421225299468,103.18150606546124,24.628061341267994
1658789944050054,22.430762188143717,101.83871213855218,32.01342793926892
1658789944066047,30.121309224078686,97.44411383230363,31.280994888227497
1658789944082040,19.439993896391115,93.29365987640222,24.01770046540014
1658789944098034,7.476920729381163,91.95086594949271,21.33211261158158
1658789944114027,1.1291676203554744,92.68329900053413,25.787747005416804
1658789944130020,4.669260700389032,93.04951552605507,30.30441748683893
1658789944146013,11.810482948043045,89.8146028839551,30.73167009994654
1658789944162006,5.95101853971164,82.3682001983675,26.886396581978943
1658789944177999,-6.012054627298312,76.63080796520944,25.42153047989609
1658789944193992,-9.430075532158298,74.18936446173802,31.097886625467254
1658789944209985,-9.369039444571627,70.83237964446516,34.45487144274034
1658789944225978,-15.594720378423744,67.71953917753899,31.95239185168225
1658789944241972,-18.341344319828977,64.91187914854663,28.778515297169406
1658789944257965,-15.411612115663274,63.14183260852997,30.060273136491787
1658789944273958,-11.688410772869474,61.24971389333905,30.73167009994654
1658789944289951,-8.758678568703772,61.43282215609952,30.792706187533213
1658789944305944,0.2746623941404778,62.28732738231474,33.17311360341796
1658789944321899,4.303044174868319,60.57831692988475,32.684824902723676
1658789944337892,1.4953841458761872,57.28236820019811,31.464103150987967
1658789944353885,-1.6784924086366573,53.92538338292479,34.57694361791391
1658789944369878,-1.9226367589837992,48.92042420080861,39.154650186922936
1658789944385872,-4.60822461280236,40.74158846417936,38.849469748988895
1658789944401865,-12.298771648737329,30.853742275120112,33.661402304112244
1658789944417858,-20.965896086060866,19.073777370870403,27.069504844739413
1658789944433851,-24.26184481574728,6.927595941100208,22.980086976424673
1658789944449844,-20.721751735713724,-3.2043945983061803,17.975127794308264
1658789944465837,-11.444266422522333,-11.627374685282575,12.542915999084471
1658789944481830,-8.819714656290444,-22.8580148012511,3.5095750362402214
1658789944497823,-4.60822461280236,-35.187304493781994,-5.096513313496644
1658789944513816,0.8850232700083325,-45.50240329594885,-11.444266422522333
1658789944529810,1.5564202334630863,-54.16952773327239,-16.998550392919697
1658789944545803,-6.073090714885211,-63.01976043335617,-22.61387045090396
1658789944561796,-16.693369954985883,-72.23620965896089,-28.778515297169406
1658789944577789,-19.684138246738257,-79.13328755626753,-33.5393301289389
1658789944593782,-19.562066071564686,-84.56549935149155,-37.2625314717327
1658789944609775,-21.759365224688963,-90.48599984740963,-41.0467689021134
1658789944625768,-19.9282825970854,-95.7961394674603,-43.06095979247743
1658789944641723,-14.618142977035177,-98.72587167162601,-43.85442893110553
1658789944657716,-9.979400320439481,-99.88555733577482,-44.220645456626244
1658789944673709,-8.026245517662346,-102.99839780270099,-44.892042420081
1658789944689701,-10.528725108720437,-107.33196002136265,-45.38033112077528
1658789944705694,-8.697642481116873,-108.24750133516454,-44.403753719386714
1658789944721686,-3.0823224231326094,-107.02677958342883,-44.58686198214696
1658789944737679,-4.119935912108076,-109.52925917448692,-45.990691996643136
1658789944753672,-13.76363775082018,-115.02250705729762,-49.22560463874265
1658789944769664,-23.285267414358714,-118.31845578698403,-51.30083161669336
1658789944785657,-27.61882963302037,-116.54840924696737,-50.32425421530479
1658789944801650,-25.17738612954895,-113.74074921797524,-49.591821164263365
1658789944817642,-17.975127794308264,-114.41214618142976,-50.08010986495765
1658789944833635,-15.899900816357558,-118.19638361181046,-54.10849164568549
1658789944849628,-20.17242694743254,-118.80674448767832,-55.57335774776834
1658789944865620,-12.909132524605184,-113.8017853055619,-49.95803768978408
1658789944881613,-7.721065079728305,-111.36034180209049,-45.25825894560171
1658789944897606,-8.6366063935302,-112.27588311589238,-46.66208896009766
1658789944913598,-12.787060349431613,-113.00831616693381,-47.27244983596552
1658789944929591,-20.782787823300396,-112.39795529106595,-46.78416113527123
1658789944945583,-25.665674830243233,-108.24750133516454,-43.121995880064105
1658789944961578,-23.95666437781324,-104.46326390478384,-38.1170366979477
1658789944977571,-22.73594262607753,-103.60875867856885,-36.835278858625315
1658789944993563,-24.383916990920852,-104.1580834668498,-40.2532997634853
1658789945009556,-32.19653620202962,-103.97497520408956,-42.57267109178315
1658789945025549,-29.51094834821083,-97.68825818265054,-37.933928435187454
1658789945041541,-13.45845731288614,-91.34050507362463,-29.51094834821083
1658789945057534,2.166781109330941,-90.54703593499653,-29.08369573510322
1658789945073526,1.1902037079423735,-94.5143816281377,-35.85870145723675
1658789945089519,-5.462729839017356,-96.04028381780745,-36.652170595864845
1658789945105512,-2.105745021744042,-90.54703593499653,-27.557793545433697
1658789945121504,1.8616006713969,-84.56549935149155,-18.646524757763018
1658789945137497,-6.256198977645454,-83.22270542458227,-16.510261692225413
1658789945153490,-18.036163881895163,-84.13824673838394,-18.646524757763018
1658789945169482,-20.17242694743254,-83.40581368734252,-17.48683909361398
1658789945185475,-14.92332341496899,-80.23193713282967,-13.702601663233281
1658789945201468,-6.8665598535133086,-79.19432364385443,-11.993591210803288
1658789945217460,-7.843137254901876,-79.13328755626753,-15.716792553597315
1658789945233453,-9.491111619745197,-77.91256580453182,-19.01274128328373
1658789945249446,-8.33142595559616,-75.16594186312659,-18.524452582589447
1658789945265438,-10.162508583199724,-72.41931792172113,-17.120622568093268
1658789945281402,-12.970168612191856,-68.20782787823305,-13.397421225299468
1658789945297395,-10.955977721828049,-61.98214694438093,-7.049668116273779
1658789945313387,-10.589761196307336,-56.48889906157024,-4.9134050507361735
1658789945329380,-12.359807736324,-49.469748989089794,-3.814755474174035
1658789945345373,-9.979400320439481,-42.14541847867554,-3.3264667734797513
1658789945361365,-8.941786831464015,-36.10284580758389,-5.523765926604028
1658789945377358,-6.9886320286868795,-27.435721370260126,-6.317235065232353
1658789945393351,-5.157549401083315,-18.76859693293659,-4.60822461280236
1658789945409343,2.227817196917613,-10.223544670786623,-2.3498893720911838
1658789945425336,4.730296787975931,-4.180971999694748,-2.4719615472647547
1658789945441329,6.744487678339738,2.4719615472647547,-2.8992141603723667
1658789945457321,11.322194247348762,11.566338597695903,-0.8850232700083325
1658789945473314,13.275349050125897,19.80621042191183,3.3875028610666504
1658789945489307,8.575570305943302,25.60463874265656,5.462729839017356
1658789945505299,4.547188525215461,32.92896925307082,7.843137254901876
1658789945521292,3.2043945983061803,40.61951628900579,11.139085984588291
1658789945537284,4.730296787975931,46.29587243457672,12.909132524605184
1658789945553277,4.852368963149502,50.507362478064806,12.787060349431613
1658789945569270,7.4158846417944915,55.69542992294191,13.64156557564661
1658789945585262,11.505302510109004,60.944533455405235,14.496070801861606
1658789945601226,13.58052948805971,66.19363698786947,14.862287327382319
1658789945617219,14.98435950255589,72.23620965896089,14.557106889448278
1658789945633212,18.219272144655406,76.93598840314371,14.740215152208748
1658789945649204,18.76859693293659,81.94094758525989,14.740215152208748
1658789945665197,18.341344319828977,86.33554589150845,15.655756466010416
1658789945681190,16.02197299153113,90.42496375982319,18.89066910811016
1658789945697182,13.58052948805971,94.02609292744364,22.186617837796575
1658789945713175,12.176699473563758,98.35965514610507,22.73594262607753
1658789945729168,10.162508583199724,102.38803692683314,22.61387045090396
1658789945745160,12.176699473563758,105.74502174410645,24.628061341267994
1658789945761153,19.867246509498727,109.52925917448692,29.938200961318216
1658789945777145,26.153963530937517,112.82520790417357,31.70824750133511
1658789945793138,27.313649195086555,115.449759670405,30.975814450293683
1658789945809131,21.51522087434182,116.97566186007498,30.182345311665358
1658789945825123,17.303730830853738,117.5860227359426,28.900587472342977
1658789945841116,12.4208438239109,117.95223926146355,27.74090180819394
1658789945857109,12.115663385976859,119.4171053635464,29.20576791027679
1658789945873101,9.430075532158298,119.78332188906688,29.022659647516548
1658789945889094,3.0823224231326094,120.27161058976117,25.48256656748299
1658789945905087,0.213626306553806,120.02746623941403,24.01770046540014
1658789945921051,-1.2512397955290453,120.63782711528211,25.787747005416804
1658789945937043,1.3122758831159445,121.4312962539102,27.496757457846797
1658789945953036,1.1902037079423735,121.12611581597639,29.38887617303726
1658789945969029,-0.15259021896690683,118.74570840009164,29.694056610971074
1658789945985021,-0.15259021896690683,116.18219272144643,30.914778362706784
1658789946001014,0.33569848172737693,114.7783627069507,32.440680552376534
1658789946017006,1.1902037079423735,113.80178530556213,34.14969100480653
1658789946032999,1.1902037079423735,113.06935225452071,36.22491798275723
1658789946048992,6.500343327992596,111.23826962691692,37.26253147173247
1658789946064984,15.838864728770886,108.24750133516454,36.53009842069105
1658789946080977,21.210040436408008,104.03601129167646,35.55352101930248
1658789946096970,22.369726100556818,98.97001602197315,33.844510566872486
1658789946112962,18.95170519569683,95.12474250400555,34.51590753032724
1658789946128955,16.388189517051842,93.72091248950937,34.69901579308748
1658789946144948,10.040436408026153,91.88982986190604,34.14969100480653
1658789946160940,3.4485389486533222,87.98352025635177,31.097886625467254
1658789946176933,-0.09155413138023505,82.49027237354085,30.853742275120112
1658789946192926,1.6174563210497581,76.93598840314371,34.02761882963296
1658789946208918,7.17174029144735,73.09071488517611,36.53009842069105
1658789946224911,10.833905546654478,69.7337300679028,35.98077363241009
1658789946240905,0.2746623941404778,64.72877088578662,32.62378881513678
1658789946256898,-14.862287327382319,60.02899214160334,31.219958800640825
1658789946272891,-15.716792553597315,58.442053864347145,38.42221713588151
1658789946288883,-14.251926451514464,56.36682688639621,42.38956282902245
1658789946304876,-12.603952086671143,51.850156404974314,41.65712977798103
1658789946320869,-14.618142977035177,44.159609369039345,39.76501106279079
1658789946336861,-9.491111619745197,40.192263675898175,39.94811932555103
1658789946352854,5.523765926604028,38.48325322346818,41.718165865567926
1658789946368847,12.664988174258042,33.05104142824439,38.0560006103608
1658789946384839,7.782101167315204,23.407339589532285,31.219958800640825
1658789946400832,2.7161058976118966,13.397421225299468,24.872205691615136
1658789946416824,3.814755474174035,4.60822461280236,21.087968261234437
1658789946432817,-1.983672846570471,-5.76791027695117,16.26611734187827
1658789946448810,-8.33142595559616,-17.120622568093268,9.73525597009234
1658789946464802,-13.58052948805971,-28.351262684061794,3.692683299000464
1658789946480795,-15.228503852903032,-38.178072785534596,-2.227817196917613
1658789946496788,-16.32715342946517,-46.23483634699028,-8.392462043183059
1658789946512780,-17.853055619134693,-53.07087815671025,-13.824673838406852
1658789946528773,-17.48683909361398,-59.967956054016895,-19.378957808804444
1658789946544766,-17.54787518120088,-65.52224002441449,-23.224231326771815
1658789946560730,-15.472648203250174,-69.611657892729,-26.337071793697987
1658789946576722,-11.932555123216616,-74.6776531624323,-29.32784008545036
1658789946592715,-12.298771648737329,-79.68261234454872,-31.89135576409558
1658789946608708,-10.406652933546866,-82.49027237354085,-33.5393301289389
1658789946624700,-3.936827649347606,-83.22270542458227,-33.17311360341819
1658789946640693,0.33569848172737693,-86.21347371633465,-34.45487144274057
1658789946656685,-0.6408789196611906,-91.4625772487982,-37.62874799725341
1658789946672678,-6.195162890058782,-96.40650034332816,-39.520866712443876
1658789946688671,-10.162508583199724,-98.72587167162601,-39.94811932555126
1658789946704663,-11.688410772869474,-99.88555733577482,-38.97154192416269
1658789946720656,-13.76363775082018,-102.63218127718028,-40.07019150072483
1658789946736649,-18.524452582589447,-104.70740825513099,-42.26749065384911
1658789946752641,-18.341344319828977,-105.19569695582527,-42.26749065384911
1658789946768634,-12.848096437018285,-105.98916609445337,-41.41298542763411
1658789946784627,-8.941786831464015,-108.0033569848174,-41.35194934004744
1658789946800619,-7.354848554207592,-108.8578622110324,-42.38956282902268
1658789946816612,-6.622415503166167,-108.06439307240407,-43.183031967651004
1658789946832605,-8.087281605249018,-108.18646524757764,-44.15960936903957
1658789946848597,-16.998550392919697,-108.43060959792479,-45.868619821469565
1658789946864590,-21.820401312275862,-106.96574349584193,-45.01411459525457
1658789946880554,-20.660715648126825,-104.76844434271766,-40.436408026245545
1658789946896546,-12.298771648737329,-104.28015564202337,-38.60532539864198
1658789946912539,-9.613183794918768,-105.37880521858551,-41.0467689021134
1658789946928532,-9.430075532158298,-104.40222781719694,-42.14541847867554
1658789946944524,-4.119935912108076,-100.25177386129553,-37.994964522774126
1658789946960517,5.096513313496644,-95.18577859159245,-31.158922713053926
1658789946976510,5.462729839017356,-91.58464942397177,-29.14473182269012
1658789946992502,-0.213626306553806,-90.05874723430225,-29.816128786144645
1658789947008495,-12.23773556115043,-89.7535667963682,-28.900587472342977
1658789947024488,-26.6422522316318,-86.70176241702893,-26.092927443350845
1658789947040480,-33.90554665445961,-79.80468451972229,-21.026932173647538
1658789947056473,-32.56275272755033,-75.16594186312659,-15.045395590142562
1658789947072466,-22.430762188143717,-74.86076142519255,-12.909132524605184
1658789947088458,-11.383230334935433,-76.87495231555658,-15.289539940489703
1658789947104451,-3.2654306858930795,-77.36324101625087,-17.120622568093268
1658789947120443,-0.15259021896690683,-74.00625619897755,-14.312962539101136
1658789947136436,7.17174029144735,-68.94026092927447,-8.51453421835663
1658789947152429,12.4208438239109,-66.7429617761502,-4.60822461280236
1658789947168421,11.20012207217519,-67.17021438925758,-7.721065079728305
1658789947184414,-1.1902037079423735,-69.73373006790257,-12.848096437018285
1658789947200378,-14.80125123979542,-68.51300831616686,-11.07804989700162
1658789947216370,-21.14900434882111,-63.996337834744736,-6.744487678339738
1658789947232362,-25.848783093003703,-59.47966735332261,-5.828946364538069
1658789947248355,-15.472648203250174,-54.779888609140244,-3.0212863355459376
1658789947264347,-5.462729839017356,-54.65781643396667,-3.7537193865873633
1658789947280339,-6.927595941100208,-56.85511558709095,-9.918364232852582
1658789947296331,-1.9226367589837992,-53.376058594644064,-6.195162890058782
1658789947312323,9.55214770733187,-46.05172808422981,5.584802014190927
1658789947328315,13.519493400473038,-43.79339284351886,9.063859006637585
1658789947344308,6.500343327992596,-43.54924849317172,3.7537193865873633
1658789947360300,-2.04470893415737,-42.63370717936982,-1.0681315327688026
1658789947376292,-8.392462043183059,-39.276722362096734,-2.288853284504512
1658789947392284,-16.26611734187827,-33.051041428244616,-3.2654306858930795
1658789947408276,-26.214999618524416,-25.17738612954895,-3.6316472114137923
1658789947424268,-29.022659647516548,-16.26611734187827,-1.3733119707026162
1658789947440261,-24.444953078507524,-9.979400320439481,-0.09155413138023505
1658789947456253,-14.312962539101136,-5.76791027695117,-2.3498893720911838
1658789947472245,-3.0212863355459376,-1.0681315327688026,-3.814755474174035
1658789947488237,6.9886320286868795,4.791332875562603,-3.814755474174035
1658789947504229,12.054627298390187,12.909132524605184,-1.4953841458761872
1658789947520202,14.312962539101136,20.23346303501944,0.45777065690094787
1658789947536194,10.955977721828049,25.970855268177274,2.655069810025225
1658789947552187,6.805523765926637,31.586175326161538,5.401693751430457
1658789947568179,5.76791027695117,37.01838712138533,7.965209430075447
1658789947584171,7.2938124666209205,41.96231021591507,10.040436408026153
1658789947600163,7.660028992141633,45.380331120775054,8.819714656290444
1658789947616155,7.660028992141633,48.6152437628748,8.026245517662346
1658789947632147,6.805523765926637,53.00984206912335,8.697642481116873
1658789947648140,7.354848554207592,57.58754863813192,9.85732814526591
1658789947664132,8.33142595559616,61.79903868162046,10.345616845960194
1658789947680124,10.589761196307336,64.78980697337329,10.040436408026153
1658789947696116,12.115663385976859,67.47539482719185,9.246967269398056
1658789947712108,13.702601663233281,70.71030746929137,11.261158159761862
1658789947728100,14.80125123979542,74.06729228656468,14.251926451514464
1658789947744093,15.228503852903032,77.91256580453228,16.1440451667047
1658789947760085,16.754406042572555,81.81887541008655,16.2050812542916
1658789947776077,17.914091706721592,83.9551384756237,14.862287327382319
1658789947792069,17.54787518120088,84.99275196459939,15.045395590142562
1658789947808061,18.219272144655406,86.8848706797894,18.646524757763018
1658789947824053,20.35553521019301,89.69253070878176,21.942473487449433
1658789947840026,20.538643472953254,91.82879377431937,22.79697871366443
1658789947856019,18.646524757763018,92.68329900053413,20.416571297779683
1658789947872011,13.397421225299468,93.47676813916223,18.76859693293659
1658789947888003,8.209353780422589,94.33127336537746,20.843823910887295
1658789947903995,8.45349813076973,97.01686121919602,25.60463874265656
1658789947919987,9.430075532158298,98.60379949645221,27.679865720607268
1658789947935979,10.040436408026153,98.78690775921268,26.092927443350845
1658789947951972,7.598992904554734,97.56618600747697,25.42153047989609
1658789947967964,8.758678568703772,96.65064469367508,27.008468757152514
1658789947983956,12.176699473563758,97.3830777447165,30.121309224078686
1658789947999948,12.4208438239109,100.06866559853506,30.853742275120112
1658789948015940,8.941786831464015,100.98420691233696,29.571984435797503
1658789948031932,2.7161058976118966,98.84794384679935,30.54856183718607
1658789948047925,2.7771419851987957,96.34546425574126,32.99000534065749
1658789948063917,5.3406576638437855,95.91821164263365,37.1404592965589
1658789948079909,13.153276874952326,96.10131990539412,39.33775844968318
1658789948095901,18.95170519569683,94.63645380331127,38.11703669794747
1658789948111893,16.693369954985883,90.8522163729308,34.08865491721963
1658789948127885,11.993591210803288,89.32631418326082,32.86793316548392
1658789948143878,12.542915999084471,90.36392767223651,36.408026245517476
1658789948159881,17.79201953154802,89.75356679636843,36.77424277103819
1658789948175873,13.64156557564661,85.84725719081416,32.80689707789725
1658789948191866,6.012054627298312,81.87991149767322,29.449912260623933
1658789948207858,-0.3967345693140487,80.47608148317704,32.257572289616064
1658789948223850,1.3733119707026162,79.01121538109419,35.91973754482319
1658789948239842,3.814755474174035,76.63080796520944,34.63797970550081
1658789948255834,-2.288853284504512,72.23620965896089,30.182345311665358
1658789948271826,-6.9886320286868795,69.36751354238231,29.877164873731545
1658789948287819,-5.645838101777599,68.20782787823327,34.821087968261054
1658789948303811,-3.570611123826893,66.31570916304281,35.248340581368666
1658789948319803,-0.45777065690094787,65.03395132372043,32.80689707789725
1658789948335795,-1.5564202334630863,62.59250782024901,30.4264896620125
1658789948351787,-3.570611123826893,60.27313649195048,29.38887617303726
1658789948367779,0.8239871824216607,59.05241474021477,33.17311360341796
1658789948383772,4.42511635004189,57.46547646295858,33.4172579537651
1658789948399764,4.60822461280236,56.30579079880954,31.097886625467254
1658789948415756,1.4343480582895154,54.4747081712062,30.4875257495994
1658789948431748,-0.8850232700083325,52.52155336842907,32.92896925307082
1658789948447740,-1.3733119707026162,50.14114595254432,33.600366216525344
1658789948463732,-0.5798428320745188,47.27244983596529,32.92896925307082
1658789948479705,-3.0212863355459376,42.14541847867531,32.01342793926892
1658789948495698,-8.087281605249018,36.10284580758366,29.571984435797503
1658789948511690,-9.979400320439481,32.13550011444249,28.900587472342977
1658789948527682,-10.040436408026153,28.595407034408936,26.214999618524416
1658789948543674,-9.002822919050914,21.942473487449433,22.003509575036105
1658789948559666,-8.087281605249018,13.031204699778755,17.24269474326684
1658789948575658,-4.852368963149502,4.669260700389032,13.153276874952326
1658789948591651,0.5188067444876197,-0.8850232700083325,10.589761196307336
1658789948607643,3.997863736934505,-7.4158846417944915,7.4158846417944915
1658789948623635,3.6316472114137923,-15.472648203250174,2.8992141603723667
1658789948639627,1.0681315327688026,-23.590447852292527,-2.5940337224383256
1658789948655619,-1.6174563210497581,-31.342030975814623,-7.2938124666209205
1658789948671611,-5.3406576638437855,-37.994964522774126,-11.566338597695903
1658789948687604,-10.650797283894008,-45.25825894560171,-16.632333867398984
1658789948703596,-15.167467765316132,-52.277409018081926,-22.308690012970146
1658789948719588,-14.190890363927565,-56.97718776226452,-27.98504615854108
1658789948735580,-8.33142595559616,-61.06660563057903,-32.25757228961629
1658789948751572,-5.0354772259097444,-67.5364309147783,-36.34699015793103
1658789948767564,-5.645838101777599,-75.22697795071326,-41.53505760280768
1658789948783557,-9.246967269398056,-79.13328755626753,-44.464789806973386
1658789948799530,-8.087281605249018,-79.13328755626753,-43.36614023041125
1658789948815522,-6.012054627298312,-80.35400930800324,-43.427176317998146
1658789948831514,-7.904173342488775,-85.66414892805369,-45.746547646295994
1658789948847506,-8.209353780422589,-89.38735027084749,-45.868619821469565
1658789948863498,-2.288853284504512,-90.48599984740963,-43.183031967651004
1658789948879490,3.0212863355459376,-91.27946898603795,-42.02334630350197
1658789948895483,4.180971999694748,-93.90402075226984,-43.36614023041125
1658789948911475,1.0070954451819034,-97.93240253299768,-44.8310063324941
1658789948927467,-4.364080262455218,-100.19073777370886,-45.563439383535524
1658789948943459,-6.561379415579495,-99.76348516060125,-46.41794460975052
1658789948959451,-8.697642481116873,-100.61799038681625,-46.9672693980317
1658789948975443,-14.251926451514464,-103.54772259098195,-49.83596551461051
1658789948991436,-16.815442130159454,-105.9281300068667,-51.72808422980097
1658789949007428,-15.045395590142562,-105.31776913099884,-50.32425421530479
1658789949023420,-6.256198977645454,-103.12046997787456,-47.45555809872599
1658789949039412,-3.2043945983061803,-103.79186694132909,-46.78416113527123
1658789949055404,-2.4719615472647547,-105.80605783169312,-47.028305485618375
1658789949071396,-3.7537193865873633,-105.43984130617241,-44.70893415732053
1658789949087389,-4.364080262455218,-102.44907301441981,-40.619516289006015
1658789949103381,-1.8616006713969,-99.94659342336172,-37.01838712138556
1658789949119354,-7.17174029144735,-100.61799038681625,-38.1170366979477
1658789949135346,-19.867246509498727,-101.2283512626841,-40.741588464179586
1658789949151338,-22.79697871366443,-99.03105210955982,-37.50667582207984
1658789949167330,-17.48683909361398,-95.85717555504698,-32.44068055237676
1658789949183323,-12.603952086671143,-94.5754177157246,-32.623788815137004
1658789949199315,-10.223544670786623,-95.12474250400555,-35.85870145723675
1658789949215307,-10.772869459067579,-96.34546425574126,-37.872892347600555
1658789949231299,-11.01701380941472,-94.39230945296413,-36.591134508278174
1658789949247291,-11.322194247348762,-89.26527809567392,-33.478294041352
1658789949263283,-6.317235065232353,-83.16166933699537,-28.717479209582507
1658789949279276,0.213626306553806,-82.30716411078038,-24.933241779201808
1658789949295268,-6.134126802471883,-84.26031891355751,-28.473334859235365
1658789949311260,-12.176699473563758,-83.52788586251609,-28.96162355992965
1658789949327252,-12.298771648737329,-76.26459143968873,-19.80621042191183
1658789949343244,-5.645838101777599,-71.44274052033256,-12.664988174258042
1658789949359236,-4.058899824521177,-72.5413900968947,-12.4208438239109
1658789949375229,-10.833905546654478,-74.06729228656445,-16.632333867398984
1658789949391221,-15.838864728770886,-72.84657053482874,-17.24269474326684
1658789949407213,-13.275349050125897,-67.23125047684448,-10.101472495613052
1658789949423205,-5.401693751430457,-63.63012130922402,-5.3406576638437855
1658789949439209,-3.814755474174035,-63.50804913405045,-8.148317692835917
1658789949455201,-5.0354772259097444,-62.714579995422355,-11.688410772869474
1658789949471193,-0.8850232700083325,-60.090028229190466,-10.162508583199724
1658789949487185,1.2512397955290453,-57.89272907606619,-5.401693751430457
1658789949503177,2.410925459678083,-55.26817730983453,-2.5940337224383256
1658789949519169,0.7019150072480898,-52.70466163118954,-3.2654306858930795
1658789949535162,-5.3406576638437855,-50.62943465323883,-6.622415503166167
1658789949551154,-10.955977721828049,-47.39452201113909,-8.6366063935302
1658789949567146,-13.885709925993751,-43.121995880064105,-6.012054627298312
1658789949583138,-15.228503852903032,-37.01838712138556,0.09155413138023505
1658789949599130,-10.467689021133765,-30.182345311665358,5.0354772259097444
1658789949615122,-4.42511635004189,-24.01770046540014,5.828946364538069
1658789949631115,-1.739528496223329,-19.439993896391115,5.096513313496644
1658789949647107,0.7019150072480898,-15.411612115663274,5.096513313496644
1658789949663099,5.157549401083315,-8.209353780422589,8.270389868009488
1658789949679091,9.124895094224485,1.0070954451819034,9.491111619745197
1658789949695083,11.261158159761862,6.8665598535133086,8.148317692835917
1658789949711075,7.782101167315204,11.322194247348762,7.782101167315204
1658789949727068,8.6366063935302,17.24269474326684,8.758678568703772
1658789949743060,7.721065079728305,23.7125200274661,9.613183794918768
1658789949759033,4.303044174868319,29.755092698557974,8.45349813076973
1658789949775025,-1.3122758831159445,34.45487144274034,6.195162890058782
1658789949791017,-3.7537193865873633,41.290913252460314,5.584802014190927
1658789949807009,-1.6174563210497581,48.24902723735386,8.45349813076973
1658789949823001,0.7019150072480898,52.82673380636288,8.6366063935302
1658789949838994,5.584802014190927,57.09925993743764,8.026245517662346
1658789949854986,8.880750743877343,60.761425192644765,8.270389868009488
1658789949870978,11.444266422522333,66.25467307545614,10.772869459067579
1658789949886970,13.214312962538997,72.41931792172136,13.397421225299468
1658789949902962,12.542915999084471,76.56977187762277,14.190890363927565
1658789949918954,11.566338597695903,79.13328755626799,13.885709925993751
1658789949934947,11.261158159761862,81.75783932249942,16.1440451667047
1658789949950939,14.92332341496899,86.45761806668224,20.416571297779683
1658789949966931,16.937514305333025,90.60807202258366,21.39314869916825
1658789949982923,16.2050812542916,92.19501029983985,19.1348134584573
1658789949998915,9.063859006637585,91.6456855115589,16.02197299153113
1658789950014907,6.012054627298312,94.08712901503031,17.66994735637445
1658789950030900,11.566338597695903,99.82452124818792,24.933241779201808
1658789950046892,15.167467765316132,102.99839780270077,25.29945830472252
1658789950062884,14.862287327382319,102.44907301441981,21.33211261158158
1658789950078857,18.58548867017612,101.41145952544457,21.51522087434182
1658789950094849,28.534370946822264,101.3504234378579,24.383916990920852
1658789950110841,27.679865720607268,103.66979476615552,24.567025253681095
1658789950126834,22.125581750209676,108.0033569848174,24.994277866788707
1658789950142826,15.716792553597315,110.9330891889831,27.496757457846797
1658789950158818,10.833905546654478,110.01754787518121,28.595407034408936
1658789950174810,11.566338597695903,108.36957351033789,27.80193789578084
1658789950190802,6.927595941100208,105.9891660944536,27.74090180819394
1658789950206794,4.42511635004189,106.84367132066836,30.36545357442583
1658789950222787,5.279621576256886,108.67475394827215,35.30937666895534
1658789950238779,9.73525597009234,109.04097047379264,37.26253147173247
1658789950254771,14.251926451514464,107.14885175860218,35.79766536964962
1658789950270763,14.98435950255589,104.03601129167646,35.004196231021524
1658789950286755,15.533684290836845,101.3504234378579,35.37041275654224
1658789950302747,12.481879911497572,100.86213473716361,36.83527885862509
1658789950318740,8.697642481116873,102.38803692683314,39.45983062485675
1658789950334732,6.439307240405924,100.80109864957649,42.20645456626221
1658789950350724,5.584802014190927,96.52857251850173,42.69474326695649
1658789950366716,4.119935912108076,93.17158770122842,40.9246967269396
1658789950382708,1.739528496223329,91.95086594949271,41.8402380407415
1658789950398712,3.3875028610666504,89.1432059205008,43.36614023041102
1658789950414704,1.0681315327688026,85.11482413977274,40.80262455176603
1658789950430696,-2.8381780727854675,82.49027237354085,37.628747997253186
1658789950446688,1.9226367589837992,81.33058670939226,40.86366063935293
1658789950462680,8.33142595559616,76.75288014038324,42.08438239108864
1658789950478673,1.983672846570471,70.40512703135755,38.0560006103608
1658789950494665,-3.1433585107195086,67.90264744029946,36.346990157930804
1658789950510657,-3.2043945983061803,68.57404440375376,39.64293888761722
1658789950526649,-3.997863736934505,66.98710612649757,40.9246967269396
1658789950542641,-4.852368963149502,62.77561608300948,38.66636148622865
1658789950558633,-0.5188067444876197,60.15106431677714,37.567711909666514
1658789950574626,2.105745021744042,56.54993514915668,36.10284580758366
1658789950590618,5.523765926604028,52.88776989394955,37.1404592965589
1658789950606610,9.55214770733187,50.690470740825276,38.66636148622865
1658789950622602,7.660028992141633,49.65285725185004,35.91973754482319
1658789950638594,1.3733119707026162,47.15037766079172,32.501716639963206
1658789950654586,-5.706874189364498,41.10780498970007,31.52513923857464
1658789950670579,-4.364080262455218,34.51590753032724,30.30441748683893
1658789950686571,0.03051804379333589,29.877164873731545,29.38887617303726
1658789950702563,-0.7019150072480898,22.919050888838,25.48256656748299
1658789950718505,-9.55214770733187,13.519493400473038,19.80621042191183
1658789950734498,-12.115663385976859,4.791332875562603,15.594720378423744
1658789950750490,-11.383230334935433,-1.1902037079423735,12.298771648737329
1658789950766482,-9.185931181811156,-8.270389868009488,9.369039444571627
1658789950782474,-11.932555123216616,-17.914091706721592,3.2654306858930795
1658789950798466,-15.289539940489703,-26.58121614404513,-3.692683299000464
1658789950814458,-13.397421225299468,-32.37964446478986,-8.270389868009488
1658789950830451,-10.162508583199724,-37.50667582207984,-13.946746013580423
1658789950846443,-10.833905546654478,-44.342717631799815,-20.599679560540153
1658789950862435,-9.430075532158298,-50.32425421530479,-24.811169604028237
1658789950878427,-8.270389868009488,-55.024032959487386,-29.38887617303726
1658789950894419,-6.073090714885211,-57.95376516365309,-31.708247501335336
1658789950910411,-5.157549401083315,-61.86007476920736,-34.271763179980326
1658789950926404,-8.697642481116873,-67.41435873960472,-36.89631494621199
1658789950942396,-11.810482948043045,-72.41931792172113,-38.48325322346841
1658789950958388,-11.383230334935433,-73.88418402380398,-37.750820172426984
1658789950974380,-11.444266422522333,-74.55558098725874,-37.38460364690627
1658789950990372,-13.336385137712568,-76.87495231555658,-38.78843366140245
1658789951006364,-11.871519035629717,-80.78126192111085,-39.520866712443876
1658789951022357,-10.833905546654478,-84.07721065079727,-41.1078049897003
1658789951038360,-8.819714656290444,-86.33554589150822,-41.47402151522101
1658789951054352,-10.040436408026153,-88.34973678187225,-43.06095979247743
1658789951070345,-13.885709925993751,-90.42496375982296,-45.563439383535524
1658789951086337,-12.909132524605184,-90.18081940947582,-44.892042420081
1658789951102329,-5.95101853971164,-90.85221637293034,-45.685511558709095
1658789951118321,-3.0212863355459376,-94.63645380331127,-48.73731593804837
1658789951134313,-8.026245517662346,-97.68825818265054,-50.44632639047836
1658789951150305,-11.749446860456146,-97.26100556954316,-48.310063324940984
1658789951166298,-8.6366063935302,-93.5378042267489,-43.61028458075839
1658789951182290,-7.11070420386045,-93.04951552605462,-43.183031967651004
1658789951198282,-3.7537193865873633,-95.85717555504698,-44.28168154421314
1658789951214274,-4.547188525215461,-100.19073777370886,-44.15960936903957
1658789951230266,-6.622415503166167,-100.67902647440314,-41.1078049897003
1658789951246258,-2.166781109330941,-97.13893339436959,-36.530098420691274
1658789951262251,-4.42511635004189,-96.04028381780745,-36.957351033798886
1658789951278243,-7.965209430075447,-98.3596551461053,-40.558480201419115
1658789951294235,-12.115663385976859,-101.71663996337838,-42.87785152971696
1658789951310227,-18.036163881895163,-102.20492866407267,-43.244068055237676
1658789951326219,-16.937514305333025,-97.99343862058458,-40.497444113832444
1658789951342211,-12.23773556115043,-95.12474250400555,-37.872892347600555
1658789951358184,-15.960936903944457,-97.93240253299768,-42.14541847867554
1658789951374177,-20.294499122606112,-100.00762951094839,-45.07515068284124
1658789951390169,-17.66994735637445,-96.71168078126198,-40.13122758831173
1658789951406161,-11.444266422522333,-91.40154116121153,-33.23414969100486
1658789951422153,-2.7771419851987957,-88.47180895704582,-28.778515297169406
1658789951438145,0.213626306553806,-91.21843289845106,-28.534370946822264
1658789951454137,-1.1291676203554744,-94.33127336537746,-31.036850537880355
1658789951470130,-3.936827649347606,-91.88982986190581,-29.26680399786369
1658789951486122,-3.2043945983061803,-86.64072632944226,-22.980086976424673
1658789951502114,-0.09155413138023505,-83.46684977492941,-17.48683909361398
1658789951518106,-1.739528496223329,-84.01617456321037,-17.059586480506596
1658789951534098,-6.500343327992596,-83.16166933699537,-19.256885633630873
1658789951550090,-7.17174029144735,-80.53711757076371,-17.059586480506596
1658789951566083,-9.308003356984727,-79.19432364385443,-14.557106889448278
1658789951582075,-12.481879911497572,-77.05806057831683,-13.153276874952326
1658789951598067,-14.068818188753994,-72.78553444724184,-12.176699473563758
1658789951614059,-9.613183794918768,-68.39093614099329,-10.650797283894008
1658789951630051,-2.7161058976118966,-66.49881742580305,-10.467689021133765
1658789951646043,4.119935912108076,-65.70534828717473,-11.01701380941472
1658789951662036,7.537956816968062,-63.63012130922402,-11.139085984588291
1658789951678009,5.889982452124741,-60.88349736781879,-11.01701380941472
1658789951694001,-1.983672846570471,-57.587548638132375,-10.162508583199724
1658789951709993,-7.782101167315204,-53.376058594644064,-8.697642481116873
1658789951725985,-14.312962539101136,-49.04249637598241,-8.270389868009488
1658789951741977,-17.730983443961122,-42.93888761730386,-7.476920729381163
1658789951757969,-16.876478217746126,-36.4690623331046,-5.401693751430457
1658789951773962,-13.824673838406852,-30.670634012359642,-3.5095750362402214
1658789951789954,-9.124895094224485,-23.651483939879427,-1.1902037079423735
1658789951805946,-0.213626306553806,-14.98435950255589,2.227817196917613
1658789951821938,6.622415503166167,-7.11070420386045,3.6316472114137923
1658789951837930,6.744487678339738,-2.288853284504512,2.227817196917613
1658789951853922,6.378271152819025,3.692683299000464,3.2043945983061803
1658789951869915,4.486152437628789,11.444266422522333,5.3406576638437855
1658789951885907,0.03051804379333589,20.599679560540153,7.354848554207592
1658789951901899,-4.42511635004189,27.80193789578084,8.087281605249018
1658789951917891,-6.439307240405924,33.600366216525344,7.11070420386045
1658789951933883,-4.119935912108076,38.23910887312104,7.049668116273779
1658789951949875,0.8239871824216607,43.36614023041102,9.73525597009234
1658789951965868,5.0354772259097444,48.55420767528767,11.01701380941472
1658789951981860,6.012054627298312,55.2681773098343,11.139085984588291
1658789951997863,6.378271152819025,62.47043564507476,12.726024261844714
1658789952013856,7.598992904554734,67.96368352788613,14.312962539101136
1658789952029848,7.965209430075447,70.89341573205184,15.838864728770886
1658789952045840,8.45349813076973,73.02967879758944,16.998550392919697
1658789952061832,10.650797283894008,77.72945754177181,21.759365224688963
1658789952077824,15.228503852903032,84.32135500114464,27.008468757152514
1658789952093816,18.158236057068734,88.22766460669891,29.38887617303726
1658789952109809,17.79201953154802,89.08216983291368,28.16815442130155
1658789952125801,14.679179064621849,89.99771114671557,26.459143968871558
1658789952141793,15.655756466010416,92.50019073777366,28.839551384756078
1658789952157785,17.79201953154802,95.18577859159222,32.01342793926892
1658789952173777,18.219272144655406,97.56618600747697,31.280994888227497
1658789952189769,14.007782101167322,97.99343862058458,29.08369573510322
1658789952205762,13.519493400473038,100.00762951094839,29.32784008545036
1658789952221754,19.9893186846723,101.28938735027077,31.280994888227497
1658789952237746,20.35553521019301,102.20492866407267,30.670634012359642
1658789952253738,14.251926451514464,103.42565041580838,28.412298771648693
1658789952269730,4.486152437628789,103.30357824063503,29.694056610971074
1658789952285722,3.814755474174035,103.54772259098218,36.469062333104375
1658789952301715,13.397421225299468,102.20492866407267,42.32852674143578
1658789952317688,16.571297779812312,97.68825818265077,42.877851529716736
1658789952333680,29.938200961318216,93.7819485770965,47.33348592355219
1658789952349672,43.12199588006388,87.98352025635177,48.67627985046147
1658789952365664,38.54428931105508,83.77203021286368,41.7792019531546
1658789952381656,27.92401007095441,83.46684977492941,40.375371938658645
1658789952397648,24.13977264057371,83.22270542458227,42.755779354543165
1658789952413641,24.01770046540014,81.51369497215228,41.474021515220784
1658789952429633,16.876478217746126,77.48531319142467,36.591134508277946
1658789952445625,0.2746623941404778,74.49454489967229,33.11207751583106
1658789952461617,-6.378271152819025,74.6776531624323,36.285954070343905
1658789952477609,-1.6174563210497581,76.14251926451516,40.86366063935293
1658789952493601,4.547188525215461,76.56977187762277,39.88708323796436
1658789952509594,4.852368963149502,74.25040054932515,35.91973754482319
1658789952525586,1.1291676203554744,72.05310139620087,36.591134508277946
1658789952541578,6.8665598535133086,72.23620965896089,42.26749065384888
1658789952557570,12.603952086671143,74.6776531624323,45.07515068284101
1658789952573562,13.702601663233281,75.715266651408,43.42717631799792
1658789952589554,7.11070420386045,73.64003967345707,42.51163500419602
1658789952605547,7.843137254901876,71.32066834515945,44.7699702449072
1658789952621539,7.2938124666209205,70.46616311894422,45.319295033188155
1658789952637512,7.660028992141633,70.83237964446516,43.48821240558459
1658789952653504,-3.997863736934505,69.18440527962184,40.314335851071746
1658789952669496,-13.275349050125897,67.96368352788613,39.58190280003032
1658789952685488,-9.73525597009234,67.10917830167091,42.51163500419602
1658789952701480,-1.739528496223329,65.70534828717518,42.57267109178292
1658789952717473,2.410925459678083,63.50804913405091,38.42221713588151
1658789952733465,-1.4343480582895154,61.67696650644666,37.26253147173247
1658789952749457,2.3498893720911838,59.662775616082854,38.849469748988895
1658789952765449,3.6316472114137923,58.13687342641333,40.375371938658645
1658789952781441,6.195162890058782,55.939574273289054,39.58190280003032
1658789952797433,-0.8850232700083325,52.033264667734784,38.66636148622865
1658789952813426,-9.979400320439481,47.21141374837862,37.9949645227739
1658789952829418,-8.6366063935302,44.403753719386486,40.1312275883115
1658789952845410,6.683451590753066,41.65712977798103,40.74158846417936
1658789952861402,10.040436408026153,33.722438391698915,36.53009842069105
1658789952877394,6.927595941100208,24.689097428854666,30.54856183718607
1658789952893386,3.570611123826893,17.914091706721592,25.665674830243233
1658789952909379,1.4953841458761872,12.542915999084471,19.684138246738257
1658789952925371,-8.575570305943302,3.0212863355459376,11.932555123216616
1658789952941363,-18.524452582589447,-8.697642481116873,3.570611123826893
1658789952957336,-19.9893186846723,-17.975127794308264,-1.6174563210497581
1658789952973328,-13.885709925993751,-25.23842221713585,-6.073090714885211
1658789952989320,-13.275349050125897,-34.027618829633184,-12.726024261844714
1658789953005313,-12.664988174258042,-42.999923704890534,-19.867246509498727
1658789953021305,-10.406652933546866,-49.34767681391622,-26.52018005645823
1658789953037297,-8.51453421835663,-53.681239032578105,-30.243381399252257
1658789953053289,-9.491111619745197,-59.47966735332261,-35.12626840619532
1658789953069281,-14.862287327382319,-67.78057526512544,-41.71816586556815
1658789953085273,-20.904859998473967,-74.2504005493247,-44.525825894560285
1658789953101266,-22.61387045090396,-77.54634927901111,-45.38033112077528
1658789953117258,-22.73594262607753,-81.08644235904467,-47.39452201113909
1658789953133250,-24.07873655298681,-87.12901503013654,-51.97222858014811
1658789953149242,-22.125581750209676,-93.17158770122819,-55.51232166018167
1658789953165234,-14.557106889448278,-95.49095902952627,-55.14610513466096
1658789953181226,-12.481879911497572,-97.5051499198903,-54.718852521553345
1658789953197219,-12.664988174258042,-99.03105210955982,-56.183718623636196
1658789953213211,-10.955977721828049,-100.80109864957672,-56.183718623636196
1658789953229203,-5.462729839017356,-103.3035782406348,-55.26817730983453
1658789953245195,-4.730296787975931,-106.47745479514765,-55.57335774776834
1658789953261187,-11.810482948043045,-109.95651178759454,-57.526512550545476
1658789953277191,-21.39314869916825,-110.68894483863596,-58.2589456015869
1658789953293183,-24.13977264057371,-109.83443961242097,-56.91615167467762
1658789953309175,-28.229190508888223,-108.06439307240407,-57.404440375371905
1658789953325167,-23.041123064011572,-105.13466086823837,-57.09925993743809
1658789953341159,-21.026932173647538,-108.49164568551168,-59.47966735332261
1658789953357152,-26.092927443350845,-113.37453269245452,-65.09498741130687
1658789953373144,-29.877164873731545,-112.15381094071881,-63.752193484397594
1658789953389136,-22.49179827573039,-106.84367132066836,-57.404440375371905
1658789953405128,-21.026932173647538,-105.62294956893265,-55.69542992294191
1658789953421120,-24.689097428854666,-105.80605783169312,-60.51728084229808
1658789953437112,-25.23842221713585,-105.9281300068667,-62.1042191195545
1658789953453105,-25.48256656748299,-103.66979476615552,-58.13687342641333
1658789953469097,-16.388189517051842,-97.01686121919602,-50.873579003585974
1658789953485089,-11.444266422522333,-91.70672159914534,-46.17380025940338
1658789953501081,-10.467689021133765,-89.87563897154178,-45.685511558709095
1658789953517073,-14.80125123979542,-89.7535667963682,-45.44136720836195
1658789953533065,-13.519493400473038,-87.92248416876464,-42.02334630350197
1658789953549058,-9.613183794918768,-83.52788586251609,-36.4080262455177
1658789953565050,-12.481879911497572,-79.07225146868086,-32.928969253071045
1658789953581042,-19.867246509498727,-76.87495231555658,-33.478294041352
1658789953597015,-21.942473487449433,-73.57900358587017,-31.769283588922008
1658789953613007,-19.378957808804444,-70.83237964446471,-29.022659647516548
1658789953628999,-15.045395590142562,-68.57404440375376,-30.4875257495994
1658789953644991,-10.711833371480907,-64.72877088578616,-28.96162355992965
1658789953660984,-2.655069810025225,-63.38597695887688,-24.750133516441565
1658789953676976,4.547188525215461,-63.26390478370331,-23.89562829022657
1658789953692968,8.45349813076973,-62.22629129472807,-22.430762188143717
1658789953708960,4.180971999694748,-60.151064316777365,-22.064545662623004
1658789953724952,-1.9226367589837992,-57.95376516365309,-20.294499122606112
1658789953740944,-4.9134050507361735,-57.34340428778523,-16.937514305333025
1658789953756937,-12.787060349431613,-57.34340428778523,-17.120622568093268
1658789953772929,-18.58548867017612,-54.16952773327239,-17.914091706721592
1658789953788921,-22.49179827573039,-51.48393987945383,-16.26611734187827
1658789953804913,-26.52018005645823,-49.469748989089794,-20.416571297779683
1658789953820905,-33.844510566872714,-44.525825894560285,-26.153963530937517
1658789953836897,-38.36118104829484,-36.530098420691274,-27.069504844739413
1658789953852890,-36.16388189517056,-27.61882963302037,-23.651483939879427
1658789953868882,-26.337071793697987,-18.097199969481835,-18.036163881895163
1658789953884874,-13.031204699778755,-11.139085984588291,-11.688410772869474
1658789953900866,2.3498893720911838,-4.303044174868319,-5.95101853971164
1658789953916839,16.32715342946517,2.227817196917613,-2.7771419851987957
1658789953932831,21.45418478675515,8.575570305943302,-1.9226367589837992
1658789953948824,19.01274128328373,15.838864728770886,-0.3967345693140487
1658789953964816,11.444266422522333,23.83459220263967,2.410925459678083
1658789953980808,0.15259021896690683,31.097886625467254,5.462729839017356
1658789953996800,-10.040436408026153,37.506675822079615,7.4158846417944915
1658789954012792,-16.08300907911803,43.9154650186922,8.758678568703772
1658789954028784,-16.388189517051842,50.01907377737052,9.369039444571627
1658789954044777,-11.07804989700162,54.413672083619076,9.55214770733187
1658789954060769,-3.0212863355459376,58.74723430228096,11.871519035629717
1658789954076761,7.4158846417944915,63.32494087129044,15.167467765316132
1658789954092753,14.92332341496899,68.57404440375376,16.02197299153113
1658789954108745,15.350576028076603,74.00625619897801,16.876478217746126
1658789954124737,11.322194247348762,77.66842145418514,18.524452582589447
1658789954140730,7.17174029144735,80.29297322041657,22.369726100556818
1658789954156722,5.3406576638437855,83.83306630045035,24.383916990920852
1658789954172714,4.242008087281647,86.76279850461606,25.36049439230942
1658789954188706,1.6784924086366573,88.65491721980652,25.36049439230942
1658789954204698,1.4343480582895154,92.01190203707938,29.26680399786369
1658789954220690,5.3406576638437855,95.00267032883221,32.92896925307082
1658789954236663,9.613183794918768,97.74929427023744,32.86793316548392
1658789954252655,9.308003356984727,97.68825818265077,30.60959792477297
1658789954268647,9.002822919050914,98.4206912336922,33.11207751583106
1658789954284639,13.58052948805971,101.2283512626841,39.70397497520389
1658789954300630,14.435034714274707,103.60875867856885,42.32852674143578
1658789954316622,7.2938124666209205,103.18150606546124,38.910505836575794
1658789954332614,-1.5564202334630863,103.54772259098218,38.66636148622865
1658789954348605,-2.4719615472647547,102.20492866407267,40.80262455176603
1658789954364597,-2.8381780727854675,102.9373617151141,42.02334630350174
1658789954380589,-1.4953841458761872,104.46326390478362,41.474021515220784
1658789954396580,-6.134126802471883,104.70740825513076,39.82604715037746
1658789954412572,-6.744487678339738,104.64637216754409,39.88708323796436
1658789954428564,1.5564202334630863,104.76844434271788,43.060959792477206
1658789954444555,17.914091706721592,105.43984130617218,46.47898069733719
1658789954460547,28.534370946822264,103.60875867856885,44.64789806973363
1658789954476539,28.290226596475122,100.434882124056,42.32852674143578
1658789954492530,24.444953078507524,98.78690775921268,41.596093690394355
1658789954508522,15.960936903944457,101.41145952544457,42.633707179369594
1658789954524514,5.3406576638437855,103.54772259098218,43.67132066834506
1658789954540506,-3.0212863355459376,102.44907301441981,43.67132066834506
1658789954556488,2.3498893720911838,99.15312428473362,46.90623331044458
1658789954572479,4.303044174868319,92.62226291294746,45.74654764629577
1658789954588471,4.9134050507361735,91.27946898603795,45.13618677042791
1658789954604463,8.270389868009488,92.01190203707938,48.85938811322194
1658789954620454,3.997863736934505,90.48599984740986,46.05172808422958
1658789954636446,-0.7019150072480898,89.1432059205008,43.18303196765078
1658789954652438,0.3967345693140487,87.61730373083083,43.976501106278874
1658789954668429,0.7019150072480898,86.27450980392177,44.037537193865774
1658789954684421,11.688410772869474,85.72518501564082,48.73731593804814
1658789954700413,17.853055619134693,81.63576714732608,47.760738536659574
1658789954716405,13.946746013580423,77.66842145418514,42.20645456626221
1658789954732396,5.706874189364498,76.75288014038324,42.26749065384888
1658789954748388,-2.3498893720911838,75.16594186312659,43.79339284351863
1658789954764380,-8.148317692835917,72.54139009689516,43.54924849317149
1658789954780371,-9.430075532158298,69.97787441824994,42.99992370489031
1658789954796363,-6.683451590753066,66.8039978637371,44.037537193865774
1658789954812355,-4.791332875562603,60.70038910505809,43.67132066834506
1658789954828346,-1.1291676203554744,57.404440375371905,41.65712977798103
1658789954844338,10.89494163424115,55.51232166018144,43.12199588006388
1658789954860330,18.76859693293659,48.43213550011433,40.00915541313793
1658789954876342,16.388189517051842,38.66636148622865,32.684824902723676
1658789954892334,11.627374685282575,31.64721141374821,28.534370946822264
1658789954908326,3.3875028610666504,25.787747005416804,25.909819180590375
1658789954924317,-10.833905546654478,15.594720378423744,21.27107652399468
1658789954940309,-21.45418478675515,3.1433585107195086,14.92332341496899
1658789954956301,-22.186617837796575,-7.232776379034021,9.430075532158298
1658789954972293,-13.946746013580423,-15.899900816357558,4.364080262455218
1658789954988284,-10.89494163424115,-26.031891355763946,-3.3875028610666504
1658789955004276,-6.378271152819025,-35.91973754482342,-10.833905546654478
1658789955020268,-0.09155413138023505,-44.342717631799815,-17.60891126878755
1658789955036259,3.875791561760934,-50.6904707408255,-22.67490653849086
1658789955052251,-1.0070954451819034,-59.35759517814904,-29.022659647516548
1658789955068243,-11.505302510109004,-68.94026092927447,-35.55352101930271
1658789955084234,-20.660715648126825,-76.3866636148623,-40.92469672693983
1658789955100226,-25.17738612954895,-80.9643701838711,-44.95307850766767
1658789955116218,-28.717479209582507,-84.99275196459894,-50.38529030289169
1658789955132209,-26.459143968871558,-89.69253070878153,-55.939574273289054
1658789955148201,-16.510261692225413,-93.90402075226984,-59.41863126573594
1658789955164193,-1.983672846570471,-96.5896086060884,-59.90691996643022
1658789955180184,11.01701380941472,-98.3596551461053,-58.930342565041656
1658789955196167,11.261158159761862,-100.92317082475029,-59.23552300297547
1658789955212158,3.3875028610666504,-103.85290302891599,-59.41863126573594
1658789955228150,-4.242008087281647,-104.09704737926313,-57.465476462958804
1658789955244142,-10.223544670786623,-104.03601129167623,-55.26817730983453
1658789955260133,-7.782101167315204,-104.76844434271766,-52.3994811932555
1658789955276125,-3.875791561760934,-107.0878156710155,-53.07087815671025
1658789955292117,-3.2654306858930795,-108.61371786068526,-54.41367208361953
1658789955308108,-1.3733119707026162,-107.0878156710155,-52.033264667734784
1658789955324100,-2.5940337224383256,-107.63714045929669,-53.00984206912335
1658789955340092,-6.317235065232353,-108.30853742275121,-55.26817730983453
1658789955356083,-5.645838101777599,-108.0033569848174,-55.3902494850081
1658789955372075,-2.8992141603723667,-108.30853742275121,-54.16952773327239
1658789955388067,-1.739528496223329,-110.20065613794168,-55.08506904707406
1658789955404059,-3.3264667734797513,-111.42137788967739,-57.22133211261166
1658789955420050,3.875791561760934,-108.67475394827193,-53.559166857404534
1658789955436042,11.810482948043045,-106.96574349584193,-50.50736247806526
1658789955452034,9.979400320439481,-108.61371786068526,-54.23056382085906
1658789955468025,4.119935912108076,-109.40718699931335,-56.00061036087595
1658789955484017,1.8005645838102282,-107.20988784618908,-52.216372930495254
1658789955500009,3.3264667734797513,-103.66979476615552,-46.78416113527123
1658789955515991,4.852368963149502,-101.04524299992386,-43.36614023041125
1658789955531983,-4.486152437628789,-102.69321736476695,-44.95307850766767
1658789955547974,-14.190890363927565,-103.42565041580838,-46.72312504768456
1658789955563966,-14.496070801861606,-100.00762951094839,-40.558480201419115
1658789955579958,-6.744487678339738,-94.5754177157246,-32.44068055237676
1658789955595949,6.378271152819025,-90.6691081101701,-28.412298771648693
1658789955611941,19.1348134584573,-90.36392767223606,-28.473334859235365
1658789955627933,19.501029983978015,-92.19501029983962,-31.036850537880355
1658789955643924,11.627374685282575,-90.36392767223606,-34.332799267567
1658789955659916,4.9134050507361735,-83.16166933699537,-27.679865720607268
1658789955675908,3.0823224231326094,-77.2411688410773,-20.721751735713724
1658789955691899,-1.4953841458761872,-76.63080796520944,-23.346303501945386
1658789955707891,-9.979400320439481,-76.56977187762254,-29.26680399786369
1658789955723883,-14.557106889448278,-73.57900358587017,-29.938200961318216
1658789955739874,-13.275349050125897,-67.29228656443115,-26.214999618524416
1658789955755866,-9.185931181811156,-61.12764171816593,-21.45418478675515
1658789955771858,-1.9226367589837992,-55.26817730983453,-16.876478217746126
1658789955787850,4.791332875562603,-51.48393987945383,-16.02197299153113
1658789955803841,6.073090714885211,-46.84519722285813,-16.632333867398984
1658789955819833,2.105745021744042,-40.741588464179586,-14.862287327382319
1658789955835846,-3.2654306858930795,-32.806897077897474,-11.07804989700162
1658789955851837,-11.444266422522333,-23.83459220263967,-7.232776379034021
1658789955867829,-19.501029983978015,-14.190890363927565,-4.058899824521177
1658789955883821,-22.125581750209676,-5.401693751430457,-0.8239871824216607
1658789955899812,-17.24269474326684,1.5564202334630863,2.7161058976118966
1658789955915804,-7.843137254901876,6.9886320286868795,5.523765926604028
1658789955931796,0.5188067444876197,13.336385137712568,5.584802014190927
1658789955947787,6.012054627298312,22.67490653849086,6.195162890058782
1658789955963779,6.195162890058782,31.70824750133511,7.782101167315204
1658789955979771,5.157549401083315,39.45983062485675,9.67421988250544
1658789955995762,4.42511635004189,45.92965590905601,11.688410772869474
1658789956011754,4.852368963149502,51.728084229800515,13.519493400473038
1658789956027746,5.2185854886702145,58.075837338826204,15.838864728770886
1658789956043738,6.195162890058782,64.48462653543947,17.36476691844041
1658789956059729,6.805523765926637,69.18440527962184,18.82963302052326
1658789956075721,4.547188525215461,74.00625619897801,21.210040436408008
1658789956091713,5.523765926604028,78.58396276798658,25.05531395437538
1658789956107704,6.256198977645454,83.1616693369956,28.04608224612798
1658789956123696,7.11070420386045,86.57969024185559,29.51094834821083
1658789956139688,5.706874189364498,89.8146028839551,31.95239185168225
1658789956155670,6.683451590753066,92.50019073777366,36.285954070343905
1658789956171661,11.810482948043045,95.42992294193937,37.506675822079615
1658789956187653,14.618142977035177,97.5051499198903,35.18730449378177
1658789956203645,15.594720378423744,99.33623254749364,33.478294041351774
1658789956219637,17.181658655680167,100.37384603646933,35.126268406195095
1658789956235628,20.416571297779683,99.33623254749364,33.722438391698915
1658789956251620,16.998550392919697,99.76348516060125,30.243381399252257
1658789956267612,6.744487678339738,101.77767605096506,26.459143968871558
1658789956283603,-8.148317692835917,103.05943389028789,26.886396581978943
1658789956299595,-15.594720378423744,103.12046997787456,29.38887617303726
1658789956315587,-12.664988174258042,103.12046997787456,32.501716639963206
1658789956331578,-6.744487678339738,102.32700083924647,33.17311360341796
1658789956347570,-4.303044174868319,101.10627908751076,31.95239185168225
1658789956363562,1.4343480582895154,100.49591821164267,36.77424277103819
1658789956379553,10.89494163424115,100.80109864957649,40.74158846417936
1658789956395545,15.228503852903032,100.80109864957649,38.42221713588151
1658789956411537,11.749446860456146,100.06866559853506,35.37041275654224
1658789956427528,5.523765926604028,99.27519645990697,37.384603646906044
1658789956443520,6.805523765926637,98.17654688334505,40.9857328145265
1658789956459512,9.002822919050914,95.73510337987364,40.9246967269396
1658789956475494,3.936827649347606,94.02609292744364,37.506675822079615
1658789956491486,-3.3875028610666504,92.92744335088128,39.88708323796436
1658789956507477,-1.1291676203554744,89.50942244602129,42.99992370489031
1658789956523469,-4.303044174868319,86.15243762874798,38.910505836575794
1658789956539461,-5.584802014190927,84.8706797894256,37.26253147173247
1658789956555452,-7.4158846417944915,82.79545281147512,36.65217059586462
1658789956571444,-1.739528496223329,79.86572060730941,37.384603646906044
1658789956587436,6.317235065232353,77.54634927901134,35.248340581368666
1658789956603428,10.711833371480907,76.20355535210228,32.379644464789635
1658789956619419,9.308003356984727,75.53215838864753,32.257572289616064
1658789956635411,7.354848554207592,73.94522011139088,33.96658274204606
1658789956651403,0.9460593575952316,71.99206530861375,33.905546654459386
1658789956667394,-8.758678568703772,71.38170443274612,34.69901579308748
1658789956683386,-14.740215152208748,70.46616311894422,37.567711909666514
1658789956699378,-10.711833371480907,67.59746700236519,41.474021515220784
1658789956715369,-8.51453421835663,62.714579995422355,39.52086671244365
1658789956731361,-5.2185854886702145,60.33417257953761,37.506675822079615
1658789956747353,-2.9602502479590385,56.79407949950382,37.07942320897223
1658789956763344,0.09155413138023505,51.483939879453374,34.08865491721963
1658789956779336,-1.3733119707026162,46.60105287251076,30.853742275120112
1658789956795318,-3.997863736934505,41.474021515220784,27.74090180819394
1658789956811310,-10.467689021133765,33.661402304112244,25.909819180590375
1658789956827302,-13.824673838406852,22.61387045090396,23.468375677118956
1658789956843293,-14.190890363927565,13.031204699778755,20.782787823300396
1658789956859285,-13.824673838406852,3.875791561760934,17.54787518120088
1658789956875277,-11.932555123216616,-6.012054627298312,13.214312962538997
1658789956891268,-7.2938124666209205,-16.510261692225413,6.683451590753066
1658789956907260,-0.15259021896690683,-26.58121614404513,0.6408789196611906
1658789956923252,5.0354772259097444,-35.67559319447628,-6.805523765926637
1658789956939243,3.5095750362402214,-45.07515068284124,-12.4208438239109
1658789956955235,-2.8381780727854675,-54.779888609140244,-18.76859693293659
1658789956971227,-10.589761196307336,-63.63012130922402,-24.933241779201808
1658789956987218,-18.76859693293659,-71.93102922102685,-31.952391851682478
1658789957003210,-24.750133516441565,-79.19432364385443,-38.23910887312127
1658789957019202,-24.13977264057371,-85.29793240253298,-43.183031967651004
1658789957035194,-17.36476691844041,-89.8146028839551,-46.84519722285813
1658789957051185,-9.430075532158298,-93.78194857709627,-49.469748989089794
1658789957067177,-6.378271152819025,-97.4441138323034,-52.155336842908355
1658789957083169,-3.997863736934505,-100.31280994888243,-52.88776989394978
1658789957099160,-3.0823224231326094,-102.87632562752742,-53.31502250705739
1658789957115142,-1.9226367589837992,-104.40222781719694,-52.76569771877621
1658789957131134,0.213626306553806,-104.76844434271766,-49.713893339436936
1658789957147126,1.4343480582895154,-107.82024872205693,-47.57763027389956
1658789957163118,-2.8992141603723667,-111.11619745174335,-49.04249637598241
1658789957179109,0.7019150072480898,-110.81101701380953,-44.58686198214696
1658789957195101,5.3406576638437855,-111.66552224002453,-41.22987716487387
1658789957211093,4.974441138323073,-115.02250705729762,-43.427176317998146
1658789957227084,3.692683299000464,-115.63286793316547,-45.38033112077528
1658789957243076,1.6174563210497581,-113.61867704280166,-44.464789806973386
1658789957259068,-1.5564202334630863,-113.00831616693381,-45.50240329594885
1658789957275059,2.3498893720911838,-114.90043488212405,-46.17380025940338
1658789957291051,5.584802014190927,-118.80674448767832,-48.6762798504617
1658789957307043,0.09155413138023505,-119.53917753871974,-52.277409018081926
1658789957323034,-4.42511635004189,-114.90043488212405,-49.774929427023835
1658789957339026,-3.5095750362402214,-111.90966659037167,-46.72312504768456
1658789957355018,1.1291676203554744,-112.21484702830548,-47.211413748378845
1658789957371009,11.444266422522333,-112.33691920347906,-47.8217746242467
1658789957387001,14.80125123979542,-111.17723353933025,-47.211413748378845
1658789957402993,9.85732814526591,-107.63714045929669,-45.563439383535524
1658789957418985,3.570611123826893,-102.44907301441981,-41.41298542763411
1658789957434967,2.655069810025225,-96.22339208056769,-34.82108796826128
1658789957450958,4.547188525215461,-91.95086594949248,-31.219958800640825
1658789957466950,7.049668116273779,-89.99771114671535,-30.670634012359642
1658789957482942,11.01701380941472,-89.26527809567392,-27.92401007095441
1658789957498933,12.23773556115043,-88.65491721980607,-25.42153047989609
1658789957514925,9.308003356984727,-84.26031891355751,-23.773556115052997
1658789957530917,1.8005645838102282,-79.37743190661467,-21.210040436408008
1658789957546908,-8.941786831464015,-76.50873579003587,-22.369726100556818
1658789957562900,-14.373998626688035,-72.96864271000231,-22.064545662623004
1658789957578892,-12.4208438239109,-69.18440527962161,-19.745174334325156
1658789957594884,-6.805523765926637,-66.13260090028234,-19.256885633630873
1658789957610875,-1.4953841458761872,-61.371786068513074,-19.867246509498727
1658789957626867,3.6316472114137923,-55.14610513466096,-17.914091706721592
1658789957642859,9.55214770733187,-48.310063324940984,-13.702601663233281
1658789957658850,13.58052948805971,-40.436408026245545,-10.833905546654478
1658789957674842,9.55214770733187,-35.431448844129136,-9.124895094224485
1658789957690834,-2.105745021744042,-29.694056610971074,-10.284580758373295
1658789957706825,-13.092240787365427,-21.210040436408008,-9.918364232852582
1658789957722817,-22.61387045090396,-11.261158159761862,-6.378271152819025
1658789957738809,-26.764324406805372,-2.166781109330941,-3.2043945983061803
1658789957754791,-26.276035706111088,4.791332875562603,-1.6784924086366573
1658789957770783,-19.073777370870403,11.261158159761862,-0.33569848172737693
1658789957786774,-7.660028992141633,19.195849546043974,3.0823224231326094
1658789957802766,3.570611123826893,27.435721370260126,4.974441138323073
1658789957818758,9.55214770733187,34.76005188067438,4.242008087281647
1658789957834749,10.406652933546866,42.877851529716736,4.303044174868319
1658789957850741,9.67421988250544,50.38529030289146,5.279621576256886
1658789957866733,6.683451590753066,57.221332112611435,8.697642481116873
1658789957882724,3.814755474174035,62.53147173266234,12.176699473563758
1658789957898716,2.7161058976118966,68.69611657892756,15.045395590142562
1658789957914708,1.8005645838102282,74.18936446173802,17.54787518120088
1658789957930699,3.0212863355459376,77.18013275349085,20.538643472953254
1658789957946691,4.60822461280236,79.98779278248276,24.07873655298681
1658789957962683,5.462729839017356,84.44342717631798,26.764324406805372
1658789957978675,7.660028992141633,90.05874723430225,30.670634012359642
1658789957994666,10.162508583199724,93.35469596398889,31.95239185168225
1658789958010658,8.6366063935302,93.7819485770965,29.694056610971074
1658789958026650,9.796292057679011,95.4909590295265,31.403067063401068
1658789958042641,16.02197299153113,97.01686121919602,36.163881895170334
1658789958058633,16.937514305333025,97.3830777447165,35.49248493171581
1658789958074646,9.491111619745197,97.99343862058458,32.31860837720296
1658789958090637,1.9226367589837992,99.76348516060125,33.29518577859153
1658789958106629,2.8992141603723667,101.47249561303124,35.91973754482319
1658789958122621,8.087281605249018,101.65560387579171,35.67559319447605
1658789958138612,12.909132524605184,101.47249561303124,33.17311360341796
1658789958154604,10.772869459067579,100.3128099488822,30.975814450293683
1658789958170596,7.782101167315204,101.59456778820504,30.975814450293683
1658789958186587,6.500343327992596,103.79186694132932,33.600366216525344
1658789958202579,2.105745021744042,105.31776913099884,31.70824750133511
1658789958218571,-4.180971999694748,105.56191348134598,30.670634012359642
1658789958234562,-1.1291676203554744,105.74502174410645,34.51590753032724
1658789958250554,7.598992904554734,104.46326390478362,36.408026245517476
1658789958266546,5.889982452124741,103.79186694132932,33.905546654459386
1658789958282538,-0.5188067444876197,104.1580834668498,32.257572289616064
1658789958298529,-2.4719615472647547,105.92813000686647,37.384603646906044
1658789958314521,0.5188067444876197,104.09704737926313,38.971541924162466
1658789958330513,4.058899824521177,102.143892576486,38.54428931105508
1658789958346504,2.7161058976118966,100.19073777370886,36.469062333104375
1658789958362496,-4.180971999694748,99.82452124818792,37.75082017242676
1658789958378488,-2.227817196917613,99.94659342336172,41.8402380407415
1658789958394470,0.5188067444876197,100.3128099488822,42.08438239108864
1658789958410462,-0.5188067444876197,98.90897993438648,40.192263675898175
1658789958426453,-2.5940337224383256,96.52857251850173,41.8402380407415
1658789958442445,3.936827649347606,92.31708247501365,46.845197222857905
1658789958458437,6.927595941100208,88.77698939497986,48.6152437628748
1658789958474428,8.087281605249018,87.37315938048368,48.73731593804814
1658789958490420,-2.410925459678083,84.50446326390511,46.23483634699005
1658789958506412,-10.223544670786623,81.81887541008655,46.723125047684334
1658789958522403,-6.561379415579495,77.54634927901134,47.760738536659574
1658789958538395,2.5940337224383256,72.11413748378754,46.05172808422958
1658789958554387,4.486152437628789,64.97291523613376,40.9246967269396
1658789958570378,-0.8850232700083325,58.258945601586674,38.48325322346818
1658789958586370,-8.026245517662346,52.46051728084194,36.10284580758366
1658789958602362,-9.491111619745197,49.591821164263365,36.285954070343905
1658789958618353,-8.209353780422589,43.12199588006388,34.821087968261054
1658789958634345,-9.491111619745197,31.64721141374821,30.060273136491787
1658789958650337,-10.162508583199724,19.073777370870403,26.7032883192187
1658789958666329,-10.284580758373295,9.73525597009234,22.8580148012511
1658789958682320,-11.810482948043045,0.8239871824216607,19.378957808804444
1658789958698312,-10.833905546654478,-8.880750743877343,15.838864728770886
1658789958714294,-7.4158846417944915,-18.158236057068734,12.970168612191856
1658789958730286,-3.5095750362402214,-26.52018005645823,9.124895094224485
1658789958746277,3.1433585107195086,-33.60036621652557,6.195162890058782
1658789958762269,4.303044174868319,-41.71816586556815,0.7629510948347615
1658789958778261,-2.166781109330941,-50.32425421530479,-6.073090714885211
1658789958794252,-5.76791027695117,-56.48889906157024,-11.444266422522333
1658789958810244,-7.476920729381163,-60.70038910505832,-15.533684290836845
1658789958826236,-14.251926451514464,-66.25467307545591,-23.102159151598244
1658789958842228,-14.740215152208748,-70.34409094377042,-29.694056610971074
1658789958858219,-10.162508583199724,-73.88418402380398,-33.78347447928604
1658789958874211,-4.791332875562603,-77.91256580453182,-38.056000610361025
1658789958890203,-2.105745021744042,-81.20851453421824,-39.398794537270305
1658789958906194,-1.9226367589837992,-84.07721065079727,-40.2532997634853
1658789958922186,-8.6366063935302,-86.33554589150822,-42.084382391088866
1658789958938178,-12.726024261844714,-87.31212329289679,-42.69474326695672
1658789958954169,-11.20012207217519,-88.47180895704582,-41.840238040741724
1658789958970161,-11.07804989700162,-91.40154116121153,-43.121995880064105
1658789958986153,-10.101472495613052,-93.90402075226984,-44.647898069733856
1658789959002144,-6.805523765926637,-95.00267032883198,-44.70893415732053
1658789959018136,-5.645838101777599,-94.81956206607174,-44.28168154421314
1658789959034118,-8.575570305943302,-96.10131990539412,-46.11276417181671
1658789959050110,-15.228503852903032,-98.3596551461053,-48.49317158770123
1658789959066102,-19.9282825970854,-100.74006256198982,-50.50736247806526
1658789959082093,-18.646524757763018,-101.2283512626841,-50.14114595254455
1658789959098085,-11.627374685282575,-100.00762951094839,-50.26321812771812
1658789959114077,-3.7537193865873633,-98.84794384679958,-52.09430075532168
1658789959130068,0.7019150072480898,-98.05447470817126,-54.35263599603263
1658789959146060,9.063859006637585,-97.32204165712983,-52.460517280842396
1658789959162052,10.833905546654478,-99.88555733577482,-52.82673380636311
1658789959178043,2.7771419851987957,-99.03105210955982,-52.277409018081926
1658789959194035,-7.537956816968062,-95.06370641641888,-47.69970244907313
1658789959210027,-14.007782101167322,-91.34050507362463,-42.69474326695672
1658789959226019,-13.824673838406852,-88.9600976577401,-38.60532539864198
1658789959242010,-10.955977721828049,-88.5938811322194,-39.398794537270305
1658789959258002,-9.308003356984727,-87.7393759060044,-38.72739757381555
1658789959273994,-4.119935912108076,-85.23689631494608,-34.088654917219856
1658789959289985,7.11070420386045,-82.97856107423513,-28.839551384756078
1658789959305977,17.059586480506596,-82.12405584802013,-24.811169604028237
1658789959321969,18.097199969481835,-84.26031891355751,-26.337071793697987
1658789959337960,9.613183794918768,-85.78622110322726,-28.229190508888223
1658789959353973,0.33569848172737693,-85.17586022735941,-24.628061341267994
1658789959369965,-5.462729839017356,-83.46684977492941,-21.27107652399468
1658789959385956,-9.002822919050914,-80.65918974593728,-19.9282825970854
1658789959401948,-10.833905546654478,-77.97360189211872,-18.89066910811016
1658789959417940,-14.80125123979542,-78.64499885557325,-23.285267414358714
1658789959433931,-11.01701380941472,-79.13328755626753,-24.200808728160382
1658789959449923,-1.0681315327688026,-78.15671015487897,-20.23346303501944
1658789959465915,9.979400320439481,-75.41008621347373,-17.059586480506596
1658789959481907,14.312962539101136,-72.6024261844816,-17.24269474326684
1658789959497898,10.833905546654478,-70.89341573205161,-17.36476691844041
1658789959513890,12.848096437018285,-68.57404440375376,-14.862287327382319
1658789959529882,16.754406042572555,-66.92607003891044,-9.369039444571627
1658789959545873,15.472648203250174,-66.07156481269544,-8.575570305943302
1658789959561865,9.308003356984727,-64.85084306095973,-9.613183794918768
1658789959577857,0.33569848172737693,-64.60669871061259,-9.308003356984727
1658789959593848,-2.9602502479590385,-63.20286869611664,-8.209353780422589
1658789959609840,-2.8992141603723667,-60.39520866712451,-4.119935912108076
1658789959625832,-5.279621576256886,-58.86930647745476,-2.410925459678083
1658789959641823,-9.246967269398056,-60.45624475471118,-4.364080262455218
1658789959657815,-12.787060349431613,-60.70038910505832,-6.256198977645454
1658789959673797,-11.261158159761862,-57.34340428778523,-5.462729839017356
1658789959689789,-8.148317692835917,-52.155336842908355,-4.42511635004189
1658789959705781,-7.598992904554734,-47.39452201113909,-4.669260700389032
1658789959721772,-6.927595941100208,-40.37537193865887,-3.7537193865873633
1658789959737764,-3.6316472114137923,-31.464103150988194,-2.288853284504512
1658789959753756,-0.5798428320745188,-23.529411764705856,-2.655069810025225
1658789959769747,-0.9460593575952316,-17.48683909361398,-5.523765926604028
1658789959785739,-4.486152437628789,-12.359807736324,-9.67421988250544
1658789959801731,-9.430075532158298,-4.180971999694748,-9.124895094224485
1658789959817722,-11.810482948043045,5.523765926604028,-6.012054627298312
1658789959833714,-12.481879911497572,14.190890363927565,-3.7537193865873633
1658789959849706,-10.162508583199724,18.524452582589447,-4.547188525215461
1658789959865697,-5.95101853971164,23.163195239185143,-3.3264667734797513
1658789959881689,-0.03051804379333589,29.14473182269012,0.2746623941404778
1658789959897681,5.706874189364498,36.163881895170334,2.5940337224383256
1658789959913673,7.721065079728305,42.633707179369594,3.3264667734797513
1658789959929664,5.2185854886702145,47.6997024490729,3.875791561760934
1658789959945656,2.166781109330941,51.728084229800515,4.486152437628789
1658789959961648,-0.7019150072480898,55.02403295948716,7.2938124666209205
1658789959977639,-2.532997634851654,57.70962081330572,9.491111619745197
1658789959993621,-2.9602502479590385,60.944533455405235,10.711833371480907
1658789960009613,-5.0354772259097444,64.48462653543947,12.4208438239109
1658789960025605,-4.669260700389032,68.51300831616709,13.64156557564661
1658789960041597,-0.5188067444876197,72.23620965896089,15.655756466010416
1658789960057588,5.95101853971164,74.7997253376061,18.58548867017612
1658789960073580,10.589761196307336,76.20355535210228,18.95170519569683
1658789960089572,13.885709925993751,78.27878233005276,18.280308232242305
1658789960105563,14.862287327382319,82.55130846112797,21.087968261234437
1658789960121555,15.350576028076603,86.45761806668224,24.383916990920852
1658789960137547,10.467689021133765,88.22766460669891,24.383916990920852
1658789960153538,4.119935912108076,89.08216983291368,23.773556115052997
1658789960169530,1.8005645838102282,90.97428854810414,25.116350041962278
1658789960185522,2.288853284504512,92.31708247501365,27.98504615854108
1658789960201513,4.364080262455218,93.35469596398889,28.96162355992965
1658789960217505,4.730296787975931,94.4533455405508,30.60959792477297
1658789960233497,3.7537193865873633,95.7961394674603,31.158922713053926
1658789960249488,1.4343480582895154,97.3830777447165,29.449912260623933
1658789960265480,5.584802014190927,99.58037689784078,30.4264896620125
1658789960281472,7.904173342488775,98.84794384679935,29.938200961318216
1658789960297464,2.4719615472647547,97.74929427023744,27.069504844739413
1658789960313446,1.8005645838102282,99.88555733577505,31.097886625467254
1658789960329437,8.51453421835663,102.38803692683314,36.95735103379866
1658789960345429,15.228503852903032,103.54772259098218,35.248340581368666
1658789960361421,18.82963302052326,103.18150606546124,32.19653620202939
1658789960377412,16.2050812542916,100.61799038681647,29.38887617303726
1658789960393404,11.261158159761862,99.94659342336172,29.999237048905115
1658789960409396,7.965209430075447,102.99839780270077,33.53933012893867
1658789960425387,6.012054627298312,104.70740825513076,35.37041275654224
1658789960441379,-0.33569848172737693,103.66979476615552,33.600366216525344
1658789960457371,-8.45349813076973,101.96078431372553,32.99000534065749
1658789960473363,-6.012054627298312,100.98420691233696,37.689784084840085
1658789960489354,0.03051804379333589,100.434882124056,38.36118104829461
1658789960505346,7.598992904554734,100.74006256198982,38.0560006103608
1658789960521338,10.650797283894008,97.93240253299791,36.89631494621176
1658789960537329,11.383230334935433,93.53780422674936,34.02761882963296
1658789960553321,1.6174563210497581,91.21843289845128,31.280994888227497
1658789960569313,-4.547188525215461,93.47676813916223,34.02761882963296
1658789960585304,-3.2043945983061803,93.84298466468317,38.30014496070794
1658789960601296,-5.645838101777599,87.98352025635177,34.76005188067438
1658789960617288,-13.58052948805971,82.2461280231937,30.975814450293683
1658789960633300,-15.167467765316132,80.3540093080037,32.257572289616064
1658789960649292,-9.246967269398056,81.5747310597394,37.32356755931937
1658789960665284,-0.2746623941404778,80.72022583352418,36.408026245517476
1658789960681275,9.002822919050914,77.36324101625087,32.501716639963206
1658789960697267,9.979400320439481,73.33485923552325,30.060273136491787
1658789960713259,4.974441138323073,71.8699931334404,29.755092698557974
1658789960729251,4.9134050507361735,72.29724574654801,34.08865491721963
1658789960745242,6.378271152819025,71.19859616998565,34.39383535515367
1658789960761234,5.76791027695117,66.74296177615042,32.01342793926892
1658789960777226,-1.4953841458761872,59.41863126573571,29.51094834821083
1658789960793217,-2.410925459678083,54.352635996032404,30.975814450293683
1658789960809209,-2.7161058976118966,50.446326390478134,30.4875257495994
1658789960825201,-2.105745021744042,46.784161135271006,25.665674830243233
1658789960841192,-5.645838101777599,39.70397497520389,20.11139085984587
1658789960857184,-6.256198977645454,29.999237048905115,15.350576028076603
1658789960873176,-4.9134050507361735,21.51522087434182,10.223544670786623
1658789960889167,-0.45777065690094787,16.388189517051842,7.232776379034021
1658789960905159,1.1902037079423735,9.063859006637585,6.134126802471883
1658789960921151,-2.7161058976118966,-1.0681315327688026,2.288853284504512
1658789960937142,-3.1433585107195086,-9.55214770733187,-0.09155413138023505
1658789960953094,2.5940337224383256,-17.36476691844041,-1.739528496223329
1658789960969086,1.4343480582895154,-27.80193789578084,-6.561379415579495
1658789960985077,-1.4343480582895154,-38.66636148622888,-13.397421225299468
1658789961001069,-3.814755474174035,-46.78416113527123,-19.256885633630873
1658789961017061,-4.486152437628789,-51.36186770428026,-24.01770046540014
1658789961033053,-8.45349813076973,-56.122682536049524,-29.08369573510322
1658789961049044,-13.275349050125897,-63.874265659571165,-35.431448844129136
1658789961065036,-12.298771648737329,-71.07652399481185,-39.398794537270305
1658789961081028,-7.843137254901876,-76.44769970244897,-41.71816586556815
1658789961097019,-3.570611123826893,-79.98779278248253,-42.38956282902268
1658789961113011,-1.8005645838102282,-84.93171587701227,-44.70893415732053
1658789961129003,-2.227817196917613,-89.69253070878153,-45.13618677042814
1658789961144994,-2.04470893415737,-91.5236133363851,-44.70893415732053
1658789961160986,-0.3967345693140487,-91.40154116121153,-41.59609369039458
1658789961176978,-2.7161058976118966,-92.98847943846795,-40.619516289006015
1658789961192969,-5.096513313496644,-96.95582513160912,-41.1078049897003
1658789961208961,-1.739528496223329,-98.23758297093173,-38.36118104829484
1658789961224953,1.983672846570471,-99.33623254749386,-36.713206683451745
1658789961240944,1.9226367589837992,-100.55695429922957,-37.68978408484031
1658789961256936,-0.8850232700083325,-102.02182040131243,-38.84946974898912
1658789961272949,0.8239871824216607,-102.51010910200671,-38.23910887312127
1658789961288941,1.5564202334630863,-102.57114518959338,-37.3235675593196
1658789961304932,1.5564202334630863,-103.24254215304813,-37.994964522774126
1658789961320924,5.462729839017356,-103.12046997787456,-36.652170595864845
1658789961336916,11.810482948043045,-105.19569695582527,-35.91973754482342
1658789961352907,10.833905546654478,-105.98916609445337,-36.835278858625315
1658789961368899,8.33142595559616,-104.34119172961027,-36.4080262455177
1658789961384891,1.3733119707026162,-104.09704737926313,-35.00419623102175
1658789961400882,-10.89494163424115,-105.50087739375908,-36.89631494621199
1658789961416874,-12.481879911497572,-102.87632562752742,-34.45487144274057
1658789961432866,-6.012054627298312,-101.16731517509743,-30.4875257495994
1658789961448857,-6.378271152819025,-103.48668650339528,-35.67559319447628
1658789961464849,-9.246967269398056,-104.03601129167623,-38.72739757381555
1658789961480841,-3.3875028610666504,-100.61799038681625,-34.69901579308771
1658789961496832,1.739528496223329,-98.2986190585184,-32.37964446478986
1658789961512824,7.537956816968062,-93.90402075226984,-29.755092698557974
1658789961528816,11.810482948043045,-92.13397421225295,-28.412298771648693
1658789961544808,16.632333867398984,-93.35469596398866,-28.717479209582507
1658789961560799,18.219272144655406,-95.67406729228674,-28.351262684061794
1658789961576791,12.603952086671143,-95.67406729228674,-28.351262684061794
1658789961592773,2.532997634851654,-90.6691081101701,-24.750133516441565
1658789961608765,-9.918364232852582,-84.99275196459894,-21.759365224688963
1658789961624756,-13.397421225299468,-81.33058670939181,-18.70756084534969
1658789961640748,-10.284580758373295,-81.025406271458,-17.24269474326684
1658789961656740,-3.875791561760934,-83.52788586251609,-18.89066910811016
1658789961672732,0.5798428320745188,-83.8941023880368,-19.9282825970854
1658789961688723,2.3498893720911838,-78.70603494316015,-15.472648203250174
1658789961704715,-0.213626306553806,-74.00625619897755,-12.909132524605184
1658789961720707,1.3122758831159445,-69.42854962996876,-12.726024261844714
1658789961736698,9.796292057679011,-66.92607003891044,-9.063859006637585
1658789961752690,13.76363775082018,-69.06233310444804,-10.528725108720437
1658789961768682,13.702601663233281,-69.36751354238186,-12.298771648737329
1658789961784673,12.359807736324,-67.04814221408401,-10.345616845960194
1658789961800665,6.622415503166167,-63.32494087129021,-10.040436408026153
1658789961816657,-1.8005645838102282,-58.44205386434737,-9.73525597009234
1658789961832648,-10.772869459067579,-55.024032959487386,-10.955977721828049
1658789961848640,-12.359807736324,-51.78912031738764,-10.528725108720437
1658789961864632,-9.979400320439481,-47.7607385366598,-8.270389868009488
1658789961880623,-6.195162890058782,-43.91546501869243,-9.063859006637585
1658789961896615,-5.157549401083315,-39.88708323796459,-10.162508583199724
1658789961912597,-4.730296787975931,-34.088654917219856,-8.575570305943302
1658789961928589,-6.805523765926637,-26.886396581978943,-5.645838101777599
1658789961944581,-7.904173342488775,-19.256885633630873,-1.739528496223329
1658789961960572,-6.256198977645454,-10.589761196307336,1.0070954451819034
1658789961976564,-4.60822461280236,-4.303044174868319,0.7629510948347615
1658789961992556,-4.058899824521177,0.15259021896690683,0.15259021896690683
1658789962008547,-2.4719615472647547,6.317235065232353,0.33569848172737693
1658789962024539,0.45777065690094787,13.885709925993751,2.288853284504512
1658789962040531,-0.7019150072480898,20.477607385366582,2.7161058976118966
1658789962056522,-3.0823224231326094,25.543602655069662,1.8005645838102282
1658789962072514,-5.2185854886702145,29.08369573510322,1.9226367589837992
1658789962088506,-6.683451590753066,33.96658274204606,4.058899824521177
1658789962104498,-4.9134050507361735,40.00915541313793,6.500343327992596
1658789962120489,-3.3264667734797513,45.07515068284101,7.721065079728305
1658789962136481,-2.7771419851987957,48.85938811322194,7.904173342488775
1658789962152473,-1.4953841458761872,52.033264667734784,9.063859006637585
1658789962168464,0.7019150072480898,56.183718623636196,13.214312962538997
1658789962184456,2.8381780727854675,61.00556954299191,16.937514305333025
1658789962200448,7.721065079728305,65.03395132372043,17.60891126878755
1658789962216439,7.2938124666209205,67.84161135271233,17.303730830853738
1658789962232422,7.11070420386045,70.58823529411802,18.219272144655406
1658789962248413,8.392462043183059,73.76211184863087,20.660715648126825
1658789962264405,10.101472495613052,76.81391622796991,22.919050888838
1658789962280397,10.345616845960194,80.29297322041657,23.041123064011572
1658789962296388,6.9886320286868795,82.12405584802036,21.210040436408008
1658789962312380,3.0823224231326094,83.89410238803703,21.33211261158158
1658789962328372,4.364080262455218,85.90829327840083,23.041123064011572
1658789962344363,6.500343327992596,87.86144808117797,25.48256656748299
1658789962360355,6.561379415579495,89.26527809567415,25.48256656748299
1658789962376347,2.5940337224383256,90.05874723430225,24.811169604028237
1658789962392338,3.4485389486533222,91.15739681086461,26.337071793697987
1658789962408330,3.5095750362402214,91.34050507362508,27.130540932326085
1658789962424322,1.1902037079423735,91.58464942397222,24.383916990920852
1658789962440313,-3.0212863355459376,91.88982986190604,24.505989166094423
1658789962456305,-3.7537193865873633,92.8664072632946,27.74090180819394
1658789962472297,-2.227817196917613,92.68329900053413,29.32784008545036
1658789962488289,-3.0823224231326094,92.7443350881208,28.412298771648693
1658789962504280,-2.3498893720911838,92.25604638742652,28.04608224612798
1658789962520272,1.0070954451819034,90.730144197757,29.26680399786369
1658789962536264,4.303044174868319,89.50942244602129,30.914778362706784
1658789962552276,3.1433585107195086,88.83802548256654,30.36545357442583
1658789962568268,-3.2043945983061803,90.18081940947604,29.20576791027679
1658789962584260,-2.7771419851987957,92.50019073777366,33.53933012893867
1658789962600251,2.288853284504512,90.730144197757,34.88212405584795
1658789962616243,4.730296787975931,87.86144808117797,32.440680552376534
1658789962632235,5.523765926604028,85.17586022735941,32.501716639963206
1658789962648226,6.561379415579495,86.27450980392177,35.248340581368666
1658789962664218,5.157549401083315,87.12901503013654,36.89631494621176
1658789962680210,6.805523765926637,87.55626764324415,37.93392843518723
1658789962696201,4.791332875562603,87.0069428549632,36.83527885862509
1658789962712193,1.6174563210497581,85.48104066529368,33.905546654459386
1658789962728185,3.1433585107195086,84.68757152666512,37.07942320897223
1658789962744176,4.974441138323073,82.30716411078083,37.628747997253186
1658789962760168,4.974441138323073,81.51369497215228,36.22491798275723
1658789962776160,-0.7019150072480898,80.65918974593751,36.77424277103819
1658789962792152,-10.711833371480907,79.74364843213561,35.30937666895534
1658789962808143,-14.373998626688035,79.37743190661513,37.689784084840085
1658789962824135,-9.002822919050914,77.05806057831705,39.82604715037746
1658789962840127,-0.6408789196611906,73.33485923552325,38.971541924162466
1658789962856118,4.974441138323073,68.75715266651423,36.89631494621176
1658789962872070,5.584802014190927,64.42359044785235,38.23910887312104
