Timestamp (microseconds),Accel X (g),Accel Y (g),Accel Z (g)
1658789936965454,0.1881742580300605,-0.39520866712443725,0.9452658884565501
1658789936981452,0.19842832074464045,-0.37042801556420235,0.9545433737697415
1658789936997450,0.19256885633630905,-0.37372396429388877,0.939894712748913
1658789937013449,0.19159227893492048,-0.387029831387808,0.9408712901503016
1658789937029447,0.1885404745555812,-0.40607309071488507,0.9495384145876251
1658789937045446,0.1931792172121769,-0.3906919966430151,0.9451438162813766
1658789937061444,0.19098191805905262,-0.39056992446784156,0.9513694972152287
1658789937077442,0.19427786678873904,-0.38678568703746086,0.9597924773022051
1658789937093441,0.19464408331425975,-0.386175326161593,0.9427023727779051
1658789937109439,0.1928130006866562,-0.38385595483329515,0.939040207522698
1658789937125437,0.1923247119859619,-0.3900816357671473,0.943312733653773
1658789937141436,0.18500038147554765,-0.3866636148622873,0.9403830014496073
1658789937157434,0.1890287632562755,-0.3849546044098573,0.9430685893034259
1658789937173432,0.1952544441901276,-0.38336766613260087,0.9436789501792937
1658789937189431,0.2003814755474176,-0.3886167696650644,0.9474631876096744
1658789937205429,0.18780804150453978,-0.3891050583657587,0.9237811856260016
1658789937221428,0.18719768062867193,-0.38434424353398944,0.9253681239032581
1658789937237426,0.18951705195696977,-0.3996032654306858,0.942458228427558
1658789937253424,0.19916075379568188,-0.38422217135881587,0.943312733653773
1658789937269423,0.19745174334325188,-0.37836270695048446,0.9423361562523844
1658789937285400,0.18951705195696977,-0.37628747997253376,0.9284199282825973
1658789937301398,0.18316929884794408,-0.3825131609063859,0.9177996490424967
1658789937317397,0.19122606240939977,-0.3954528114747844,0.9317158770122838
1658789937333395,0.1998931868467233,-0.38092622262912945,0.933913176165408
1658789937349393,0.20050354772259116,-0.38043793392843517,0.9468528267338066
1658789937365392,0.19964904249637616,-0.37543297474631876,0.9486839093614101
1658789937381390,0.19391165026321833,-0.38300144960708016,0.941603723201343
1658789937397389,0.19012741283283763,-0.3915465018692301,0.9317158770122838
1658789937413387,0.18402380407415908,-0.38678568703746086,0.9374532692454416
1658789937429385,0.18255893797207623,-0.3768978408484016,0.9268329900053409
1658789937445384,0.1902494850080112,-0.3698176546883345,0.9506370641641873
1658789937461382,0.19293507286182976,-0.3790951400015259,0.9580834668497751
1658789937477380,0.1957427328908219,-0.38471046005951015,0.9445334554055087
1658789937493379,0.19806210421911974,-0.38471046005951015,0.9365987640192266
1658789937509377,0.20233463035019472,-0.38605325398641943,0.9312275883115895
1658789937525375,0.19855039291981402,-0.3886167696650644,0.9447775997558558
1658789937541374,0.19330128938735047,-0.3845883878843366,0.9412375066758223
1658789937557372,0.1852445258258948,-0.3849546044098573,0.9431906614785994
1658789937573371,0.1873197528038455,-0.38043793392843517,0.937331197070268
1658789937589369,0.1890287632562755,-0.3915465018692301,0.9355001144426645
1658789937605346,0.19244678416113548,-0.3945983062485694,0.9278095674067295
1658789937621345,0.19647516594186332,-0.3991149767299915,0.9429465171282523
1658789937637343,0.2007476920729383,-0.3900816357671473,0.9461203936827651
1658789937653341,0.19549858854047475,-0.37970550087739374,0.9358663309681852
1658789937669340,0.18756389715419264,-0.39093614099336227,0.9351338979171437
1658789937685338,0.1801174944686048,-0.4021667811093308,0.9383077744716566
1658789937701336,0.18463416495002694,-0.39569695582513154,0.939894712748913
1658789937717335,0.1940337224383919,-0.384466315709163,0.9281757839322502
1658789937733333,0.19940489814602902,-0.37543297474631876,0.9224383916990924
1658789937749332,0.19171435111009405,-0.39765011062790867,0.9352559700923173
1658789937765330,0.19501029983978047,-0.3982604715037765,0.931349660486763
1658789937781328,0.19244678416113548,-0.4030212863355458,0.9376974135957887
1658789937797327,0.19305714503700333,-0.38934920271610585,0.9346456092164495
1658789937813325,0.18927290760662263,-0.3856870374608987,0.9167009994659345
1658789937829323,0.19073777370870548,-0.38141451132982374,0.9219501029983981
1658789937845322,0.19330128938735047,-0.3953307392996108,0.939894712748913
1658789937861320,0.18878461890592835,-0.3942320897230487,0.9582055390249486
1658789937877318,0.19366750591287119,-0.3811703669794766,0.9562523842221715
1658789937893317,0.18463416495002694,-0.3820248722056916,0.9357442587930116
1658789937909315,0.1873197528038455,-0.3894712748912794,0.9423361562523844
1658789937925201,0.19012741283283763,-0.39142442969405655,0.9405050736247809
1658789937941198,0.19977111467154973,-0.3757991912718395,0.9485618371862365
1658789937957196,0.18793011367971335,-0.38507667658503086,0.9448996719310294
1658789937973193,0.19012741283283763,-0.38385595483329515,0.9505149919890137
1658789937989191,0.1885404745555812,-0.39227893492027155,0.9506370641641873
1658789938005188,0.19220263981078833,-0.3789730678263523,0.955275806820783
1658789938021185,0.18780804150453978,-0.39386587319752797,0.9569848172732129
1658789938037183,0.18585488670176264,-0.38983749141680013,0.9439230945296408
1658789938053180,0.1823147936217291,-0.3932555123216601,0.9594262607766844
1658789938069178,0.18658731975280407,-0.3832455939574273,0.9469748989089801
1658789938085175,0.19513237201495404,-0.37177080949111163,0.9376974135957887
1658789938101173,0.19000534065766406,-0.38129243915465016,0.9307392996108952
1658789938117170,0.1864652475776305,-0.38263523308155944,0.939894712748913
1658789938133167,0.18402380407415908,-0.38141451132982374,0.9562523842221715
1658789938149165,0.1847562371252005,-0.3837338826581216,0.9538109407187001
1658789938165162,0.18951705195696977,-0.3848325322346837,0.939040207522698
1658789938181160,0.18695353627832478,-0.3915465018692301,0.9207293812466624
1658789938197157,0.1902494850080112,-0.3849546044098573,0.9247577630273902
1658789938213154,0.19085984588387905,-0.38385595483329515,0.9362325474937059
1658789938229152,0.18744182497901907,-0.3811703669794766,0.9324483100633252
1658789938245025,0.18548867017624193,-0.3865415426871137,0.9240253299763488
1658789938261023,0.18585488670176264,-0.39691767757686724,0.9280537117570766
1658789938277020,0.19415579461356547,-0.3953307392996108,0.9419699397268637
1658789938293017,0.1943999389639126,-0.3958190280003051,0.9405050736247809
1658789938309015,0.1957427328908219,-0.3906919966430151,0.9335469596398873
1658789938325012,0.1893949797817962,-0.3911802853437094,0.9345235370412759
1658789938341010,0.19256885633630905,-0.39142442969405655,0.9328145265888459
1658789938357007,0.18951705195696977,-0.38263523308155944,0.931349660486763
1658789938373005,0.19378957808804476,-0.38471046005951015,0.9247577630273902
1658789938389002,0.19122606240939977,-0.3925230792706187,0.9163347829404138
1658789938404999,0.19085984588387905,-0.3966735332265201,0.9380636301213094
1658789938420997,0.19122606240939977,-0.3945983062485694,0.9444113832303351
1658789938436994,0.18597695887693622,-0.39740596627756153,0.9488059815365837
1658789938452992,0.18658731975280407,-0.38971541924162656,0.9439230945296408
1658789938468989,0.17840848401617482,-0.387884336614023,0.9241474021515224
1658789938484986,0.1788967727168691,-0.387029831387808,0.9168230716411081
1658789938500984,0.17999542229343124,-0.3949645227740901,0.9284199282825973
1658789938516981,0.1973296711680783,-0.38812848096437014,0.9414816510261694
1658789938532979,0.19806210421911974,-0.38519874876020443,0.9624780651560236
1658789938548976,0.20233463035019472,-0.381902800030518,0.9540550850690472
1658789938564880,0.18487830930037408,-0.38971541924162656,0.9519798580910965
1658789938580877,0.17950713359273696,-0.3971618219272144,0.9490501258869308
1658789938596874,0.1823147936217291,-0.3942320897230487,0.9496604867627987
1658789938612871,0.17962920576791053,-0.3900816357671473,0.9507591363393608
1658789938628868,0.17865262836652196,-0.37677576867322804,0.9436789501792937
1658789938644865,0.18329137102311766,-0.3825131609063859,0.9571068894483865
1658789938660862,0.18805218585488692,-0.38226901655603873,0.9556420233463037
1658789938676859,0.19501029983978047,-0.3903257801174944,0.9564965285725187
1658789938692855,0.18707560845349835,-0.39777218280308224,0.9440451667048144
1658789938708852,0.18377965972381194,-0.3825131609063859,0.9301289387350273
1658789938724849,0.18219272144655552,-0.38812848096437014,0.9479514763103687
1658789938740846,0.1847562371252005,-0.3892271305409323,0.9589379720759901
1658789938756843,0.18841840238040763,-0.38812848096437014,0.9489280537117573
1658789938772840,0.18963912413214334,-0.3764095521477073,0.9218280308232245
1658789938788837,0.18109407186999338,-0.38507667658503086,0.919142442969406
1658789938804834,0.18084992751964624,-0.3920347905699244,0.930495155260548
1658789938820831,0.1876859693293662,-0.38056000610360874,0.9419699397268637
1658789938836828,0.19452201113908618,-0.3789730678263523,0.9627222095063708
1658789938852825,0.1890287632562755,-0.39276722362096583,0.9463645380331123
1658789938868822,0.18133821622034052,-0.3892271305409323,0.9341573205157552
1658789938884735,0.18487830930037408,-0.39056992446784156,0.9499046311131458
1658789938900731,0.1914702067597469,-0.3837338826581216,0.9505149919890137
1658789938916728,0.18927290760662263,-0.3757991912718395,0.943312733653773
1658789938932724,0.1911039902342262,-0.3723811703669795,0.9417257953765166
1658789938948721,0.19183642328526762,-0.3894712748912794,0.9542992294193944
1658789938964717,0.1881742580300605,-0.4037537193865872,0.9606469825284201
1658789938980713,0.18878461890592835,-0.39655146105134653,0.9534447241931794
1658789938996710,0.18707560845349835,-0.39349965667200726,0.9362325474937059
1658789939012706,0.19256885633630905,-0.382757305256733,0.9246356908522166
1658789939028703,0.18841840238040763,-0.38898298619058513,0.9342793926909287
1658789939044699,0.1873197528038455,-0.3978942549782558,0.9464866102082858
1658789939060696,0.1864652475776305,-0.3877622644388494,0.9438010223544673
1658789939076692,0.18841840238040763,-0.3837338826581216,0.9198748760204474
1658789939092689,0.1852445258258948,-0.39142442969405655,0.9256122682536052
1658789939108685,0.1893949797817962,-0.4026550698100251,0.9451438162813766
1658789939124682,0.1902494850080112,-0.39398794537270154,0.9473411154345008
1658789939140678,0.1890287632562755,-0.3837338826581216,0.9370870527199209
1658789939156674,0.19073777370870548,-0.38519874876020443,0.9386739909971773
1658789939172671,0.19171435111009405,-0.39777218280308224,0.9341573205157552
1658789939188667,0.19549858854047475,-0.39740596627756153,0.9436789501792937
1658789939204559,0.19513237201495404,-0.3932555123216601,0.9445334554055087
1658789939220555,0.18878461890592835,-0.3945983062485694,0.9428244449530787
1658789939236551,0.18707560845349835,-0.38678568703746086,0.931349660486763
1658789939252547,0.19269092851148262,-0.3806820782787823,0.932204165712978
1658789939268543,0.19476615548943332,-0.3891050583657587,0.9440451667048144
1658789939284539,0.19208056763561476,-0.3856870374608987,0.9508812085145344
1658789939300535,0.1914702067597469,-0.391302357518883,0.9512474250400551
1658789939316531,0.19208056763561476,-0.38690775921263443,0.9217059586480509
1658789939332527,0.1940337224383919,-0.3882505531395437,0.918287937743191
1658789939348523,0.19720759899290474,-0.3967956054016937,0.948439765011063
1658789939364519,0.1914702067597469,-0.38764019226367585,0.9480735484855423
1658789939380515,0.1986724650949876,-0.3815365835049973,0.9335469596398873
1658789939396511,0.1906157015335319,-0.3714045929655909,0.9118181124589917
1658789939412507,0.19427786678873904,-0.37091630426489663,0.9268329900053409
1658789939428503,0.18597695887693622,-0.37970550087739374,0.9355001144426645
1658789939444499,0.18316929884794408,-0.3945983062485694,0.9380636301213094
1658789939460495,0.17987335011825767,-0.3916685740444037,0.9325703822384988
1658789939476491,0.18670939192797764,-0.37921721217669946,0.9259784847791259
1658789939492487,0.18976119630731692,-0.3823910887312123,0.9406271457999544
1658789939508483,0.1940337224383919,-0.3866636148622873,0.9445334554055087
1658789939524414,0.19916075379568188,-0.3825131609063859,0.9427023727779051
1658789939540410,0.19537651636530118,-0.3816586556801709,0.947585259784848
1658789939556406,0.19391165026321833,-0.38214694438086516,0.9494163424124515
1658789939572402,0.18402380407415908,-0.38727397573815514,0.9412375066758223
1658789939588398,0.18487830930037408,-0.38678568703746086,0.9368429083695737
1658789939604394,0.1914702067597469,-0.3854428931105516,0.9516136415655758
1658789939620390,0.19501029983978047,-0.3858091096360723,0.964919508659495
1658789939636386,0.19842832074464045,-0.3856870374608987,0.9613794155794615
1658789939652382,0.18890669108110192,-0.37592126344701304,0.9204852368963152
1658789939668378,0.1885404745555812,-0.3925230792706187,0.935622186617838
1658789939684373,0.1906157015335319,-0.3963073167009994,0.9481956206607158
1658789939700369,0.19476615548943332,-0.3803158617532616,0.9372091248950944
1658789939716365,0.19073777370870548,-0.3873960479133287,0.9402609292744337
1658789939732361,0.18927290760662263,-0.38300144960708016,0.9333028152895402
1658789939748357,0.18365758754863837,-0.3954528114747844,0.9402609292744337
1658789939764353,0.18634317540245693,-0.3899595635919737,0.9417257953765166
1658789939780349,0.18744182497901907,-0.38300144960708016,0.9340352483405816
1658789939796345,0.18622110322728336,-0.3920347905699244,0.9367208361944002
1658789939812341,0.19391165026321833,-0.3837338826581216,0.9326924544136723
1658789939828337,0.1952544441901276,-0.386175326161593,0.9401388570992602
1658789939844238,0.19354543373769761,-0.38056000610360874,0.9326924544136723
1658789939860233,0.1919584954604412,-0.3906919966430151,0.9417257953765166
1658789939876229,0.18622110322728336,-0.3987487602044708,0.942458228427558
1658789939892224,0.18988326848249049,-0.38092622262912945,0.9342793926909287
1658789939908220,0.19122606240939977,-0.37970550087739374,0.9389181353475244
1658789939924215,0.18890669108110192,-0.391302357518883,0.9524681467917908
1658789939940211,0.18805218585488692,-0.39935912108033866,0.9546654459449151
1658789939956206,0.18927290760662263,-0.3892271305409323,0.9351338979171437
1658789939972202,0.19745174334325188,-0.3698176546883345,0.9314717326619366
1658789939988197,0.19513237201495404,-0.3900816357671473,0.9447775997558558
1658789940004193,0.18915083543144906,-0.39655146105134653,0.9579613946746015
1658789940020188,0.19000534065766406,-0.39520866712443725,0.9444113832303351
1658789940036184,0.1881742580300605,-0.3854428931105516,0.9308613717860688
1658789940052179,0.1881742580300605,-0.3727473868925002,0.9267109178301673
1658789940068175,0.18463416495002694,-0.38556496528572515,0.9368429083695737
1658789940084170,0.18890669108110192,-0.3920347905699244,0.9440451667048144
1658789940100166,0.18793011367971335,-0.3828793774319066,0.9282978561074238
1658789940116161,0.18744182497901907,-0.38214694438086516,0.9295185778591595
1658789940132157,0.1839017318989855,-0.39765011062790867,0.9507591363393608
1658789940148152,0.18805218585488692,-0.3941100175478751,0.9496604867627987
1658789940164032,0.1860990310521098,-0.39606317235065225,0.9326924544136723
1658789940180027,0.19049362935835834,-0.38336766613260087,0.9328145265888459
1658789940196022,0.19134813458457334,-0.3749446860456245,0.9374532692454416
1658789940212017,0.18805218585488692,-0.3820248722056916,0.9451438162813766
1658789940228012,0.18695353627832478,-0.39105821316853584,0.9422140840772109
1658789940244007,0.18780804150453978,-0.3988708323796444,0.9397726405737394
1658789940260002,0.1885404745555812,-0.3866636148622873,0.9528343633173115
1658789940275997,0.19073777370870548,-0.3886167696650644,0.9533226520180058
1658789940291992,0.19513237201495404,-0.38971541924162656,0.9385519188220037
1658789940307987,0.19244678416113548,-0.4028992141603722,0.947585259784848
1658789940323982,0.18695353627832478,-0.3988708323796444,0.9414816510261694
1658789940339977,0.18719768062867193,-0.38556496528572515,0.9438010223544673
1658789940355972,0.1906157015335319,-0.38934920271610585,0.9521019302662701
1658789940371967,0.19171435111009405,-0.38422217135881587,0.9464866102082858
1658789940387962,0.18829633020523406,-0.39191271839475084,0.9357442587930116
1658789940403957,0.1826810101472498,-0.3925230792706187,0.935622186617838
1658789940419952,0.18536659800106836,-0.3949645227740901,0.9359884031433587
1658789940435947,0.18622110322728336,-0.39264515144579226,0.9408712901503016
1658789940451942,0.19171435111009405,-0.383611810482948,0.9448996719310294
1658789940467937,0.18780804150453978,-0.38715190356298157,0.928786144808118
1658789940483886,0.19037155718318477,-0.3950865949492637,0.9234149691004809
1658789940499881,0.19085984588387905,-0.3970397497520408,0.9344014648661023
1658789940515876,0.18951705195696977,-0.385320820935378,0.9418478675516901
1658789940531871,0.18780804150453978,-0.3786068513008316,0.9275654230563823
1658789940547866,0.18463416495002694,-0.38849469748989085,0.9312275883115895
1658789940563861,0.18377965972381194,-0.4005798428320744,0.9430685893034259
1658789940579856,0.19354543373769761,-0.38507667658503086,0.9477073319600215
1658789940595852,0.19208056763561476,-0.3877622644388494,0.9257343404287788
1658789940611847,0.18951705195696977,-0.3908140688181887,0.9280537117570766
1658789940627842,0.18829633020523406,-0.3924010070954451,0.9336690318150609
1658789940643837,0.19415579461356547,-0.3916685740444037,0.9436789501792937
1658789940659832,0.19330128938735047,-0.38605325398641943,0.9442893110551616
1658789940675827,0.19037155718318477,-0.3866636148622873,0.9319600213626309
1658789940691822,0.18536659800106836,-0.3906919966430151,0.9361104753185323
1658789940707817,0.18695353627832478,-0.3854428931105516,0.9485618371862365
1658789940723812,0.1911039902342262,-0.3854428931105516,0.9422140840772109
1658789940739807,0.19171435111009405,-0.3908140688181887,0.9497825589379723
1658789940755802,0.18634317540245693,-0.386175326161593,0.9486839093614101
1658789940771797,0.18255893797207623,-0.39520866712443725,0.9491721980621044
1658789940787792,0.18927290760662263,-0.3911802853437094,0.9506370641641873
1658789940803741,0.1961089494163426,-0.38092622262912945,0.9480735484855423
1658789940819736,0.1957427328908219,-0.38519874876020443,0.9513694972152287
1658789940835730,0.1873197528038455,-0.3925230792706187,0.9429465171282523
1658789940851725,0.1839017318989855,-0.3937438010223544,0.9293965056839859
1658789940867719,0.18573281452658907,-0.38934920271610585,0.9319600213626309
1658789940883714,0.18988326848249049,-0.3794613565270466,0.9491721980621044
1658789940899708,0.18548867017624193,-0.3873960479133287,0.9409933623254751
1658789940915703,0.17901884489204267,-0.38983749141680013,0.9188982986190588
1658789940931697,0.1830472266727705,-0.3920347905699244,0.9245136186770431
1658789940947692,0.19171435111009405,-0.392156862745098,0.9405050736247809
1658789940963687,0.19562066071564832,-0.3820248722056916,0.9430685893034259
1658789940979681,0.19293507286182976,-0.3933775844968337,0.9445334554055087
1658789940995676,0.18744182497901907,-0.38764019226367585,0.932204165712978
1658789941011670,0.18500038147554765,-0.3882505531395437,0.9383077744716566
1658789941027665,0.18500038147554765,-0.39056992446784156,0.933058670939193
1658789941043659,0.18536659800106836,-0.3894712748912794,0.9328145265888459
1658789941059654,0.18719768062867193,-0.3894712748912794,0.942458228427558
1658789941075648,0.18915083543144906,-0.3839780270084687,0.9365987640192266
1658789941091643,0.19012741283283763,-0.37006179903868164,0.9217059586480509
1658789941107638,0.1839017318989855,-0.39765011062790867,0.9406271457999544
1658789941123565,0.1856107423514155,-0.4105897611963072,0.9453879606317237
1658789941139560,0.19305714503700333,-0.39435416189822226,0.936476691844053
1658789941155554,0.1876859693293662,-0.38385595483329515,0.9386739909971773
1658789941171549,0.18219272144655552,-0.3924010070954451,0.951003280689708
1658789941187543,0.18548867017624193,-0.39227893492027155,0.9495384145876251
1658789941203538,0.19256885633630905,-0.3911802853437094,0.9517357137407494
1658789941219533,0.1914702067597469,-0.3906919966430151,0.9478294041351951
1658789941235527,0.18463416495002694,-0.3899595635919737,0.9274433508812088
1658789941251522,0.1818265049210348,-0.3866636148622873,0.9351338979171437
1658789941267516,0.18878461890592835,-0.38336766613260087,0.9401388570992602
1658789941283511,0.1881742580300605,-0.391302357518883,0.948439765011063
1658789941299505,0.18695353627832478,-0.39655146105134653,0.9568627450980394
1658789941315500,0.18207064927138195,-0.3916685740444037,0.936476691844053
1658789941331494,0.18548867017624193,-0.3837338826581216,0.9335469596398873
1658789941347489,0.18707560845349835,-0.3915465018692301,0.948439765011063
1658789941363484,0.1860990310521098,-0.38800640878919657,0.9474631876096744
1658789941379478,0.1860990310521098,-0.382757305256733,0.9401388570992602
1658789941395473,0.1830472266727705,-0.38263523308155944,0.9386739909971773
1658789941411467,0.18133821622034052,-0.3949645227740901,0.9496604867627987
1658789941427462,0.1893949797817962,-0.3908140688181887,0.9423361562523844
1658789941443390,0.19122606240939977,-0.40070191500724794,0.9542992294193944
1658789941459384,0.19073777370870548,-0.3925230792706187,0.9502708476386665
1658789941475378,0.1868314641031512,-0.37970550087739374,0.9326924544136723
1658789941491372,0.18548867017624193,-0.3837338826581216,0.9385519188220037
1658789941507366,0.18414587624933265,-0.3933775844968337,0.9369649805447473
1658789941523360,0.1868314641031512,-0.39899290455481795,0.9480735484855423
1658789941539354,0.18927290760662263,-0.39935912108033866,0.9568627450980394
1658789941555348,0.19354543373769761,-0.38178072785534445,0.945876249332418
1658789941571342,0.18695353627832478,-0.3849546044098573,0.9409933623254751
1658789941587336,0.18207064927138195,-0.38898298619058513,0.9406271457999544
1658789941603330,0.18585488670176264,-0.39642938887617296,0.9491721980621044
1658789941619324,0.19098191805905262,-0.3959411001754787,0.9748073548485543
1658789941635318,0.2091706721599147,-0.40607309071488507,1.008743419546807
1658789941651312,0.201968413824674,-0.42255283436331714,1.0323033493553062
1658789941667307,0.20257877470054186,-0.42670328831921855,1.0315709163042648
1658789941683301,0.18915083543144906,-0.42169832913710215,1.023270008392462
1658789941699295,0.18695353627832478,-0.41742580300602716,1.0160677500572213
1658789941715289,0.1961089494163426,-0.42511635004196213,1.0334019989318683
1658789941731283,0.20306706340123615,-0.45038529030289176,1.0661173418783854
1658789941747277,0.2112458991378654,-0.46137178606851315,1.0686808575570304
1658789941763244,0.21393148699168396,-0.44879835202563534,1.0475623712520026
1658789941779238,0.2167391470206761,-0.4396429388876175,1.016433966582742
1658789941795232,0.22125581750209822,-0.4442816815442132,1.034378576333257
1658789941811226,0.24225223163195242,-0.4276798657206071,1.031815060654612
1658789941827221,0.26068513008316163,-0.42084382391088715,1.0202182040131227
1658789941843215,0.26276035706111234,-0.4210879682612343,1.001907377737087
1658789941859209,0.26398107881284805,-0.39691767757686724,0.9792019531548029
1658789941875203,0.25799954222934307,-0.41742580300602716,0.9694361791409172
1658789941891197,0.25763332570382236,-0.4264591439688714,0.96406500343328
1658789941907191,0.26654459449149304,-0.43305104142824424,0.9875028610666057
1658789941923185,0.27032883192187374,-0.41547264820325003,0.96919203479057
1658789941939179,0.27228198672465087,-0.40448615243762864,0.9459983215075916
1658789941955173,0.27313649195086587,-0.3900816357671473,0.9472190432593273
1658789941971167,0.28754100862134724,-0.3945983062485694,0.9417257953765166
1658789941987161,0.29254596780346365,-0.4035095750362401,0.933058670939193
1658789942003155,0.3081712062256807,-0.3997253376058594,0.937331197070268
1658789942019149,0.3246509498741128,-0.40656137941557935,0.9481956206607158
1658789942035143,0.32990005340657635,-0.4043640802624551,0.9206073090714888
1658789942051138,0.34076447699702417,-0.3886167696650644,0.8979018844892046
1658789942067132,0.35260547798886055,-0.3753109025711452,0.9041275654230567
1658789942083068,0.35345998321507555,-0.3613946746013581,0.8919203479056996
1658789942099063,0.3600518806744484,-0.354314488441291,0.8942397192339975
1658789942115057,0.36810864423590406,-0.36200503547722596,0.8908216983291375
1658789942131051,0.3851987487602049,-0.37677576867322804,0.8769054703593504
1658789942147045,0.39154650186923057,-0.3866636148622873,0.8867933165484096
1658789942163039,0.395696955825132,-0.3748226138704509,0.877882047760739
1658789942179033,0.41730373083085404,-0.35407034409094384,0.8944838635843446
1658789942195027,0.4148622873273826,-0.3908140688181887,0.9212176699473567
1658789942211021,0.4304875257495997,-0.39862668802929724,0.9237811856260016
1658789942227015,0.43817807278553467,-0.3832455939574273,0.9110856794079503
1658789942243009,0.44415960936903964,-0.3916685740444037,0.9042496375982303
1658789942259003,0.458564126039521,-0.3743343251697566,0.8845960173952854
1658789942274997,0.4518501564049746,-0.3781185626001373,0.8717784390020595
1658789942290991,0.4652780956740674,-0.3770199130235752,0.894361791409171
1658789942306985,0.4721141374837874,-0.38043793392843517,0.9219501029983981
1658789942322980,0.47687495231555665,-0.3928892957961394,0.9164568551155874
1658789942338974,0.48908216983291375,-0.38983749141680013,0.8921644922560468
1658789942354968,0.501533531700618,-0.386175326161593,0.831250476844434
1658789942370962,0.5193560692759593,-0.37885099565117875,0.8550545510032803
1658789942386956,0.5415732051575493,-0.39179064621957727,0.8913099870298318
1658789942402893,0.5514610513466085,-0.392156862745098,0.8853284504463268
1658789942418886,0.5623254749370563,-0.39472037842374297,0.867383840695811
1658789942434880,0.5730678263523306,-0.37714198519874875,0.8377203021286332
1658789942450873,0.5825894560158691,-0.37213702601663234,0.8228274967574576
1658789942466867,0.592843518730449,-0.40033569848172723,0.8466315709163039
1658789942482861,0.5867399099717705,-0.4245059891660943,0.904615854123751
1658789942498854,0.6001678492408633,-0.42133211261158143,0.9207293812466624
1658789942514848,0.5940642404821848,-0.3941100175478751,0.8899671931029225
1658789942530841,0.5967498283360033,-0.40912489509422434,0.8369878690775918
1658789942546835,0.5872281986724648,-0.3891050583657587,0.7790035858701456
1658789942562829,0.5884489204242005,-0.3579766536964981,0.7724116884107728
1658789942578822,0.6074921797512776,-0.3211108567940797,0.7931639581902798
1658789942594816,0.6491187914854661,-0.3226977950713361,0.8067139696345462
1658789942610809,0.6685282673380639,-0.3450370031280996,0.7432364385442893
1658789942626803,0.6933089188982988,-0.32220950637064183,0.7039291981383995
1658789942642797,0.6945296406500345,-0.3396658274204625,0.7038071259632259
1658789942658790,0.7050278477149616,-0.3295338368810561,0.6768291752498667
1658789942674784,0.7333485923552301,-0.30768291752498644,0.610788128480964
1658789942690777,0.7360341802090486,-0.3316090638590068,0.6265354390783555
1658789942706771,0.7442130159456779,-0.2976729991607536,0.6421606775005726
1658789942722747,0.728831921873808,-0.2796063172350651,0.5175249866483558
1658789942738741,0.721995880064088,-0.26642252231631947,0.48615243762874805
1658789942754735,0.7339589532310979,-0.24884412909132525,0.5232623788815136
1658789942770728,0.7342030975814451,-0.24432745860990313,0.5263141832608529
1658789942786722,0.7378652628366522,-0.22015716792553608,0.4389105058365761
1658789942802715,0.7542229343099107,-0.2048981460288397,0.3428397039749749
1658789942818709,0.7468986037994965,-0.2208896009765775,0.32281986724650924
1658789942834703,0.7561760891126879,-0.25384908827344166,0.39423208972304913
1658789942850696,0.7627679865720607,-0.28278019378957797,0.3687190051117719
1658789942866690,0.7871824216067749,-0.22284275577935464,0.3770199130235756
1658789942882683,0.8297856107423511,-0.18475623712520006,0.3247730220492864
1658789942898677,0.8030518043793391,-0.21271076523994825,0.2565346761272602
1658789942914671,0.7984130617227434,-0.25726710917830165,0.23956664377813386
1658789942930664,0.789990081635767,-0.2982833600366215,0.25970855268177306
1658789942946658,0.7893797207598992,-0.25128557259479667,0.21661707484550252
1658789942962651,0.8336919203479054,-0.12823682001983672,0.17694361791409197
1658789942978645,0.8368657969024182,-0.14959945067521163,0.18084992751964624
1658789942994639,0.819287403677424,-0.21747158007171752,0.11566338597695847
1658789943010632,0.8468757152666511,-0.1885404745555812,0.13556115053025142
1658789943026626,0.852857251850156,-0.15497062638284875,0.14044403753719426
1658789943042572,0.8543221179522389,-0.15204089417868305,0.1289692530708786
1658789943058565,0.8487067978942546,-0.18793011367971335,0.06793316548409223
1658789943074559,0.8451667048142211,-0.20514229037918685,0.022156099794003126
1658789943090552,0.8540779736018917,-0.1995269703212026,0.05426108186465228
1658789943106546,0.850293736171511,-0.1392233157854581,0.006530861371786045
1658789943122540,0.8468757152666511,-0.15863279163805588,-0.03717097734035235
1658789943138533,0.8257572289616233,-0.1986724650949876,-0.0733043411917298
1658789943154527,0.8419928282597082,-0.17486839093614082,-0.1471580071717402
1658789943170520,0.8543221179522389,-0.13983367666132596,-0.1990386816205083
1658789943186514,0.8377203021286332,-0.16375982299534586,-0.21441977569237824
1658789943202508,0.8189211871519033,-0.16583504997329657,-0.23920042725261315
1658789943218501,0.8344243533989468,-0.15045395590142663,-0.29889372091248934
1658789943234495,0.8610360875867853,-0.12726024261844815,-0.36920729381246664
1658789943250488,0.9000991836423289,-0.08416876478217761,-0.45624475471122317
1658789943266482,0.9019302662699324,-0.08453498130769832,-0.5084916456855115
1658789943282476,0.8990005340657667,-0.07489127946898622,-0.5153276874952315
1658789943298469,0.9043717097734039,-0.031189440756847375,-0.5525597009231706
1658789943314463,0.8865491721980625,-0.018127718013275285,-0.635080491340505
1658789943330456,0.8634775310902567,-0.029602502479590953,-0.6970931563286795
1658789943346450,0.8493171587701225,-0.017273212787060288,-0.784008545052262
1658789943362426,0.8570077058060575,-0.006775005722133187,-0.7645990691996642
1658789943378420,0.8507820248722053,-0.03546196688792236,-0.7943846799420156
1658789943394413,0.8574959945067517,-0.03045700770580595,-0.8109864957656212
1658789943410406,0.8653086137178603,-0.029480430304417382,-0.8157473105973909
1658789943426399,0.871656366826886,-0.01739528496223386,-0.7665522240024414
1658789943442392,0.8828870069428554,0.013488975356679589,-0.7218738078889144
1658789943458385,0.8865491721980625,-0.002990768291752488,-0.7020981155107959
1658789943474378,0.8843518730449382,-0.032410162508583085,-0.6900129701686124
1658789943490371,0.8726329442282745,-0.03289845120927737,-0.6652323186083771
1658789943506364,0.8618905928130003,-0.003112840466926059,-0.615182726787213
1658789943522358,0.8461432822156096,-0.012024109254596738,-0.5864957656214238
1658789943538351,0.8366216525520711,-0.022156099794003126,-0.5473105973907071
1658789943554344,0.8272220950637061,-0.013122758831158876,-0.5425497825589378
1658789943570337,0.8236820019836726,-0.02777141985198739,-0.45050736247806533
1658789943586330,0.8256351567864497,-0.03729304951552592,-0.428290226596475
1658789943602323,0.8134279392690926,-0.07574578469520121,-0.40949111161974505
1658789943618316,0.8142824444953076,-0.08404669260700404,-0.3751888303959716
1658789943634309,0.8180666819256883,-0.1068741893644618,-0.3283131151293204
1658789943650303,0.8140383001449605,-0.09295796139467472,-0.28790722514686795
1658789943666296,0.8079346913862819,-0.07891966124971406,-0.2730144197756923
1658789943682220,0.7952391851682306,-0.11944762340733961,-0.22577248798352034
1658789943698213,0.7941405355916684,-0.12530708781567101,-0.1715724422064544
1658789943714206,0.7841306172274356,-0.13531700617990383,-0.1669336995498587
1658789943730199,0.7644769970244907,-0.12054627298390175,-0.1433737697413595
1658789943746193,0.7584954604409857,-0.10894941634241251,-0.08355840390630975
1658789943762186,0.7523918516823072,-0.15680170901045232,0.0014038300144960658
1658789943778179,0.7445792324711986,-0.1837796597238115,0.05889982452124798
1658789943794172,0.7327382314793622,-0.1698634317540244,0.07367055771725006
1658789943810165,0.7477531090257115,-0.14435034714274808,0.1448386358434428
1658789943826158,0.7280994888227665,-0.18915083543144906,0.2146639200427254
1658789943842151,0.6946517128252081,-0.22821393148699176,0.27106126497291516
1658789943858144,0.692698558022431,-0.1774319066147858,0.274235141527428
1658789943874138,0.6784161135271232,-0.1832913710231172,0.3344167238879985
1658789943890131,0.6846417944609753,-0.17401388570992582,0.4632028686961167
1658789943906124,0.6737773708705275,-0.22858014801251247,0.5479209582665749
1658789943922117,0.6651102464332039,-0.23663691157396816,0.5810025177386127
1658789943938110,0.6543678950179297,-0.18109407186999293,0.5745326924544134
1658789943954103,0.6610818646524761,-0.16156252384222158,0.6530251010910204
1658789943970096,0.6460669871061269,-0.2453040360112917,0.7437247272449836
1658789943986089,0.6253147173266198,-0.26178377965972377,0.7079575799191273
1658789944002075,0.6094453345540547,-0.1973296711680783,0.7023422598611431
1658789944018068,0.5891813534752419,-0.18597695887693577,0.796826123445487
1658789944034061,0.5587853818570228,-0.2960860608834972,0.8921644922560468
1658789944050054,0.558419165331502,-0.27777523460746156,0.8290531776913097
1658789944066047,0.5651331349660484,-0.22491798275730535,0.6914778362706953
1658789944082040,0.5434042877851528,-0.21258869306477468,0.7082017242694745
1658789944098034,0.5069047074082551,-0.23639276722362101,0.8687266346227203
1658789944114027,0.4652780956740674,-0.31122301060502,1.0188754100862134
1658789944130020,0.4614938582436867,-0.31500724803540114,0.99140917067216
1658789944146013,0.44708934157320535,-0.26105134660868234,0.8417486839093611
1658789944162006,0.4586861982146946,-0.20172426947432687,0.8478522926680396
1658789944177999,0.42023346303501974,-0.26312657358663305,0.9715114061188679
1658789944193992,0.39069199664301557,-0.2843671320668344,0.9976348516060121
1658789944209985,0.40009155413138053,-0.25421530479896237,0.9689478904402229
1658789944225978,0.41547264820325047,-0.27911802853437084,0.9655298695353629
1658789944241972,0.3985046158541241,-0.33051041428244465,0.9519798580910965
1658789944257965,0.40131227588311624,-0.34686808575570316,0.9506370641641873
1658789944273958,0.3775082017242699,-0.37421225299458305,0.9824979018844893
1658789944289951,0.3898374914168006,-0.40399786373693436,1.0507362478065154
1658789944305944,0.40216678110933124,-0.3886167696650644,1.0731975280384525
1658789944321899,0.4061951628900591,-0.39105821316853584,1.0919966430151824
1658789944337892,0.3805600061036092,-0.3975280384527351,1.1708552681773101
1658789944353885,0.3843442435339899,-0.4268253604943921,1.2209048599984742
1658789944369878,0.37274738689249975,-0.46393530174715814,1.2571602960250248
1658789944385872,0.391424429694057,-0.49115739681086446,1.3413900968947887
1658789944401865,0.4115663385976962,-0.5021438925764858,1.4429541466392006
1658789944417858,0.38702983138780844,-0.5707484550240332,1.5030136568245975
1658789944433851,0.3632257572289612,-0.6745098039215685,1.525352864881361
1658789944449844,0.36652170595864764,-0.7387197680628672,1.5653925383382923
1658789944465837,0.4039978637369348,-0.718577859159228,1.5646601052872509
1658789944481830,0.42645914396887186,-0.7387197680628672,1.5533073929961088
1658789944497823,0.4225528343633176,-0.7587396047913328,1.5004501411459525
1658789944513816,0.4090028229190512,-0.7445792324711986,1.44600595101854
1658789944529810,0.41425192645151476,-0.6942854962996874,1.4206149385824371
1658789944545803,0.40497444113832337,-0.6596169985503928,1.3473716334782937
1658789944561796,0.387151903562982,-0.6846417944609748,1.2810864423590447
1658789944577789,0.3766536964980549,-0.6642557412069885,1.2222476539253835
1658789944593782,0.3745784695201033,-0.6184786755168994,1.204180971999695
1658789944609775,0.3747005416952769,-0.5957732509346152,1.1813534752422372
1658789944625768,0.3902037079423213,-0.5974822613870452,1.096635385671778
1658789944641723,0.40582894636453837,-0.5651331349660489,1.0569619287403675
1658789944657716,0.41522850385290333,-0.5010452429999237,1.0124055848020141
1658789944673709,0.4079041733424891,-0.4614938582436867,0.9511253528648815
1658789944689701,0.3993591210803391,-0.48358892195010306,0.9040054932478832
1658789944705694,0.39960326543068625,-0.46051728084229815,0.9355001144426645
1658789944721686,0.4122987716487376,-0.384466315709163,0.8791027695124747
1658789944737679,0.4146181429770355,-0.3257495994506754,0.7737544823376821
1658789944753672,0.4376897840848404,-0.33295185778591607,0.7077134355687802
1658789944769664,0.45795376516365316,-0.37262531471732663,0.6754863813229575
1658789944785657,0.4837109941252766,-0.355168993667506,0.7234607461661708
1658789944801650,0.5166704814221408,-0.32928969253070894,0.7018539711604488
1658789944817642,0.5355916685740443,-0.2792401007095444,0.5680628671702141
1658789944833635,0.5676966506446934,-0.2595864805065995,0.47650873579003594
1658789944849628,0.5768520637827113,-0.32037842374303827,0.5192339971007858
1658789944865620,0.5921110856794076,-0.2902265964751658,0.5053177691309987
1658789944881613,0.6282444495307855,-0.19769588769359903,0.46759746700236526
1658789944897606,0.6508278019378961,-0.16668955519951156,0.3478446631570913
1658789944913598,0.6632791638056004,-0.17474631876096725,0.2647135118638895
1658789944929591,0.6593728542000461,-0.17425803006027296,0.2932784008545051
1658789944945583,0.6432593270771347,-0.16937514305333012,0.3145189593347064
1658789944961578,0.6619363698786911,-0.14483863584344236,0.26434729533836876
1658789944977571,0.6997787441824981,-0.11261158159761964,0.15472648203250206
1658789944993563,0.7136949721522852,-0.08538948653391332,0.06475928892957938
1658789945009556,0.7138170443274587,-0.12054627298390175,0.12384222171358772
1658789945025549,0.7056382085908295,-0.15716792553597303,0.14520485236896352
1658789945041541,0.7442130159456779,-0.10028229190508897,0.16217288471808988
1658789945057534,0.7711909666590371,-0.025696192874036683,-0.003479056992446772
1658789945073526,0.7858396276798656,0.0016479743648432077,-0.07598992904554835
1658789945089519,0.788281071183337,-0.05011062790875087,-0.05560387579156156
1658789945105512,0.7877927824826427,-0.023743038071259548,-0.003356984817273201
1658789945121504,0.8343022812237733,0.045349813076981604,-0.054627298390172996
1658789945137497,0.8417486839093611,0.06182955672541368,-0.1392233157854581
1658789945153490,0.8285648889906154,0.021667811093308842,-0.1923247119859619
1658789945169482,0.8296635385671776,-0.024963759822995257,-0.14898908979934378
1658789945185475,0.8485847257190811,-0.02288853284504455,-0.1442282749675745
1658789945201468,0.8527351796749825,0.019836728465705278,-0.2284580758373389
1658789945217460,0.8706797894254974,0.01495384145876244,-0.30951400015259
1658789945233453,0.8723887998779274,6.713969634546402E-4,-0.3245288776989397
1658789945249446,0.8754406042572676,0.03692683299000521,-0.34137483787289247
1658789945265438,0.8791027695124747,0.05011062790875087,-0.3631036850537881
1658789945281402,0.8798352025635161,0.005554283970397478,-0.4573434042877853
1658789945297395,0.8919203479056996,0.012756542305638163,-0.5578088044556342
1658789945313387,0.908888380254826,-0.0036011291676203427,-0.575631342030976
1658789945329380,0.9167009994659345,-0.005310139620050336,-0.5690394445716032
1658789945345373,0.8974135957885103,0.011657892729076025,-0.6250705729762722
1658789945361365,0.8803234912642104,0.010803387502861028,-0.7082017242694745
1658789945377358,0.8523689631494618,0.008728160524910322,-0.7421377889677272
1658789945393351,0.8471198596169982,-6.103608758678547E-5,-0.7093003738460366
1658789945409343,0.8638437476157774,0.03045700770580595,-0.7551995117112993
1658789945425336,0.8808117799649047,0.03289845120927737,-0.7580071717402914
1658789945441329,0.8855725947966739,0.016906996261539575,-0.7643549248493171
1658789945457321,0.8894789044022282,0.02288853284504455,-0.7515373464560922
1658789945473314,0.902906843671321,0.07025253681239008,-0.7266346227206837
1658789945489307,0.8963149462119482,0.06536964980544724,-0.688426031891356
1658789945505299,0.8843518730449382,0.05035477225909801,-0.6782940413519492
1658789945521292,0.8749523155565724,0.034851606012054503,-0.64277103837644
1658789945537284,0.8626230258640417,0.04254215304798947,-0.6067597467002366
1658789945553277,0.8476081483176925,0.015320057984283153,-0.559273670557717
1658789945569270,0.8272220950637061,-0.002746623941405346,-0.5293659876401922
1658789945585262,0.821850919356069,-3.0518043793392735E-4,-0.48285648889906163
1658789945601226,0.8241702906843669,-0.001037613488975353,-0.4350041962310214
1658789945617219,0.831250476844434,-0.027038986800945963,-0.4064393072404058
1658789945633212,0.8358892195010297,-0.02154573891813527,-0.38385595483329515
1658789945649204,0.8253910124361026,-0.017151140611886717,-0.3454032196536203
1658789945665197,0.8170901045242998,-0.009216449225604606,-0.32037842374303827
1658789945681190,0.823559929808499,-0.03302052338445094,-0.29889372091248934
1658789945697182,0.8240482185091933,-0.04742504005493231,-0.2641031509880216
1658789945713175,0.7937743190661477,-0.0575570305943387,-0.22711528191042962
1658789945729168,0.7655756466010528,-0.0955214770733197,-0.1299458304722667
1658789945745160,0.75043869687953,-0.13324177920195313,-0.062195773250934394
1658789945761153,0.751293202105745,-0.16253910124361015,-0.018127718013275285
1658789945777145,0.7401846341649501,-0.16131837949187444,0.008850232700083893
1658789945793138,0.7389639124132144,-0.1430075532158388,0.0424200808728159
1658789945809131,0.7395742732890822,-0.16595712214847014,0.10833905546654421
1658789945825123,0.7139391165026323,-0.16729991607537942,0.1524071107042042
1658789945841116,0.7045395590142673,-0.21979095140001537,0.2310215915159839
1658789945857109,0.6876935988403146,-0.22369726100556964,0.2544594491493095
1658789945873101,0.675608453498131,-0.19391165026321833,0.2833905546654458
1658789945889094,0.6634012359807739,-0.18243686579690221,0.34296177615014845
1658789945905087,0.6373998626688033,-0.19745174334325188,0.39166857404440414
1658789945921051,0.6322728313115134,-0.22796978713664462,0.45673304341191745
1658789945937043,0.6173800259403368,-0.22308690012970178,0.4883497367818723
1658789945953036,0.6248264286259246,-0.20123598077363258,0.5432822156099792
1658789945969029,0.615915159838254,-0.21222247653925397,0.6052948805981533
1658789945985021,0.6146944380865182,-0.21222247653925397,0.6680399786373696
1658789946001014,0.6077363241016247,-0.2188143739986268,0.6929427023727781
1658789946017006,0.5883268482490269,-0.24164187075608456,0.7575188830395971
1658789946032999,0.560128175783932,-0.270817120622568,0.852002746623941
1658789946048992,0.5459678034637978,-0.26153963530937663,0.8852063782711532
1658789946064984,0.53681239032578,-0.2558022430762188,0.8505378805218582
1658789946080977,0.53852140077821,-0.25934233615625235,0.8638437476157774
1658789946096970,0.4901808194094759,-0.2809491111619744,0.9098649576562146
1658789946112962,0.46186007476920743,-0.2533607995727474,0.9641870756084536
1658789946128955,0.44708934157320535,-0.24310673685816742,0.9291523613336388
1658789946144948,0.46088349736781886,-0.22113374532692465,0.9516136415655758
1658789946160940,0.42816815442130185,-0.2632486457618066,0.9882352941176471
1658789946176933,0.38202487220569203,-0.28461127641718154,1.0526894026092926
1658789946192926,0.3792172121766999,-0.3202563515678647,1.0749065384908825
1658789946208918,0.38153658350499775,-0.344060425726711,1.0771038376440067
1658789946224911,0.3981383993286034,-0.28033875028610655,1.0180209048599984
1658789946240905,0.43439383535515397,-0.24420538643472955,1.0398718242160676
1658789946256898,0.39996948195620696,-0.33844510566872676,1.0943160143434802
1658789946272891,0.40973525597009264,-0.384466315709163,1.1164110780498966
1658789946288883,0.40009155413138053,-0.3961852445258258,1.110917830167086
1658789946304876,0.39240100709544556,-0.4143739986266879,1.0865033951323717
1658789946320869,0.3850766765850313,-0.4812695506218052,1.190508888380255
1658789946336861,0.3843442435339899,-0.5656214236667432,1.3446860456244751
1658789946352854,0.39166857404440414,-0.5477988860914014,1.3597009231708244
1658789946368847,0.40595101853971194,-0.52143129625391,1.319661249713893
1658789946384839,0.41852445258258975,-0.5738002594033724,1.3573815518425265
1658789946400832,0.39716182192721483,-0.6551003280689707,1.4339208056763564
1658789946416824,0.3947203784237434,-0.6292210269321736,1.430014496070802
1658789946432817,0.4036316472114141,-0.6337376974135958,1.4783550774395362
1658789946448810,0.40167849240863696,-0.6587624933241778,1.4414892805371178
1658789946464802,0.4112001220721755,-0.6714579995422292,1.3863126573586637
1658789946480795,0.4187685969329369,-0.6752422369726099,1.3493247882810708
1658789946496788,0.43952086671244395,-0.672922865644312,1.339314869916838
1658789946512780,0.431830319676509,-0.6670634012359806,1.3002517738612953
1658789946528773,0.428412298771649,-0.6591287098496985,1.2410467689021134
1658789946544766,0.42560463874265686,-0.6492408636606393,1.181719691767758
1658789946560730,0.430975814450294,-0.6150606546120394,1.1238574807354844
1658789946576722,0.4387884336614025,-0.5879606317235067,1.1020065613794152
1658789946592715,0.43231860837720326,-0.5873502708476388,1.0703898680094603
1658789946608708,0.422430762188144,-0.5821011673151752,1.0896772716868846
1658789946624700,0.41510643167772976,-0.5404745555809871,1.059403372243839
1658789946640693,0.41718165865568047,-0.47809567406729236,0.9903105210955978
1658789946656685,0.4299992370489054,-0.44415960936903964,0.9068131532768753
1658789946672678,0.4372014953841461,-0.44452582589456036,0.8955825131609068
1658789946688671,0.4649118791485467,-0.4329289692530707,0.9016861219195853
1658789946704663,0.5036087586785687,-0.39935912108033866,0.8850843060959797
1658789946720656,0.5258258945601586,-0.37848477912565803,0.8017090104524298
1658789946736649,0.5293659876401922,-0.39093614099336227,0.7833981841763942
1658789946752641,0.5194781414511329,-0.39569695582513154,0.7635004196231021
1658789946768634,0.523994811932555,-0.3794613565270466,0.7088120851453423
1658789946784627,0.5364461738002593,-0.3629816128786145,0.6507057297627226
1658789946800619,0.5629358358129242,-0.34027618829633033,0.6345922026398112
1658789946816612,0.5624475471122299,-0.2999923704890515,0.5735561150530248
1658789946832605,0.5857633325703819,-0.2558022430762188,0.4822461280231938
1658789946848597,0.6173800259403368,-0.2645914396887159,0.4910353246356909
1658789946864590,0.6265354390783555,-0.28705271992065295,0.46466773479819956
1658789946880554,0.6527809567406733,-0.25506981002517737,0.44110780498970037
1658789946896546,0.6741435873960482,-0.2129549095902954,0.35602349889372054
1658789946912539,0.6934309910734724,-0.19928282597085545,0.31268787670710285
1658789946928532,0.6934309910734724,-0.19977111467154973,0.3277027542534521
1658789946944524,0.6780498970016025,-0.21441977569237824,0.2676432440680552
1658789946960517,0.706614785992218,-0.14752422369726093,0.19623102159151617
1658789946976510,0.7428702220187686,-0.0812390325780119,0.1696192874036777
1658789946992502,0.7608148317692836,-0.025940337224383825,0.08722056916151644
1658789947008495,0.7604486152437628,-0.03472953383688093,-0.001037613488975353
1658789947024488,0.783154039826047,-0.07208361943999408,0.059632257572289404
1658789947040480,0.7815671015487906,-0.10003814755474183,0.12787060349431645
1658789947056473,0.8089112687876705,-0.09796292057679112,0.1474021515220878
1658789947072466,0.8247806515602347,-0.10077058060578326,0.0042114900434881974
1658789947088458,0.8319829098954754,-0.11786068513008319,-0.040100709544518054
1658789947104451,0.8423590447852289,-0.09954985885404755,-0.005676356145571049
1658789947120443,0.8485847257190811,-0.10760662241550323,0.07501335164415934
1658789947136436,0.8714122224765388,-0.08392462043183047,0.029724574654764524
1658789947152429,0.8921644922560468,-0.0631723506523234,-0.05535973144121442
1658789947168421,0.8900892652780961,-0.012756542305638163,-0.17059586480506583
1658789947184414,0.8783703364614333,-0.020691233691920274,-0.18158236057068722
1658789947200378,0.8712901503013653,-0.05816739147020655,-0.1940337224383919
1658789947216370,0.8839856565194175,-0.050476844434271584,-0.15863279163805588
1658789947232362,0.881300068665599,-0.10821698329137108,-0.10492103456168467
1658789947248355,0.8931410696574353,-0.09906157015335326,-0.19452201113908618
1658789947264347,0.9295185778591595,-0.048035400930800165,-0.306950484473945
1658789947280339,0.9290302891584652,-0.11725032425421533,-0.24664682993820097
1658789947296331,0.9203631647211417,-0.17340352483405796,-0.1890287632562755
1658789947312323,0.9474631876096744,-0.12433051041428245,-0.24139772640573742
1658789947328315,0.9752956435492486,-0.1030899519340811,-0.3559014267185474
1658789947344308,0.9824979018844893,-0.08404669260700404,-0.44074158846417966
1658789947360300,0.9550316624704358,-0.09088273441672401,-0.4597848477912567
1658789947376292,0.9019302662699324,-0.09039444571602973,-0.46393530174715814
1658789947392284,0.8662851911192488,-0.06683451590753053,-0.46601052872510884
1658789947408276,0.8515144579232468,-0.10064850843060968,-0.49701686121919586
1658789947424268,0.8512703135728996,-0.1342183566033417,-0.5475547417410542
1658789947440261,0.877882047760739,-0.13824673838406953,-0.5565880827038985
1658789947456253,0.9142595559624631,-0.1228656443121996,-0.5568322270542456
1658789947472245,0.9323262378881516,-0.12469672693980316,-0.5613488975356677
1658789947488237,0.9397726405737394,-0.1144426642252232,-0.5519493400473028
1658789947504229,0.951857785915923,-0.09246967269398043,-0.560128175783932
1658789947520202,0.9551537346456094,-0.0762340733958955,-0.5579308766308078
1658789947536194,0.9523460746166172,-0.07269398031586194,-0.5442587930113678
1658789947552187,0.9269550621805145,-0.07965209430075548,-0.5000686655985351
1658789947568179,0.9177996490424967,-0.091737239642939,-0.45209430075532175
1658789947584171,0.9059586480506603,-0.08111696040283833,-0.43427176317997995
1658789947600163,0.892652780956741,-0.08905165178912045,-0.3892271305409323
1658789947616155,0.8823987182421611,-0.09820706492713827,-0.348332951857786
1658789947632147,0.8766613260090033,-0.11285572594796678,-0.34027618829633033
1658789947648140,0.8727550164034481,-0.11017013809414822,-0.31024643320363143
1658789947664132,0.8744640268558781,-0.10553139543755252,-0.2670328831921873
1658789947680124,0.8788586251621275,-0.10870527199206537,-0.22906843671320676
1658789947696116,0.8727550164034481,-0.12335393301289388,-0.2095368886854354
1658789947712108,0.8850843060959797,-0.10882734416723894,-0.20086976424811187
1658789947728100,0.8721446555275802,-0.13263141832608527,-0.15594720378423732
1658789947744093,0.8637216754406039,-0.1509422446021209,-0.09869535362783255
1658789947760085,0.856275272755016,-0.13202105745021742,-0.10089265278095683
1658789947776077,0.8352788586251618,-0.12713817044327458,-0.057312886243991557
1658789947792069,0.8203860532539862,-0.14837872892347592,-0.004943923094529623
1658789947808061,0.8198977645532919,-0.15460440985732804,0.05804531929503298
1658789947824053,0.8174563210498205,-0.165712977798123,0.08636606393530144
1658789947840026,0.8142824444953076,-0.1543602655069809,0.09271381704432713
1658789947856019,0.8089112687876705,-0.127016098268101,0.10907148851758564
1658789947872011,0.7923094529640649,-0.1380025940337224,0.1482566567483028
1658789947888003,0.7749752040894178,-0.1787747005416951,0.2348058289463646
1658789947903995,0.7587396047913328,-0.19012741283283763,0.24725719081406883
1658789947919987,0.7499504081788357,-0.17987335011825722,0.2788738841840237
1658789947935979,0.7359121080338751,-0.17547875181200867,0.2965743495841915
1658789947951972,0.7260242618448158,-0.2007476920729383,0.3667658503089948
1658789947967964,0.7103990234225988,-0.21454184786755182,0.39154650186923057
1658789947983956,0.714305333028153,-0.22772564278629748,0.4320744640268561
1658789947999948,0.7090562294956895,-0.19720759899290474,0.49115739681086446
1658789948015940,0.6930647745479517,-0.18316929884794364,0.5121538109407187
1658789948031932,0.6731670099946596,-0.2171053635461968,0.544502937361715
1658789948047925,0.6421606775005726,-0.26605630579079875,0.5796597238117034
1658789948063917,0.6205539024948497,-0.3037766079194322,0.6717021438925768
1658789948079909,0.6248264286259246,-0.28705271992065295,0.7094224460212102
1658789948095901,0.6311741817349512,-0.2583657587548638,0.6819562066071567
1658789948111893,0.6273899443045705,-0.26068513008316163,0.6934309910734724
1658789948127885,0.5904020752269776,-0.310368505378805,0.7667963683527885
1658789948143878,0.5727016098268098,-0.3178149080643933,0.8135500114442662
1658789948159881,0.5684290836957349,-0.29120317387655437,0.7586175326161593
1658789948175873,0.5578088044556342,-0.29633020523384435,0.7689936675059128
1658789948191866,0.5182574196993972,-0.31830319676508756,0.825268940260929
1658789948207858,0.49616235599298086,-0.3484550240329596,0.8563973449301896
1658789948223850,0.4986037994964523,-0.33893339436942105,0.8755626764324411
1658789948239842,0.49286640726329445,-0.319890135042344,0.8480964370183868
1658789948255834,0.47943846799420164,-0.3302662699320975,0.9025406271458003
1658789948271826,0.4401312275883118,-0.385320820935378,0.914015411612116
1658789948287819,0.4308537422751204,-0.3983825436789501,0.8843518730449382
1658789948303811,0.44538033112077535,-0.3988708323796444,0.9169451438162817
1658789948319803,0.4356145571068897,-0.3777523460746166,0.9064469367513546
1658789948335795,0.41266498817425834,-0.37933928435187303,0.9253681239032581
1658789948351787,0.3690852216372926,-0.4408636606393532,0.9536888685435265
1658789948367779,0.3549248493171584,-0.4295109483482107,0.9124284733348595
1658789948383772,0.35419241626611697,-0.426581216144045,0.9378194857709623
1658789948399764,0.3808041504539563,-0.4071717402914472,1.0182650492103456
1658789948415756,0.37323567559319404,-0.4240177004654,1.048294804303044
1658789948431748,0.36444647898069693,-0.4523384451056689,1.0451209277485312
1658789948447740,0.3602960250247955,-0.46430151827267885,1.0478065156023497
1658789948463732,0.35175097276264555,-0.47687495231555665,1.0821087968261232
1658789948479705,0.3308766308079649,-0.47150377660791953,1.1252002746623946
1658789948495698,0.3184252689402607,-0.5264362554360265,1.1737850003814758
1658789948511690,0.33783474479285847,-0.5562218661783778,1.21870756084535
1658789948527682,0.34967574578469485,-0.5910124361028459,1.2775463492790111
1658789948543674,0.3392996108949413,-0.6181124589913787,1.2871900511177232
1658789948559666,0.3250171663996335,-0.65302510109102,1.263630121309224
1658789948575658,0.342229343099107,-0.6957503624017702,1.3087968261234453
1658789948591651,0.3770199130235756,-0.7017318989852752,1.3741054398413057
1658789948607643,0.3812924391546506,-0.7040512703135731,1.3880216678110937
1658789948623635,0.3793392843518735,-0.688426031891356,1.3221026932173645
1658789948639627,0.35223926146333984,-0.696116578927291,1.2511787594415198
1658789948655619,0.34259555962462773,-0.6931868467231252,1.2598458838788433
1658789948671611,0.3347829404135192,-0.6699931334401463,1.2660715648126954
1658789948687604,0.3317311360341799,-0.6629129472800792,1.2346990157930877
1658789948703596,0.3313649195086592,-0.680613412680247,1.2190737773708706
1658789948719588,0.3372243839169906,-0.6872053101396198,1.2209048599984742
1658789948735580,0.34332799267566916,-0.6546120393682764,1.1632867933165487
1658789948751572,0.3552910658426791,-0.6139620050354773,1.1266651407644774
1658789948767564,0.3657892729076062,-0.5860074769207295,1.0771038376440067
1658789948783557,0.37738612954909634,-0.5853971160448617,1.060257877470054
1658789948799530,0.4072938124666212,-0.5579308766308078,1.0512245365072097
1658789948815522,0.43195239185168255,-0.5020218204013123,0.9938506141756314
1658789948831514,0.4406195162890061,-0.5008010986495766,0.9455100328068973
1658789948847506,0.43195239185168255,-0.5322957198443579,0.9291523613336388
1658789948863498,0.4387884336614025,-0.49530785076676587,0.9251239795529109
1658789948879490,0.4430609597924775,-0.44281681544213036,0.9345235370412759
1658789948895483,0.44745555809872606,-0.4131532768749522,0.8582284275577932
1658789948911475,0.44586861982146964,-0.41083390554665433,0.7700923170824749
1658789948927467,0.458564126039521,-0.4110780498970015,0.7854734111543449
1658789948943459,0.4627145799954224,-0.388738841840238,0.7964599069199663
1658789948959451,0.4893263141832609,-0.3371023117418175,0.7699702449073014
1658789948975443,0.5159380483710994,-0.3361257343404289,0.6919661249713895
1658789948991436,0.5399862668802928,-0.3627374685282674,0.603952086671244
1658789949007428,0.575509269855802,-0.3778744182497902,0.6370336461432826
1658789949023420,0.6083466849774926,-0.321599145494774,0.6521705958648054
1658789949039412,0.6333714808880755,-0.2763103685053787,0.5901579308766305
1658789949055404,0.6261692225528348,-0.2608072022583352,0.4934767681391623
1658789949071396,0.6481422140840776,-0.25763332570382236,0.45294880598153675
1658789949087389,0.6665751125352868,-0.25214007782101167,0.4758983749141681
1658789949103381,0.6696269169146261,-0.1885404745555812,0.41046768902113406
1658789949119354,0.6811017013809417,-0.12372014953841459,0.3107347219043257
1658789949135346,0.6753643091477839,-0.16009765774013873,0.3258716716258485
1658789949151338,0.6703593499656675,-0.20379949645227757,0.2931563286793315
1658789949167330,0.6823224231326774,-0.19354543373769761,0.2738689250019073
1658789949183323,0.7112535286488137,-0.13849088273441668,0.25214007782101167
1658789949199315,0.7360341802090486,-0.10211337453269254,0.16534676127260273
1658789949215307,0.7488517586022736,-0.11761654077973605,0.08661020828564858
1658789949231299,0.768383306630045,-0.12298771648737317,0.07342641336690292
1658789949247291,0.7827878233005263,-0.13641565575646597,0.18744182497901907
1658789949263283,0.7827878233005263,-0.10955977721828036,0.13653772793163999
1658789949279276,0.8246585793850612,-0.01373311970702673,-0.04071107042038591
1658789949295268,0.8438239108873118,-0.035095750362401645,-0.09491111619745185
1658789949311260,0.8500495918211639,-0.08331425955596261,-0.020935378042267416
1658789949327252,0.8507820248722053,-0.0850232700083926,0.04876783398184159
1658789949343244,0.8518806744487675,-0.046692607003890885,-0.013488975356679589
1658789949359236,0.8865491721980625,0.0026245517662317752,-0.1555809872587166
1658789949375229,0.8841077286945911,-0.027038986800945963,-0.17218280308232226
1658789949391221,0.8697032120241088,-0.06329442282749698,-0.08953994048981473
1658789949407213,0.8589608606088346,-0.06073090714885154,-0.07110704203860552
1658789949423205,0.8852063782711532,-0.028747997253375956,-0.13226520180056456
1658789949439209,0.8905775539787903,-0.026916914625772392,-0.19806210421911974
1658789949455201,0.8938735027084768,-0.03668268863965807,-0.2523842221713588
1658789949471193,0.894361791409171,-0.049378194857709445,-0.2263828488593882
1658789949487185,0.9112077515831238,-0.04840161745632088,-0.23443961242084388
1658789949503177,0.9372091248950944,-0.027527275501640247,-0.272526131074998
1658789949519169,0.9466086823834594,-6.713969634546402E-4,-0.36371404592965595
1658789949535162,0.9616235599298086,0.016784924086366004,-0.4176699473563743
1658789949551154,0.9412375066758223,0.005432211795223907,-0.4357366292820628
1658789949567146,0.9185320820935381,-0.008728160524910322,-0.4319523918516821
1658789949583138,0.908033875028611,-0.04583810177767589,-0.4494087129015032
1658789949599130,0.9129167620355538,-0.04901197833218873,-0.4804150453955902
1658789949615122,0.9351338979171437,-0.03204394598306237,-0.5310749980926222
1658789949631115,0.9413595788509959,-0.022400244144350268,-0.5788052185854888
1658789949647107,0.9212176699473567,-0.06378271152819126,-0.5746547646295874
1658789949663099,0.9180437933928438,-0.07684443427176335,-0.5723353933012896
1658789949679091,0.9124284733348595,-0.06683451590753053,-0.5719691767757689
1658789949695083,0.8911879148546582,-0.05499351491569371,-0.5891813534752424
1658789949711075,0.8791027695124747,-0.08526741435873975,-0.5923552300297552
1658789949727068,0.8866712443732361,-0.08941786831464116,-0.5977264057373923
1658789949743060,0.914869916838331,-0.07684443427176335,-0.5709925993743803
1658789949759033,0.9240253299763488,-0.053040360112916574,-0.5518272678721292
1658789949775025,0.9129167620355538,-0.07721065079728406,-0.5178912031738765
1658789949791017,0.8976577401388575,-0.11712825207904176,-0.5078812848096437
1658789949807009,0.9013199053940646,-0.09246967269398043,-0.499824521248188
1658789949823001,0.8931410696574353,-0.11163500419623107,-0.43830014496070824
1658789949838994,0.8922865644312203,-0.08978408484016187,-0.4071717402914472
1658789949854986,0.8766613260090033,-0.09027237354085615,-0.37286945906767377
1658789949870978,0.8687266346227203,-0.0905165178912033,-0.35077439536125743
1658789949886970,0.8678721293965053,-0.08270389868009476,-0.30511940184634145
1658789949902962,0.8559090562294953,-0.07098496986343195,-0.27875181200885013
1658789949918954,0.8402838178072782,-0.09857328145265898,-0.21808194094758537
1658789949934947,0.8245365072098876,-0.11834897383077747,-0.15374990463111304
1658789949950939,0.8277103837644004,-0.1228656443121996,-0.11432059205004963
1658789949966931,0.8357671473258561,-0.1010147249561304,-0.10565346761272609
1658789949982923,0.8145265888456548,-0.09100480659189758,-0.11004806591897465
1658789949998915,0.800244144350347,-0.10797283894102394,-0.011657892729076025
1658789950014907,0.7913328755626763,-0.17401388570992582,0.07025253681239008
1658789950030900,0.7825436789501792,-0.16583504997329657,0.0957656214236664
1658789950046892,0.791699092088197,-0.1316548409246967,0.11053635461966849
1658789950062884,0.7635004196231021,-0.17047379262989226,0.14715800717174066
1658789950078857,0.7472648203250172,-0.21832608529793252,0.20306706340123615
1658789950094849,0.7466544594491493,-0.16852063782711513,0.2191805905241475
1658789950110841,0.7455558098725872,-0.13763637750820168,0.2990157930876629
1658789950126834,0.7285877775234608,-0.128725108720531,0.33795681696803204
1658789950142826,0.7252918287937744,-0.14325169756618594,0.35138475623712484
1658789950158818,0.716014343480583,-0.15948729686427088,0.37982757305256776
1658789950174810,0.6873273823147938,-0.16729991607537942,0.3808041504539563
1658789950190802,0.6612039368276497,-0.18231479362172864,0.49494163424124515
1658789950206794,0.6326390478370341,-0.19586480506599546,0.5496299687190049
1658789950222787,0.636057068741894,-0.2116121156633861,0.5949187457083998
1658789950238779,0.6328831921873812,-0.20843823910887327,0.6272678721293969
1658789950254771,0.611642633707179,-0.20672922865644328,0.6387426565957126
1658789950270763,0.5785610742351412,-0.22980086976424818,0.6261692225528348
1658789950286755,0.5557335774776835,-0.24725719081406883,0.6864728770885788
1658789950302747,0.5625696192874035,-0.22308690012970178,0.7749752040894178
1658789950318740,0.5547570000762949,-0.22540627145799963,0.8023193713282977
1658789950334732,0.5355916685740443,-0.2663004501411459,0.7904783703364613
1658789950350724,0.5021438925764858,-0.29132524605172794,0.7898680094605934
1658789950366716,0.47821774624246594,-0.29510948348210864,0.8627450980392153
1658789950382708,0.46478980697337313,-0.3058518348973829,0.9319600213626309
1658789950398712,0.4711375600823988,-0.3104905775539786,0.903761348897536
1658789950414704,0.4614938582436867,-0.3324635690852218,0.9107194628824296
1658789950430696,0.4184023804074162,-0.39093614099336227,1.0094758525978484
1658789950446688,0.40216678110933124,-0.36786449988555736,1.020706492713817
1658789950462680,0.4077821011673155,-0.31952391851682327,0.9129167620355538
1658789950478673,0.4065613794155798,-0.355168993667506,0.9331807431143666
1658789950494665,0.3826352330815599,-0.3975280384527351,1.0222934309910734
1658789950510657,0.35968566414892766,-0.3648126955062181,1.028397039749752
1658789950526649,0.34552529182879343,-0.3665217059586481,0.9934843976501107
1658789950542641,0.3368581673914699,-0.42426184481574714,0.9921416037232014
1658789950558633,0.3346608682383456,-0.4160830090791179,0.9982452124818799
1658789950574626,0.3032883192187379,-0.43463797970550067,1.0519569695582511
1658789950590618,0.2973067826352329,-0.44660105287251106,1.075638971541924
1658789950606610,0.2998702983138779,-0.44708934157320535,1.0437781338216219
1658789950622602,0.3239185168230714,-0.44672312504768463,1.1255664911879153
1658789950638594,0.2993820096131836,-0.47650873579003594,1.1770809491111622
1658789950654586,0.2940108339055465,-0.5394979781795985,1.235187304493782
1658789950670579,0.27533379110399014,-0.6038300144960709,1.2543526359960326
1658789950686571,0.3134203097581443,-0.6056610971236744,1.3046463721675439
1658789950702563,0.34332799267566916,-0.5869840543221181,1.3221026932173645
1658789950718505,0.33539330128938705,-0.6651102464332035,1.3755703059433895
1658789950734498,0.32648203250171637,-0.690989547570001,1.3911955443656066
1658789950750490,0.3338063630121306,-0.7129625391012437,1.3900968947890444
1658789950766482,0.3258716716258485,-0.6958724345769438,1.36263065537499
1658789950782474,0.3239185168230714,-0.7038071259632259,1.3156328679331653
1658789950798466,0.3024338139925229,-0.724559395742733,1.2859693293659875
1658789950814458,0.31512932021057427,-0.7069810025177388,1.277302204928664
1658789950830451,0.3218432898451207,-0.6784161135271227,1.2371404592965591
1658789950846443,0.3153734645609214,-0.7041733424887466,1.2211490043488213
1658789950862435,0.32062256809338496,-0.678049897001602,1.1839169909208822
1658789950878427,0.33112077515831206,-0.6507057297627221,1.1519340810254066
1658789950894419,0.33954375524528846,-0.6068818188754102,1.126787212939651
1658789950910411,0.34076447699702417,-0.5614709697108413,1.0825970855268174
1658789950926404,0.34332799267566916,-0.5473105973907071,1.036942092011902
1658789950942396,0.35053025101090984,-0.5442587930113678,1.036942092011902
1658789950958388,0.3717708094911112,-0.508369573510338,1.046585793850614
1658789950974380,0.3898374914168006,-0.47345693141069667,1.0166781109330891
1658789950990372,0.3902037079423213,-0.491279468986038,0.952712291142138
1658789951006364,0.393987945372702,-0.4732127870603495,0.9170672159914552
1658789951022357,0.39533073929961127,-0.4690623331044481,0.9223163195239188
1658789951038360,0.40289921416037267,-0.43720149538414566,0.9077897306782639
1658789951054352,0.42182040131227616,-0.4076600289921415,0.8517586022735939
1658789951070345,0.44245059891660965,-0.4278019378957807,0.8314946211947811
1658789951086337,0.45087357900358604,-0.43646906233310423,0.8458991378652625
1658789951102329,0.46002899214160387,-0.3980163271534294,0.7862058442053863
1658789951118321,0.48444342717631805,-0.3495536736095217,0.6931868467231252
1658789951134313,0.5122758831158922,-0.3672541390096895,0.6508278019378961
1658789951150305,0.5327840085450521,-0.3915465018692301,0.7156481269550623
1658789951166298,0.5680628671702141,-0.348332951857786,0.7355458915083544
1658789951182290,0.5864957656214234,-0.3189135576409554,0.6887922484168767
1658789951198282,0.6000457770656897,-0.2955977721828029,0.576363775082017
1658789951214274,0.6211642633707175,-0.31219958800640857,0.510078583962768
1658789951230266,0.6392309452964069,-0.3411306935225453,0.5667200732433049
1658789951246258,0.659983215075914,-0.2670328831921873,0.5758754863813227
1658789951262251,0.6736552986953539,-0.23785763332570387,0.5442587930113678
1658789951278243,0.6363012130922412,-0.23163195239185175,0.42767986572060757
1658789951294235,0.6389868009460598,-0.22455176623178463,0.3372243839169906
1658789951310227,0.6687724116884111,-0.2494544899671931,0.4213321126115819
1658789951326219,0.6780498970016025,-0.23407339589532317,0.4691844052796217
1658789951342211,0.7133287556267645,-0.15118638895246805,0.36847486076142477
1658789951358184,0.7335927367055772,-0.1476462958724345,0.26691081101701375
1658789951374177,0.7520256351567864,-0.1753566796368351,0.20257877470054186
1658789951390169,0.7737544823376821,-0.1812161440451665,0.26153963530937663
1658789951406161,0.794262607766842,-0.14728007934691378,0.3489433127336534
1658789951422153,0.8030518043793391,-0.10455481803616395,0.21783779659723823
1658789951438145,0.8041504539559012,-0.07928587777523477,0.06012054627298369
1658789951454137,0.8139162279697869,-0.0879530022125583,0.03167772945754166
1658789951470130,0.8120851453421833,-0.10321202410925467,0.11212329289692491
1658789951486122,0.8156252384222169,-0.0745250629434655,0.13617151140611927
1658789951502114,0.8349126420996411,-0.053284504463263715,0.010437170977340315
1658789951518106,0.8583504997329667,-0.06854352635996053,-0.04742504005493231
1658789951534098,0.8556649118791482,-0.09076066224155044,-0.06585793850614197
1658789951550090,0.8549324788281067,-0.059632257572289404,-0.07354848554207694
1658789951566083,0.8738536659800102,-0.04827954528114731,-0.1350728618295567
1658789951582075,0.8823987182421611,-0.07428091859311836,-0.16852063782711513
1658789951598067,0.8715342946517124,-0.09466697184710471,-0.16510261692225514
1658789951614059,0.8780041199359125,-0.08258182650492119,-0.1727931639581901
1658789951630051,0.8913099870298318,-0.09063859006637687,-0.19598687724116903
1658789951646043,0.8972915236133368,-0.09588769359884042,-0.26361486228732733
1658789951662036,0.9033951323720153,-0.06280613412680269,-0.3297779812314032
1658789951678009,0.9247577630273902,-0.038879987792782345,-0.35529106584267955
1658789951694001,0.9434348058289466,-0.035095750362401645,-0.37372396429388877
1658789951709993,0.945876249332418,-0.013977264057373873,-0.44916456855115605
1658789951725985,0.9323262378881516,-0.01373311970702673,-0.4845654993514916
1658789951741977,0.9232928969253074,-0.03399710078583951,-0.5062943465323873
1658789951757969,0.911451895933471,-0.04229800869764233,-0.5283894102388036
1658789951773962,0.8983901731898989,-0.05548180361638799,-0.5358358129243914
1658789951789954,0.8946059357595182,-0.0783093003738462,-0.5451132982375828
1658789951805946,0.9022964827954532,-0.05767910276951227,-0.5711146715495539
1658789951821938,0.905470359349966,-0.033875028610665936,-0.6590066376745249
1658789951837930,0.9094987411306938,-0.04254215304798947,-0.6691386282139313
1658789951853922,0.9076676585030903,-0.031189440756847375,-0.6477759975585564
1658789951869915,0.913160906385901,-0.017029068436713146,-0.6024872205691616
1658789951885907,0.9066910811017017,-0.0214236667429617,-0.6214084077210651
1658789951901899,0.8959487296864275,-0.031311512932020946,-0.6124971389333944
1658789951917891,0.8880140383001454,-0.046570534828717314,-0.5951628900587473
1658789951933883,0.8842298008697647,-0.06414892805371197,-0.5503624017700464
1658789951949875,0.8908216983291375,-0.05816739147020655,-0.5021438925764858
1658789951965868,0.8847180895704589,-0.025696192874036683,-0.4795605401693752
1658789951981860,0.8727550164034481,-0.022034027618829555,-0.44916456855115605
1658789951997863,0.8688487067978938,-0.02020294499122599,-0.4033875028610665
1658789952013856,0.8697032120241088,-0.034973678187228074,-0.3924010070954451
1658789952029848,0.8526131074998089,-0.037537193865873064,-0.35944151979858097
1658789952045840,0.8417486839093611,-0.06964217593652267,-0.29340047302967864
1658789952061832,0.8438239108873118,-0.08905165178912045,-0.19415579461356547
1658789952077824,0.8560311284046689,-0.07318226901655622,-0.13678187228198668
1658789952093816,0.8466315709163039,-0.08868543526359973,-0.12445258258945602
1658789952109809,0.8280766002899211,-0.08233768215457404,-0.12603952086671244
1658789952125801,0.8035400930800334,-0.15387197680628661,-0.03399710078583951
1658789952141793,0.8024414435034712,-0.1762111848630501,0.053406576638437286
1658789952157785,0.8115968566414891,-0.14703593499656664,0.07086289768825793
1658789952173777,0.8008545052262148,-0.1249408712901503,0.06390478370336439
1658789952189769,0.7819333180743113,-0.16644541084916442,0.1515526054779892
1658789952205762,0.7602044708934157,-0.2103913939116504,0.22186617837796607
1658789952221754,0.751293202105745,-0.18439002059967935,0.2301670862897689
1658789952237746,0.7484855420767529,-0.15167467765316234,0.28290226596475154
1658789952253738,0.7605706874189364,-0.0800183108262762,0.3591973754482334
1658789952269730,0.7527580682078279,-0.14081025406271452,0.43952086671244395
1658789952285722,0.7371328297856108,-0.21454184786755182,0.5250934615091172
1658789952301715,0.7252918287937744,-0.20794995040817899,0.5801480125123977
1658789952317688,0.714305333028153,-0.25299458304722666,0.6491187914854661
1658789952333680,0.7028305485618374,-0.2642252231631952,0.6281223773556119
1658789952349672,0.7301747158007172,-0.1741359578850994,0.5950408178835733
1658789952365664,0.7251697566186008,-0.1799954222934308,0.6740215152208746
1658789952381656,0.6981918059052417,-0.23126573586633103,0.6685282673380639
1658789952397648,0.6831769283588924,-0.2781414511329823,0.6459449149309533
1658789952413641,0.6752422369726103,-0.2788738841840237,0.5725795376516363
1658789952429633,0.6580300602731368,-0.2465247577630274,0.5364461738002593
1658789952445625,0.6192111085679404,-0.2755779354543373,0.6358129243915469
1658789952461617,0.5853971160448612,-0.32343022812237754,0.6542458228427561
1658789952477609,0.5767299916075377,-0.3589532310978867,0.6555886167696654
1658789952493601,0.5792935072861827,-0.34052033264667747,0.6293430991073476
1658789952509594,0.5667200732433049,-0.33429465171282535,0.6389868009460598
1658789952525586,0.5254596780346379,-0.39398794537270154,0.6908674753948274
1658789952541578,0.5270466163118943,-0.38800640878919657,0.6964827954528117
1658789952557570,0.5365682459754328,-0.37677576867322804,0.7046616311894409
1658789952573562,0.5154497596704051,-0.35101853971160457,0.7340810254062715
1658789952589554,0.4855420767528802,-0.39984740978103295,0.7730220492866406
1658789952605547,0.4691844052796217,-0.41376363775082003,0.7860837720302127
1658789952621539,0.4837109941252766,-0.4219424734874493,0.7987792782482641
1658789952637512,0.47516594186312666,-0.38214694438086516,0.7580071717402914
1658789952653504,0.4446478980697339,-0.4092469672693979,0.8423590447852289
1658789952669496,0.39459830624856984,-0.48065918974593735,0.8983901731898989
1658789952685488,0.385442893110552,-0.5199664301518272,0.895216296635386
1658789952701480,0.4107118333714812,-0.49494163424124515,0.8793469138628218
1658789952717473,0.4002136263065541,-0.4900587472343023,0.8966811627374689
1658789952733465,0.40119020370794267,-0.5148393987945372,0.9978789959563592
1658789952749457,0.3816586556801713,-0.5230182345311665,1.004226749065385
1658789952765449,0.38019378957808847,-0.5311970702677957,0.9951934081025406
1658789952781441,0.36688792248416835,-0.5171587701228351,0.968337529564355
1658789952797433,0.34760051880674414,-0.5131303883421072,1.0384069581139848
1658789952813426,0.3203784237430378,-0.574776836804761,1.1354543373769745
1658789952829418,0.3108567940794993,-0.6422827496757457,1.254840924696727
1658789952845410,0.30438696879530003,-0.6242160677500572,1.2226138704509042
1658789952861402,0.2995040817883572,-0.6261692225528344,1.2315251392385749
1658789952877394,0.29034866865033937,-0.672922865644312,1.2536202029449912
1658789952893386,0.2999923704890515,-0.6886701762417031,1.3312581063553823
1658789952909379,0.30304417486839075,-0.6609597924773021,1.3604333562218658
1658789952925371,0.30646219577325073,-0.6809796292057677,1.377157244220646
1658789952941363,0.28204776073853655,-0.7796139467460135,1.3379720759899287
1658789952957336,0.2998702983138779,-0.8327153429465173,1.3594567788204772
1658789952973328,0.3247730220492864,-0.7978027008468755,1.3492027161058973
1658789952989320,0.34259555962462773,-0.7915770199130234,1.3318684672312502
1658789953005313,0.34503700312809915,-0.8056153200579841,1.3072098878461889
1658789953021305,0.32355230029755067,-0.8040283817807277,1.2690012970168612
1658789953037297,0.32831311512931993,-0.75385671778439,1.2543526359960326
1658789953053289,0.31818112458991354,-0.7150377660791944,1.1770809491111622
1658789953069281,0.3209887846189057,-0.7079575799191273,1.1046921492332338
1658789953085273,0.3239185168230714,-0.7165026321812773,1.108354314488441
1658789953101266,0.3306324864576178,-0.7040512703135731,1.1503471427481502
1658789953117258,0.3363698786907756,-0.6400854505226214,1.091264209964141
1658789953133250,0.35419241626611697,-0.6198214694438087,0.9823758297093157
1658789953149242,0.3670099946593419,-0.64448004882887,0.9584496833752958
1658789953165234,0.3883726253147177,-0.6068818188754102,0.945021744106203
1658789953181226,0.40302128633554624,-0.5464560921644921,0.9673609521629665
1658789953197219,0.41547264820325047,-0.5413290608072021,0.9307392996108952
1658789953213211,0.4274357213702604,-0.5460898756389714,0.8703135728999767
1658789953229203,0.4384222171358818,-0.5020218204013123,0.7659418631265735
1658789953245195,0.44879835202563534,-0.4472114137483789,0.715159838254368
1658789953261187,0.4712596322575724,-0.42169832913710215,0.7277332722972458
1658789953277191,0.47980468451972236,-0.4303654535744257,0.6609597924773025
1658789953293183,0.5011673151750973,-0.41120012207217504,0.592843518730449
1658789953309175,0.5280231937132829,-0.428290226596475,0.6933089188982988
1658789953325167,0.5213092240787365,-0.3798275730525673,0.5922331578545812
1658789953341159,0.5247272449835965,-0.3070725566491186,0.45331502250705746
1658789953357152,0.5331502250705729,-0.3253833829251547,0.41095597772182835
1658789953373144,0.5639124132143127,-0.36798657206073093,0.457709620813306
1658789953389136,0.5866178377965969,-0.30560769054703574,0.4140077821011676
1658789953405128,0.6350804913405055,-0.20404364080262472,0.34747844663157057
1658789953421120,0.6460669871061269,-0.18915083543144906,0.2687418936446173
1658789953437112,0.6623025864042118,-0.18475623712520006,0.18463416495002694
1658789953453105,0.6789044022278174,-0.2229648279545282,0.1943999389639126
1658789953469097,0.6981918059052417,-0.18316929884794364,0.16791027695124772
1658789953485089,0.7455558098725872,-0.10504310673685824,0.15094224460212136
1658789953501081,0.7468986037994965,-0.07049668116273766,0.08880750743877286
1658789953517073,0.7339589532310979,-0.09625391012436113,-0.00579842832074462
1658789953533065,0.7449454489967193,-0.12152285038529032,0.003112840466926059
1658789953549058,0.7967040512703134,-0.08258182650492119,0.008850232700083893
1658789953565050,0.8395513847562368,-0.03350881208514522,-0.004943923094529623
1658789953581042,0.838941023880369,-0.05120927748531301,-0.04217593652246876
1658789953597015,0.8268558785381854,-0.09100480659189758,-0.13104448004882885
1658789953613007,0.8294193942168304,-0.08746471351186402,-0.11541924162661177
1658789953628999,0.8721446555275802,-0.091737239642939,-0.028870069428549527
1658789953644991,0.8932631418326089,-0.10162508583199825,-0.033875028610665936
1658789953660984,0.8751964599069204,-0.08636606393530188,-0.10211337453269254
1658789953676976,0.8906996261539639,-0.06427100022888554,-0.16339360646982515
1658789953692968,0.9156023498893724,-0.018127718013275285,-0.13995574883649953
1658789953708960,0.9257343404287788,-0.03302052338445094,-0.12347600518806745
1658789953724952,0.9204852368963152,-0.04852368963149445,-0.17218280308232226
1658789953740944,0.9116960402838181,-0.03167772945754166,-0.269108110170138
1658789953756937,0.914015411612116,-0.025696192874036683,-0.2516517891203174
1658789953772929,0.9018081940947589,-0.044251163500419466,-0.3107347219043257
1658789953788921,0.9318379491874573,-0.023620965896085977,-0.3950865949492637
1658789953804913,0.9539330128938737,-0.008239871824216038,-0.4507515068284125
1658789953820905,0.9567406729228658,-0.0023804074158846333,-0.4859082932784009
1658789953836897,0.9392843518730452,-0.006775005722133187,-0.5056839856565194
1658789953852890,0.917433432516976,-0.028870069428549527,-0.5310749980926222
1658789953868882,0.9040054932478832,-0.027283131151293105,-0.5750209811551081
1658789953884874,0.8990005340657667,-0.04730296787975874,-0.557564660105287
1658789953900866,0.9127946898603803,-0.030945296406500233,-0.5585412375066756
1658789953916839,0.936476691844053,0.02423132677195383,-0.5933318074311438
1658789953932831,0.9425803006027316,0.05658045319295013,-0.6144502937361715
1658789953948824,0.928786144808118,0.06622415503166224,-0.6116426337071794
1658789953964816,0.9164568551155874,0.05804531929503298,-0.5969939726863509
1658789953980808,0.9143816281376367,0.0499885557335773,-0.5664759288929582
1658789953996800,0.9147478446631574,0.0424200808728159,-0.5415732051575493
1658789954012792,0.9109636072327767,0.030212863355458808,-0.4888380254825666
1658789954028784,0.9013199053940646,0.01483176928358887,-0.456000610360876
1658789954044777,0.8853284504463268,-0.013855191882200302,-0.3997253376058594
1658789954060769,0.8849622339208061,-0.0365606164644845,-0.36700999465934236
1658789954076761,0.8913099870298318,-0.027649347676813818,-0.34430457007705817
1658789954092753,0.892652780956741,0.0018921187151903496,-0.29376668955519936
1658789954108745,0.8844739452201118,0.030945296406500233,-0.2869306477454794
1658789954124737,0.8654306858930338,0.0061646448462653325,-0.24298466468299385
1658789954140730,0.8498054474708168,-0.023132677195391693,-0.20721751735713756
1658789954156722,0.8369878690775918,-0.040100709544518054,-0.17303730830853725
1658789954172714,0.8262455176623176,-0.018249790188448856,-0.11456473640039677
1658789954188706,0.8181887541008619,-0.049256122682535874,-0.04962233920805659
1658789954204698,0.8026855878538184,-0.08453498130769832,-0.021911955443655984
1658789954220690,0.7940184634164948,-0.1018692301823454,0.029480430304417382
1658789954236663,0.8009765774013884,-0.06390478370336483,0.049256122682535874
1658789954252655,0.7880369268329899,-0.07891966124971406,0.12286564431219915
1658789954268647,0.7688715953307392,-0.13897917143511096,0.17987335011825767
1658789954284639,0.7670405127031357,-0.1337300679026474,0.1873197528038455
1658789954300630,0.7575188830395971,-0.09149309529259186,0.21112382696269183
1658789954316622,0.7342030975814451,-0.08599984740978117,0.27203784237430373
1658789954332614,0.7152819104295416,-0.14117647058823524,0.31122301060502
1658789954348605,0.6997787441824981,-0.16839856565194156,0.33124284733348563
1658789954364597,0.6889143205920503,-0.19513237201495404,0.3795834287022206
1658789954380589,0.6748760204470896,-0.1757228961623558,0.40509651331349694
1658789954396580,0.658274204623484,-0.205386434729534,0.4552681773098346
1658789954412572,0.6333714808880755,-0.25897611963073164,0.5137407492179751
1658789954428564,0.6168917372396425,-0.31573968108644257,0.572091248950942
1658789954444555,0.6111543450064847,-0.28925001907377723,0.5897917143511098
1658789954460547,0.6140840772106504,-0.2637369344625009,0.5965056839856562
1658789954476539,0.6112764171816583,-0.25519188220035094,0.6024872205691612
1658789954492530,0.6002899214160369,-0.2453040360112917,0.6399633783474483
1658789954508522,0.569527733272297,-0.2410315098802167,0.6654764629587246
1658789954524514,0.5320515754940107,-0.25091935606927596,0.7451895933470665
1658789954540506,0.5080033569848172,-0.3274586099031054,0.7954833295185777
1658789954556488,0.5078812848096437,-0.3197680628671704,0.7284657053482873
1658789954572479,0.48871595330739304,-0.3378347447928589,0.7588616769665064
1658789954588471,0.45758754863813245,-0.37750820172426947,0.8272220950637061
1658789954604463,0.4442816815442132,-0.31183337148088786,0.859693293659876
1658789954620454,0.43195239185168255,-0.3185473411154347,0.8505378805218582
1658789954636446,0.393987945372702,-0.37714198519874875,0.8330815594720375
1658789954652438,0.3544365606164641,-0.37885099565117875,0.8732433051041424
1658789954668429,0.33575951781490776,-0.4269474326695657,0.9998321507591363
1658789954684421,0.33917753871976775,-0.4076600289921415,0.9898222323949035
1658789954700413,0.3478446631570913,-0.36798657206073093,0.940749217975128
1658789954716405,0.3339284351873042,-0.3655451285572595,0.9567406729228658
1658789954732396,0.3263599603265428,-0.36285954070344095,0.9821316853589686
1658789954748388,0.30780498970016,-0.39765011062790867,0.9883573662928207
1658789954764380,0.28656443121995867,-0.44293888761730393,1.065629053177691
1658789954780371,0.27911802853437084,-0.4838330663004502,1.1383840695811402
1658789954796363,0.26483558403906304,-0.5011673151750973,1.0896772716868846
1658789954812355,0.25018692301823453,-0.529121843289845,1.1247119859616994
1658789954828346,0.22980086976424818,-0.6196993972686351,1.2825513084611275
1658789954844338,0.23834592202639815,-0.6067597467002366,1.3481040665293351
1658789954860330,0.23529411764705888,-0.5614709697108413,1.3173418783855952
1658789954876342,0.2289463645380332,-0.6005340657663845,1.2950026703288318
1658789954892334,0.2276035706111239,-0.6394750896467536,1.378011749446861
1658789954908326,0.2516517891203174,-0.6120088502327001,1.4284275577935457
1658789954924317,0.2604409857328145,-0.64960708018616,1.4773785000381476
1658789954940309,0.24518196383611812,-0.7497062638284886,1.4568703746089877
1658789954956301,0.24689097428854812,-0.8073243305104141,1.4726176852063784
1658789954972293,0.26739909971770803,-0.7744869153887235,1.4862897688258183
1658789954988284,0.26727702754253446,-0.7851071946288242,1.4842145418478676
1658789955004276,0.2666666666666666,-0.8114747844663155,1.4303807125963228
1658789955020268,0.26569008926527804,-0.7819333180743113,1.4114595254444193
1658789955036259,0.2494544899671931,-0.7133287556267645,1.358968490119783
1658789955052251,0.23700312809948887,-0.6698710612649728,1.287556267643244
1658789955068243,0.24176394293125814,-0.6592507820248721,1.2211490043488213
1658789955084234,0.24762340733958954,-0.6666971847104599,1.1944151979858093
1658789955100226,0.25519188220035094,-0.6474097810330357,1.1767147325856415
1658789955116218,0.25812161440451664,-0.6347142748149843,1.1435111009384302
1658789955132209,0.2510414282444495,-0.6304417486839093,1.0926070038910503
1658789955148201,0.2587319752803845,-0.6365453574425879,1.0561074235141525
1658789955164193,0.2886396581979094,-0.6104219119554437,1.061112382696269
1658789955180184,0.3285572594796671,-0.5044632639047837,0.9866483558403907
1658789955196167,0.35309376668955483,-0.4389105058365761,0.8843518730449382
1658789955212158,0.3830014496070806,-0.4102235446707865,0.8311284046692604
1658789955228150,0.4052185854886705,-0.39349965667200726,0.8196536202029447
1658789955244142,0.39826047150377697,-0.4306095979247728,0.8581063553826196
1658789955260133,0.3997253376058598,-0.39728389410238796,0.7997558556496527
1658789955276125,0.4246280613412683,-0.36420233463035023,0.7218738078889144
1658789955292117,0.46515602349889384,-0.37384603646906234,0.7324940871290151
1658789955308108,0.496406500343328,-0.33429465171282535,0.7033188372625316
1658789955324100,0.498115510795758,-0.313054093232624,0.6441138323033497
1658789955340092,0.505806057831693,-0.32416266117341896,0.6422827496757462
1658789955356083,0.520576791027695,-0.32599374380102253,0.6188448920424197
1658789955372075,0.5479209582665749,-0.2965743495841915,0.5672083619439992
1658789955388067,0.5774624246585791,-0.25262836652170595,0.48944838635843446
1658789955404059,0.5922331578545812,-0.2869306477454794,0.504951552605478
1658789955420050,0.6217746242465854,-0.2792401007095444,0.5365682459754328
1658789955436042,0.6508278019378961,-0.19464408331425975,0.43659113450827824
1658789955452034,0.6613260090028232,-0.16559090562294942,0.3688410772869455
1658789955468025,0.6552224002441447,-0.17462424658579367,0.3242847333485921
1658789955484017,0.6665751125352868,-0.17608911268787653,0.31183337148088786
1658789955500009,0.6991683833066302,-0.1383688105592431,0.341374837872892
1658789955515991,0.7685053788052185,-0.03961242084382377,0.23260852979324032
1658789955531983,0.779736018921187,-0.024841687647821686,0.14044403753719426
1658789955547974,0.7457999542229343,-0.0829480430304419,0.08502327000839216
1658789955563966,0.7138170443274587,-0.14361791409170666,0.14386205844205424
1658789955579958,0.7274891279468987,-0.11578545815213248,0.19415579461356547
1658789955595949,0.7866941329060806,-0.06329442282749698,0.14496070801861638
1658789955611941,0.8139162279697869,-0.028381780727855244,-0.005676356145571049
1658789955627933,0.8504158083466846,0.02288853284504455,-0.10650797283894109
1658789955643924,0.8501716639963375,-0.027527275501640247,-0.06732280460822482
1658789955659916,0.831250476844434,-0.03814755474174092,-0.04119935912108019
1658789955675908,0.8754406042572676,0.03826962691691449,-0.12384222171358816
1658789955691899,0.8958266575112539,0.054383154039825854,-0.2121004043640804
1658789955707891,0.9005874723430232,0.04583810177767589,-0.26727702754253446
1658789955723883,0.8946059357595182,0.03558403906309593,-0.2586099031052109
1658789955739874,0.8999771114671553,0.017761501487754572,-0.21661707484550252
1658789955755866,0.9160906385900667,0.009216449225604606,-0.24005493247882814
1658789955771858,0.9380636301213094,0.01495384145876244,-0.34906538490882744
1658789955787850,0.9626001373311972,0.044007019150072324,-0.4549019607843139
1658789955803841,0.9729762722209507,0.07635614557106862,-0.4994583047226673
1658789955819833,0.9678492408636608,0.10943770504310635,-0.5094682230869001
1658789955835846,0.9485618371862365,0.1146868085755699,-0.5459678034637978
1658789955851837,0.9302510109102009,0.11688410772869418,-0.5678187228198674
1658789955867829,0.9112077515831238,0.10089265278095638,-0.5650110627908753
1658789955883821,0.8942397192339975,0.0814831769283586,-0.5644007019150075
1658789955899812,0.8906996261539639,0.05767910276951227,-0.564522774090181
1658789955915804,0.897779812314031,0.061097123674372256,-0.5565880827038985
1658789955931796,0.9058365758754867,0.060852979324025114,-0.54023041123064
1658789955947787,0.9201190203707945,0.09930571450369996,-0.5491416800183107
1658789955963779,0.9259784847791259,0.10809491111619707,-0.5425497825589378
1658789955979771,0.9242694743266959,0.10907148851758564,-0.5228961623559929
1658789955995762,0.9121843289845124,0.11432059205004919,-0.4859082932784009
1658789956011754,0.9047379262989246,0.0995498588540471,-0.4435492484931718
1658789956027746,0.8993667505912875,0.09295796139467427,-0.4049744411383229
1658789956043738,0.8800793469138632,0.09784084840161711,-0.3622491798275731
1658789956059729,0.8666514076447696,0.1071183337148085,-0.30841535057602787
1658789956075721,0.8467536430914775,0.06146334019989297,-0.2360265506981003
1658789956091713,0.8509040970473789,0.044007019150072324,-0.2033112077515833
1658789956107704,0.8474860761425189,0.005554283970397478,-0.164858472571908
1658789956123696,0.850293736171511,0.009582665751125319,-0.11334401464866106
1658789956139688,0.8336919203479054,-0.04119935912108019,-0.03167772945754166
1658789956155670,0.8172121766994733,-0.07196154726482051,0.024963759822995257
1658789956171661,0.8062256809338519,-0.07965209430075548,0.06390478370336439
1658789956187653,0.7990234225986113,-0.10931563286793322,0.15387197680628706
1658789956203645,0.7885252155336842,-0.13580529488059812,0.1986724650949876
1658789956219637,0.7804684519722285,-0.14520485236896308,0.20929274433508827
1658789956235628,0.7635004196231021,-0.1328755626764324,0.21490806439307253
1658789956251620,0.7466544594491493,-0.09881742580300612,0.24249637598229956
1658789956267612,0.7216296635385673,-0.08404669260700404,0.28534370946822296
1658789956283603,0.7060044251163502,-0.12066834515907532,0.3612726024261841
1658789956299595,0.7089341573205159,-0.17596704051270295,0.3969176775768677
1658789956315587,0.7016098268101016,-0.20343327992675686,0.40802624551766264
1658789956331578,0.6947737850003817,-0.1660791943236437,0.4547798886091403
1658789956347570,0.6762188143739989,-0.20404364080262472,0.5550011444266421
1658789956363562,0.6673075455863282,-0.22491798275730535,0.5933318074311433
1658789956379553,0.6709697108415353,-0.2124666208896011,0.571236743724727
1658789956395545,0.6641336690318154,-0.1914702067597469,0.5968719005111769
1658789956411537,0.6298313878080419,-0.17291523613336368,0.6814679179064624
1658789956427528,0.6149385824368654,-0.20929274433508827,0.7415274280918593
1658789956443520,0.5994354161898219,-0.2473792629892424,0.6946517128252081
1658789956459512,0.5946746013580526,-0.21649500267032895,0.7274891279468987
1658789956475494,0.5747768368047605,-0.21637293049515538,0.7965819790951398
1658789956491486,0.5499961852445256,-0.2678873884184023,0.8300297550926983
1658789956507477,0.5331502250705729,-0.2537270160982681,0.8014648661020827
1658789956523469,0.501533531700618,-0.29596398870832363,0.8515144579232468
1658789956539461,0.47992675669489593,-0.27997253376058584,0.8640878919661246
1658789956555452,0.4566109712367439,-0.3277027542534525,0.8919203479056996
1658789956571444,0.45429159990844603,-0.348332951857786,0.8859388113221947
1658789956587436,0.4650339513237203,-0.316472114137484,0.8964370183871218
1658789956603428,0.4612497138933396,-0.29633020523384435,0.9101091020065617
1658789956619419,0.43903257801174966,-0.30634012359807716,0.9181658655680174
1658789956635411,0.4112001220721755,-0.2990157930876629,0.8771496147096975
1658789956651403,0.4072938124666212,-0.28033875028610655,0.9066910811017017
1658789956667394,0.3950865949492641,-0.3057297627222093,0.9763942931258107
1658789956683386,0.3745784695201033,-0.37421225299458305,1.021560997940032
1658789956699378,0.3646906233310441,-0.38800640878919657,0.98286411841001
1658789956715369,0.3657892729076062,-0.42218661783779643,1.0695353627832453
1658789956731361,0.346501869230182,-0.45160601205462747,1.1288624399176017
1658789956747353,0.34540321965361986,-0.45966277561608315,1.1856260013733122
1658789956763344,0.34161898222323916,-0.4829785610742352,1.186846723125048
1658789956779336,0.35761043717097696,-0.5143511100938429,1.2763256275272754
1658789956795318,0.3485770962081327,-0.5091020065613794,1.3344319829098952
1658789956811310,0.3392996108949413,-0.5603723201342792,1.352986953536278
1658789956827302,0.3535820553902491,-0.6096894789044023,1.4093842984664686
1658789956843293,0.39166857404440414,-0.6422827496757457,1.4690775921263448
1658789956859285,0.40338750286106695,-0.6659647516594185,1.4878767071030747
1658789956875277,0.4057068741893648,-0.6778057526512549,1.4991073472190433
1658789956891268,0.3917906462195777,-0.7182116426337073,1.4881208514534219
1658789956907260,0.37653162432288134,-0.7106431677729459,1.480674448767834
1658789956923252,0.35687800411993553,-0.6950179293507288,1.4403906309605556
1658789956939243,0.3468680857557027,-0.6508278019378957,1.3855802243076223
1658789956955235,0.3411306935225449,-0.6391088731212329,1.3195391775387195
1658789956971227,0.3478446631570913,-0.6145723659113451,1.2720531013962004
1658789956987218,0.34747844663157057,-0.6157930876630808,1.2469062333104448
1658789957003210,0.3440604257267106,-0.6311741817349508,1.21699855039292
1658789957019202,0.35846494239719195,-0.6383764400701915,1.18965438315404
1658789957035194,0.3743343251697562,-0.6164034485389487,1.1673151750972766
1658789957051185,0.3934996566720077,-0.5598840314335849,1.0867475394827188
1658789957067177,0.4022888532845048,-0.5379110399023421,1.0091096360723277
1658789957083169,0.4191348134584576,-0.506660563057908,0.9503929198138401
1658789957099160,0.42853437094682256,-0.49823758297093157,0.9456321049820708
1658789957115142,0.45331502250705746,-0.45929655909056244,0.9876249332417792
1658789957131134,0.46222629129472814,-0.40448615243762864,0.9218280308232245
1658789957147126,0.4927443350881209,-0.3705500877393759,0.7798580910963606
1658789957163118,0.5048294804303044,-0.4329289692530707,0.8092774853131912
1658789957179109,0.5082475013351644,-0.40070191500724794,0.8335698481727318
1658789957195101,0.5008010986495766,-0.3281910429541468,0.7619134813458457
1658789957211093,0.5210650797283893,-0.30438696879530003,0.6853742275120167
1658789957227084,0.5283894102388036,-0.31757076371404613,0.6435034714274819
1658789957243076,0.5431601434348057,-0.2893720912489508,0.6270237277790498
1658789957259068,0.5293659876401922,-0.31329823758297115,0.6096894789044018
1658789957275059,0.5458457312886242,-0.2570229648279545,0.5070267795834287
1658789957291051,0.595407034409094,-0.18512245365072078,0.4108339055466548
1658789957307043,0.6168917372396425,-0.20306706340123615,0.4350041962310218
1658789957323034,0.616769665064469,-0.20550850690470757,0.39423208972304913
1658789957339026,0.618478675516899,-0.17645532921339724,0.31732661936369855
1658789957355018,0.642038605325399,-0.17694361791409152,0.2721599145494773
1658789957371009,0.6917219806210424,-0.129579613946746,0.17657740138857125
1658789957387001,0.7396963454642558,-0.062317845426107965,0.17169451438162842
1658789957402993,0.7558098725871671,-0.03057907988097952,0.13373006790264785
1658789957418985,0.7494621194781415,-0.05658045319295013,0.07525749599450648
1658789957434967,0.7396963454642558,-0.07208361943999408,0.03167772945754166
1658789957450958,0.7611810482948043,-0.036438544289310926,0.0394903486686502
1658789957466950,0.7638666361486228,-0.02154573891813527,0.027161058976119534
1658789957482942,0.792553597314412,-0.01495384145876244,-0.06366063935301769
1658789957498933,0.8211184863050276,-0.003112840466926059,-0.09515526054779899
1658789957514925,0.8274662394140533,0.021911955443655984,-0.10955977721828036
1658789957530917,0.8485847257190811,0.06976424811169579,-0.13189898527504385
1658789957546908,0.8697032120241088,0.0499885557335773,-0.17059586480506583
1658789957562900,0.8888685435263604,0.011902037079423167,-0.2647135118638895
1658789957578892,0.9092545967803467,0.00848401617456318,-0.28278019378957797
1658789957594884,0.9361104753185323,0.016662851911192433,-0.2654459449149309
1658789957610875,0.9517357137407494,0.018493934538795997,-0.2923018234531165
1658789957626867,0.9469748989089801,-0.010070954451819603,-0.3400320439459832
1658789957642859,0.9505149919890137,0.021667811093308842,-0.40521858548867007
1658789957658850,0.9689478904402229,0.0424200808728159,-0.4863965819790952
1658789957674842,0.975173571374075,0.07757686732280433,-0.5424277103837642
1658789957690834,0.9624780651560236,0.08184939345387932,-0.5595178149080642
1658789957706825,0.9342793926909287,0.08380254825665645,-0.5521934843976499
1658789957722817,0.9069352254520489,0.07733272297245719,-0.5373006790264743
1658789957738809,0.8860608834973682,0.07049668116273722,-0.5637903410391396
1658789957754791,0.8657969024185546,0.045349813076981604,-0.5598840314335849
1658789957770783,0.8732433051041424,0.01751735713740743,-0.5364461738002593
1658789957786774,0.8944838635843446,0.03973449301899734,-0.4922560463874266
1658789957802766,0.9251239795529109,0.09515526054779855,-0.48944838635843446
1658789957818758,0.9297627222095066,0.09625391012436069,-0.49079118028534374
1658789957834749,0.9228046082246131,0.09857328145265853,-0.498970016021973
1658789957850741,0.9169451438162817,0.10675211718928779,-0.45502403295948746
1658789957866733,0.914869916838331,0.11053635461966849,-0.4215762569619286
1658789957882724,0.9107194628824296,0.10223544670786566,-0.33893339436942105
1658789957898716,0.8888685435263604,0.10699626153963493,-0.25775539787899593
1658789957914708,0.8589608606088346,0.089906157015335,-0.21905851834897394
1658789957930699,0.8441901274128325,0.05926604104676869,-0.21576256961928753
1658789957946691,0.8450446326390475,0.04083314259555948,-0.15631342030975803
1658789957962683,0.8523689631494618,0.0012817578393224949,-0.06292820630197626
1658789957978675,0.8496833752956432,-0.011169604028381741,0.0109254596780346
1658789957994666,0.8377203021286332,0.01605249103532458,0.02923628595407024
1658789958010658,0.8255130846112761,-0.039124132143129486,0.10980392156862706
1658789958026650,0.8241702906843669,-0.08355840390630975,0.1398336766613264
1658789958042641,0.804516670481422,-0.07953002212558191,0.1503318837262535
1658789958058633,0.8037842374303805,-0.049500267032883016,0.17206073090714913
1658789958074646,0.7803463797970549,-0.060975051499198685,0.23150988021667818
1658789958090637,0.744457160296025,-0.11578545815213248,0.313786526283665
1658789958106629,0.7224841687647823,-0.15008773937590592,0.3612726024261841
1658789958122621,0.7165026321812773,-0.1636377508201723,0.34552529182879343
1658789958138612,0.7201647974364844,-0.14923323414969092,0.33990997177080917
1658789958154604,0.708323796444648,-0.1345845731288624,0.40473029678797623
1658789958170596,0.6886701762417031,-0.15545891508354304,0.43744563973449324
1658789958186587,0.6792706187533382,-0.13556115053025097,0.44916456855115605
1658789958202579,0.6735332265201803,-0.1450827801937895,0.49665064469367515
1658789958218571,0.6404516670481426,-0.2024567025253683,0.5480430304417485
1658789958234562,0.618478675516899,-0.23456168459601745,0.5705043106736856
1658789958250554,0.6015106431677726,-0.17560082398718224,0.5607385366597999
1658789958266546,0.582345311665522,-0.14483863584344236,0.6309300373846041
1658789958282538,0.5401083390554664,-0.18878461890592835,0.7024643320363166
1658789958298529,0.5112993057145037,-0.203677424277104,0.7311512932021058
1658789958314521,0.5029983978027008,-0.23492790112153816,0.7222400244144351
1658789958330513,0.49787136644541086,-0.2100251773861297,0.7072251468680859
1658789958346504,0.48200198367284663,-0.19549858854047475,0.7635004196231021
1658789958362496,0.45087357900358604,-0.24115358205539028,0.8419928282597082
1658789958378488,0.4368352788586254,-0.24921034561684596,0.8720225833524067
1658789958394470,0.4329289692530711,-0.240665293354696,0.8751964599069204
1658789958410462,0.41522850385290333,-0.2558022430762188,0.9348897535667966
1658789958426453,0.3981383993286034,-0.30267795834287003,0.9887235828183414
1658789958442445,0.40216678110933124,-0.29291218432898436,0.9809109636072328
1658789958458437,0.4026550698100255,-0.30853742275120144,1.032913710231174
1658789958474428,0.3787289234760056,-0.26190585183489734,1.0069123369192035
1658789958490420,0.33246356908522134,-0.28546578164339653,1.0884565499351488
1658789958506412,0.2964522774090179,-0.3550469214923324,1.1504692149233238
1658789958522403,0.277653162432288,-0.4142519264515143,1.1945372701609829
1658789958538395,0.2730144197756923,-0.4018005645838101,1.164629587243458
1658789958554387,0.2562905317769131,-0.388738841840238,1.1917296101319907
1658789958570378,0.25970855268177306,-0.37250324254215306,1.2395819028000306
1658789958586370,0.2796063172350651,-0.42597085526817713,1.319417105363546
1658789958602362,0.30731670099946573,-0.4776073853665981,1.4113374532692458
1658789958618353,0.31403067063401213,-0.44794384679942034,1.433188372625315
1658789958634345,0.32196536202029424,-0.494697489890898,1.426352330815595
1658789958650337,0.315495536736095,-0.5547570000762949,1.4572365911345084
1658789958666329,0.29083695735103365,-0.5818570229648281,1.4894636453803312
1658789958682320,0.28461127641718154,-0.581612878614481,1.5445181963836117
1658789958698312,0.29681849393453863,-0.5923552300297552,1.4864118410009919
1658789958714294,0.3191577019913021,-0.620309758144503,1.4191500724803543
1658789958730286,0.32819104295414636,-0.6637674525062942,1.4214694438086521
1658789958746277,0.3174486915388721,-0.6497291523613336,1.4036469062333108
1658789958762269,0.30475318532082074,-0.6105439841306173,1.293537804226749
1658789958778261,0.29169146257724865,-0.6287327382314793,1.2316472114137484
1658789958794252,0.27704280155642014,-0.6598611429007399,1.210406652933547
1658789958810244,0.28876173037308295,-0.6256809338521401,1.1803768978408486
1658789958826236,0.2905928130006865,-0.6413061722743572,1.1934386205844207
1658789958842228,0.3007248035400929,-0.6543678950179292,1.1354543373769745
1658789958858219,0.3300221255817499,-0.6261692225528344,1.058548867017624
1658789958874211,0.352483405813687,-0.6133516441596094,1.0695353627832453
1658789958890203,0.37238117036697904,-0.5712367437247274,1.0728313115129318
1658789958906194,0.3976501106279091,-0.49713893339436943,1.0093537804226749
1658789958922186,0.4115663385976962,-0.4884718089570459,0.9601586938277258
1658789958938178,0.4216983291371026,-0.4910353246356909,0.9506370641641873
1658789958954169,0.42853437094682256,-0.4623483634699017,0.9342793926909287
1658789958970161,0.4279240100709547,-0.43830014496070824,0.9141374837872895
1658789958986153,0.4313420309758147,-0.42230869001297,0.8979018844892046
1658789959002144,0.45636682688639674,-0.3982604715037765,0.8572518501564046
1658789959018136,0.49066910811017017,-0.345769436179141,0.8217288471808954
1658789959034118,0.4950637064164187,-0.3096360723277636,0.7730220492866406
1658789959050110,0.49408712901503016,-0.29376668955519936,0.7051499198901352
1658789959066102,0.5062943465323873,-0.30951400015259,0.6666971847104604
1658789959082093,0.5309529259174486,-0.3345387960631725,0.652292668039979
1658789959098085,0.5542687113756006,-0.3168383306630047,0.6856183718623639
1658789959114077,0.5691615167467763,-0.25091935606927596,0.6549782558937975
1658789959130068,0.578072785534447,-0.24628061341268026,0.6024872205691612
1658789959146060,0.599679560540169,-0.1957427328908219,0.46845197222858026
1658789959162052,0.6470435645075154,-0.15777828641184088,0.4220645456626233
1658789959178043,0.6864728770885788,-0.1464255741206988,0.4523384451056689
1658789959194035,0.6999008163576717,-0.12274357213702602,0.4931105516136416
1658789959210027,0.6999008163576717,-0.12323186083772031,0.4127870603494319
1658789959226019,0.7438467994201572,-0.12762645914396886,0.32916762035553493
1658789959242010,0.7533684290836957,-0.13348592355230027,0.31854734111543426
1658789959258002,0.7499504081788357,-0.1325093461509117,0.3851987487602049
1658789959273994,0.7501945525291829,-0.1433737697413595,0.45160601205462747
1658789959289985,0.7332265201800565,-0.13531700617990383,0.35590142671854696
1658789959305977,0.7726558327611199,-0.0631723506523234,0.24164187075608456
1658789959321969,0.8034180209048598,-0.020813305867093845,0.23578240634775316
1658789959337960,0.8098878461890591,-0.03179980163271523,0.2435950255588617
1658789959353973,0.795971618219272,-0.03143358510719452,0.20794995040817899
1658789959369965,0.8046387426565955,-0.04083314259555948,0.17926298924238981
1658789959385956,0.8283207446402683,-0.045471885252155175,0.17145037003128127
1658789959401948,0.8625009536888681,-0.019592584115358136,0.12664988174258074
1658789959417940,0.8646982528419924,-0.03790341039139378,0.09698634317540211
1658789959433931,0.8488288700694282,-0.094300755321584,0.0747692072938122
1658789959449923,0.8505378805218582,-0.09381246662088971,0.06182955672541368
1658789959465915,0.8782482642862597,-0.03802548256656735,0.06707866025787723
1658789959481907,0.9103532463569088,-0.005676356145571049,0.015686274509803866
1658789959497898,0.9171892881666288,-0.03607232776379021,0.014343480582894585
1658789959513890,0.8910658426794846,-0.06988632028686981,-0.05780117494468584
1658789959529882,0.9015640497444117,-0.02923628595407024,-0.0896620126649883
1658789959545873,0.9209735255970095,0.008239871824216038,-0.06329442282749698
1658789959561865,0.9361104753185323,0.04205386434729519,-0.0783093003738462
1658789959577857,0.9367208361944002,0.01239032578011745,-0.08221560997940047
1658789959593848,0.9042496375982303,-0.0462043183031966,-0.09735255970092327
1658789959609840,0.9145037003128103,-0.006286717021438903,-0.13275349050125884
1658789959625832,0.9580834668497751,0.014099336232547444,-0.1412985427634088
1658789959641823,0.9755397878995957,0.006286717021438903,-0.22418554970626392
1658789959657815,0.9579613946746015,-0.052063782711528006,-0.3134203097581447
1658789959673797,0.9357442587930116,-0.05548180361638799,-0.34650186923018245
1658789959689789,0.9329365987640195,-0.047913328755626594,-0.37714198519874875
1658789959705781,0.9101091020065617,-0.06451514457923269,-0.4442816815442132
1658789959721772,0.8996108949416346,-0.09015030136568258,-0.5215533684290836
1658789959737764,0.902052338445106,-0.08624399176012831,-0.5548790722514685
1658789959753756,0.9151140611886781,-0.06390478370336483,-0.5910124361028459
1658789959769747,0.9319600213626309,-0.031189440756847375,-0.6282444495307851
1658789959785739,0.9285420004577709,-0.032410162508583085,-0.6349584191653315
1658789959801731,0.9370870527199209,-0.02911421377889667,-0.6153047989623865
1658789959817722,0.9389181353475244,-0.022034027618829555,-0.5930876630807966
1658789959833714,0.9483176928358894,-0.0020141908903639205,-0.6146944380865187
1658789959849706,0.9428244449530787,-0.005065995269703194,-0.575631342030976
1658789959865697,0.9344014648661023,-0.006775005722133187,-0.52143129625391
1658789959881689,0.940749217975128,0.019470511940184565,-0.45758754863813245
1658789959897681,0.9419699397268637,0.05255207141222229,-0.4340276188296328
1658789959913673,0.9256122682536052,0.06939803158617508,-0.4240177004654
1658789959929664,0.914015411612116,0.08587777523460716,-0.42999923704890497
1658789959945656,0.9073014419775696,0.06305027847714939,-0.3933775844968337
1658789959961648,0.897779812314031,0.05914396887159512,-0.32379644464789825
1658789959977639,0.8970473792629896,0.058411535820553695,-0.26434729533836876
1658789959993621,0.8955825131609068,0.06829938200961294,-0.2565346761272602
1658789960009613,0.892652780956741,0.04522774090180803,-0.23114366369115746
1658789960025605,0.8917982757305261,0.018493934538795997,-0.20782787823300541
1658789960041597,0.8811779964904254,-0.020569161516746703,-0.1703517204547187
1658789960057588,0.8875257495994511,-0.018371862363622427,-0.14825665674830235
1658789960073580,0.8871595330739304,-0.024353398947127403,-0.09759670405127041
1658789960089572,0.8861829556725418,-0.021179522392614558,-0.06536964980544768
1658789960105563,0.8888685435263604,-0.011413748378728883,-0.024475471122300974
1658789960121555,0.8892347600518811,0.010803387502861028,-0.019104295414663852
1658789960137547,0.8721446555275802,-0.010315098802166744,-0.0026245517662317752
1658789960153538,0.8439459830624854,-0.046814679179064456,0.07330434119172935
1658789960169530,0.8018310826276034,-0.06829938200961339,0.09002822919050857
1658789960185522,0.7907225146868084,-0.04718089570458517,0.1427634088654921
1658789960201513,0.7783932249942778,-0.07513542381933336,0.1978179598687726
1658789960217505,0.7821774624246585,-0.07476920729381265,0.2146639200427254
1658789960233497,0.7650873579003585,-0.0762340733958955,0.2444495307850767
1658789960249488,0.7423819333180743,-0.10821698329137108,0.2876630807965208
1658789960265480,0.7385976958876936,-0.10846112764171822,0.28827344167238866
1658789960281472,0.7449454489967193,-0.06683451590753053,0.31598382543678927
1658789960297464,0.7280994888227665,-0.11786068513008319,0.40302128633554624
1658789960313446,0.6951400015259024,-0.16852063782711513,0.41388570992599405
1658789960329437,0.6804913405050739,-0.162294956893263,0.4498970016021975
1658789960345429,0.6880598153658353,-0.15411612115663376,0.509224078736553
1658789960361421,0.6701152056153203,-0.12323186083772031,0.4854200045777066
1658789960377412,0.6388647287708862,-0.13812466620889596,0.48395513847562377
1658789960393404,0.6015106431677726,-0.1669336995498587,0.5456015869382771
1658789960409396,0.579781795986877,-0.16766613260090013,0.6024872205691612
1658789960425387,0.5767299916075377,-0.13348592355230027,0.5963836118104826
1658789960441379,0.5756313420309755,-0.14032196536202024,0.6507057297627226
1658789960457371,0.5449912260624092,-0.22357518883039607,0.6714579995422296
1658789960473363,0.5175249866483558,-0.2506752117189288,0.7162584878309302
1658789960489354,0.5105668726634622,-0.2667887388418402,0.8089112687876705
1658789960505346,0.4988479438467994,-0.24383916990920884,0.8314946211947811
1658789960521338,0.4984817273212787,-0.24713511863889526,0.824414435034714
1658789960537329,0.4733348592355231,-0.22980086976424818,0.7455558098725872
1658789960553321,0.459418631265736,-0.25262836652170595,0.8811779964904254
1658789960569313,0.4409857328145268,-0.2991378652628365,0.9817654688334478
1658789960585304,0.4392767223620968,-0.26556801709010447,0.9329365987640195
1658789960601296,0.422430762188144,-0.25763332570382236,0.8452887769893946
1658789960617288,0.39496452277409055,-0.30804913405050716,0.9101091020065617
1658789960633300,0.3594415197985805,-0.36908522163729307,1.0143587396047913
1658789960649292,0.3549248493171584,-0.3610284580758374,1.072465094987411
1658789960665284,0.343083848325322,-0.3820248722056916,1.0822308690012967
1658789960681275,0.3242847333485921,-0.3684748607614252,0.9917753871976807
1658789960697267,0.32196536202029424,-0.319890135042344,0.9964141298542764
1658789960713259,0.2935225452048522,-0.3753109025711452,1.1053025101091016
1658789960729251,0.2927901121538108,-0.3634699015793088,1.1411917296101324
1658789960745242,0.28363469901579297,-0.3533379110399024,1.134477759975586
1658789960761234,0.27740901808194085,-0.3424734874494546,1.0985885404745552
1658789960777226,0.2544594491493095,-0.4071717402914472,1.1657282368200201
1658789960793217,0.22943465323872747,-0.45709925993743816,1.2019836728465707
1658789960809209,0.23846799420157172,-0.4788281071183338,1.322224765392538
1658789960825201,0.25555809872587165,-0.4673533226520181,1.3573815518425265
1658789960841192,0.25128557259479667,-0.4922560463874266,1.3562829022659644
1658789960857184,0.2289463645380332,-0.5613488975356677,1.3426108186465244
1658789960873176,0.24921034561684596,-0.5880827038986802,1.4257419699397271
1658789960889167,0.2830243381399251,-0.5821011673151752,1.4962996871900511
1658789960905159,0.2964522774090179,-0.5434042877851528,1.4884870679789426
1658789960921151,0.30731670099946573,-0.6026092927443352,1.4608987563897156
1658789960937142,0.2993820096131836,-0.6273899443045701,1.4535744258793013
1658789960953094,0.2885175860227358,-0.5772182803082324,1.44600595101854
1658789960969086,0.2663004501411459,-0.5550011444266421,1.4355077439536128
1658789960985077,0.24689097428854812,-0.559273670557717,1.3761806668192573
1658789961001069,0.25641260395208665,-0.5637903410391396,1.3689784084840158
1658789961017061,0.25470359349965666,-0.534248874647135,1.3573815518425265
1658789961033053,0.25677882047760736,-0.48944838635843446,1.2854810406652932
1658789961049044,0.26861982146944374,-0.5020218204013123,1.253376058594644
1658789961065036,0.2835126268406194,-0.5051956969558251,1.2211490043488213
1658789961081028,0.2909590295262072,-0.4901808194094759,1.2173647669184406
1658789961097019,0.29889372091248934,-0.4353704127565421,1.1555962462806137
1658789961113011,0.3224536507209885,-0.40790417334248863,1.0935835812924388
1658789961129003,0.35175097276264555,-0.39349965667200726,1.075883115892271
1658789961144994,0.37103837644006976,-0.39606317235065225,1.090409704737926
1658789961160986,0.3714045929655905,-0.3335622186617839,1.0374303807125962
1658789961176978,0.35931944762340695,-0.2859540703440908,0.9270771343556881
1658789961192969,0.3671320668345155,-0.3209887846189061,0.9456321049820708
1658789961208961,0.39716182192721483,-0.3218432898451211,0.9207293812466624
1658789961224953,0.4196231021591519,-0.2848554207675287,0.9038834210727096
1658789961240944,0.43060959792477327,-0.25934233615625235,0.8662851911192488
1658789961256936,0.43195239185168255,-0.2611734187838559,0.8307621881437397
1658789961272949,0.46478980697337313,-0.2575112535286488,0.7731441214618142
1658789961288941,0.49750514991989014,-0.26105134660868234,0.7519035629816129
1658789961304932,0.5182574196993972,-0.2792401007095444,0.7738765545128556
1658789961320924,0.5363241016250857,-0.2637369344625009,0.718577859159228
1658789961336916,0.577218280308232,-0.21747158007171752,0.6244602121004039
1658789961352907,0.5993133440146483,-0.21844815747310609,0.6376440070191505
1658789961368899,0.5991912718394747,-0.19501029983978047,0.602243076218814
1658789961384891,0.5925993743801019,-0.14251926451514452,0.5353475242236971
1658789961400882,0.6275120164797441,-0.18487830930037363,0.5751430533302813
1658789961416874,0.6489967193102926,-0.2280918593118182,0.5263141832608529
1658789961432866,0.6891584649423974,-0.15277332722972448,0.4409857328145268
1658789961448857,0.6922102693217367,-0.15533684290836947,0.43060959792477327
1658789961464849,0.6789044022278174,-0.18915083543144906,0.4569771877622646
1658789961480841,0.709178301670863,-0.15399404898146019,0.37225909819180547
1658789961496832,0.7377431906614786,-0.1593652246890973,0.3406424048218506
1658789961512824,0.7500724803540093,-0.13385214007782098,0.3477225909819177
1658789961528816,0.7396963454642558,-0.10894941634241251,0.33075455863279135
1658789961544808,0.7365224689097429,-0.08221560997940047,0.23871213855191886
1658789961560799,0.7527580682078279,-0.03790341039139378,0.13958953231097926
1658789961576791,0.7915770199130234,0.0036011291676203427,0.14959945067521208
1658789961592773,0.8206301976043333,0.016906996261539575,0.17987335011825767
1658789961608765,0.8212405584802012,0.0018921187151903496,0.21100175478751826
1658789961624756,0.8279545281147476,-0.024597543297474544,0.1474021515220878
1658789961640748,0.8543221179522389,-0.03350881208514522,0.019348439765010994
1658789961656740,0.8773937590600447,-0.01629663538567172,-0.0039673456931410556
1658789961672732,0.8756847486076147,-0.02032501716639956,0.04437323567559304
1658789961688723,0.8650644693675131,0.019348439765010994,0.03472953383688093
1658789961704715,0.8954604409857332,0.019348439765010994,0.03851377126726163
1658789961720707,0.904615854123751,-0.04046692607003877,-0.017883573662928143
1658789961736698,0.9168230716411081,-0.00323491264209963,-0.07757686732280478
1658789961752690,0.9103532463569088,0.01226825360494388,-0.09210345616845972
1658789961768682,0.8920424200808732,-0.006408789196612474,-0.1371480888075074
1658789961784673,0.8867933165484096,0.019470511940184565,-0.19769588769359903
1658789961800665,0.895216296635386,0.035095750362401645,-0.2196688792248418
1658789961816657,0.9042496375982303,0.05145342183566015,-0.24335088120851456
1658789961832648,0.930495155260548,0.022156099794003126,-0.2554360265506981
1658789961848640,0.9494163424124515,-0.034973678187228074,-0.2990157930876629
1658789961864632,0.9643091477836272,-0.029480430304417382,-0.3576104371709774
1658789961880623,0.9899443045700771,0.0018921187151903496,-0.3845883878843366
1658789961896615,0.9782253757534143,0.01886015106431671,-0.39691767757686724
1658789961912597,0.9599145494773786,0.0432745860990309,-0.4586861982146946
1658789961928589,0.9378194857709623,0.014465552758068156,-0.4851758602273595
1658789961944581,0.9247577630273902,-0.015930418860151008,-0.4804150453955902
1658789961960572,0.9271992065308616,0.010803387502861028,-0.48737315938048376
1658789961976564,0.9350118257419702,0.030090791180285237,-0.48273441672388806
1658789961992556,0.9269550621805145,0.032288090333409514,-0.500679026474403
1658789962008547,0.9235370412756545,0.014343480582894585,-0.48017090104524307
1658789962024539,0.9324483100633252,0.03558403906309593,-0.4650339513237203
1658789962040531,0.9351338979171437,0.05023270008392444,-0.45160601205462747
1658789962056522,0.9344014648661023,0.061097123674372256,-0.456000610360876
1658789962072514,0.9405050736247809,0.07135118638895221,-0.4218204013122757
1658789962088506,0.9400167849240866,0.06463721675440581,-0.36041809719996953
1658789962104498,0.9439230945296408,0.06829938200961294,-0.3324635690852218
1658789962120489,0.9452658884565501,0.08599984740978073,-0.32928969253070894
1658789962136481,0.9326924544136723,0.07672236209658934,-0.3082932784008543
