Timestamp (microseconds),Gyro X (°/s),Gyro Y (°/s),Gyro Z (°/s)
1658789933591430,-1.3733119707026162,0.7019150072480898,-2.4719615472647547
1658789933607430,-0.7019150072480898,0.33569848172737693,-2.04470893415737
1658789933623430,1.983672846570471,0.7629510948347615,-1.4343480582895154
1658789933639430,1.9226367589837992,1.0681315327688026,-1.6784924086366573
1658789933655429,-0.5798428320745188,0.9460593575952316,-3.0212863355459376
1658789933671429,-0.03051804379333589,1.1902037079423735,-3.570611123826893
1658789933687429,0.5188067444876197,1.4953841458761872,-2.9602502479590385
1658789933703429,0.8239871824216607,1.4343480582895154,-3.3875028610666504
1658789933719429,0.3967345693140487,1.5564202334630863,-4.852368963149502
1658789933735428,-0.09155413138023505,1.8005645838102282,-4.42511635004189
1658789933751428,1.2512397955290453,1.3733119707026162,-3.2043945983061803
1658789933767428,2.4719615472647547,1.3733119707026162,-1.9226367589837992
1658789933783428,1.983672846570471,0.6408789196611906,-2.04470893415737
1658789933799428,1.1902037079423735,0.09155413138023505,-2.655069810025225
1658789933815427,1.3733119707026162,0.2746623941404778,-2.3498893720911838
1658789933831427,0.2746623941404778,0.9460593575952316,-1.739528496223329
1658789933847427,-1.0070954451819034,0.45777065690094787,-2.410925459678083
1658789933863427,0.03051804379333589,0.45777065690094787,-2.7771419851987957
1658789933879427,2.04470893415737,1.0070954451819034,-2.227817196917613
1658789933895426,1.9226367589837992,1.3122758831159445,-2.105745021744042
1658789933911407,0.8850232700083325,1.0681315327688026,-2.4719615472647547
1658789933927407,-0.33569848172737693,0.8239871824216607,-2.4719615472647547
1658789933943407,0.45777065690094787,0.2746623941404778,-2.105745021744042
1658789933959406,-0.2746623941404778,0.7629510948347615,-1.0070954451819034
1658789933975406,-0.2746623941404778,0.15259021896690683,-1.1291676203554744
1658789933991406,-0.33569848172737693,-0.5188067444876197,-1.0681315327688026
1658789934007406,0.45777065690094787,-0.15259021896690683,-0.6408789196611906
1658789934023406,0.7019150072480898,0.45777065690094787,-1.1291676203554744
1658789934039405,-0.09155413138023505,0.213626306553806,-1.4953841458761872
1658789934055405,0.09155413138023505,-0.33569848172737693,-2.105745021744042
1658789934071405,2.3498893720911838,0.15259021896690683,-2.04470893415737
1658789934087405,1.739528496223329,1.4343480582895154,-1.5564202334630863
1658789934103405,-0.8239871824216607,1.1902037079423735,-2.288853284504512
1658789934119404,-0.5188067444876197,0.3967345693140487,-1.739528496223329
1658789934135404,1.983672846570471,-0.09155413138023505,-0.6408789196611906
1658789934151404,2.04470893415737,0.45777065690094787,-0.2746623941404778
1658789934167404,-0.213626306553806,0.5798428320745188,-0.6408789196611906
1658789934183404,-0.9460593575952316,0.03051804379333589,-0.7629510948347615
1658789934199403,1.6174563210497581,-0.45777065690094787,-0.7629510948347615
1658789934215403,2.532997634851654,0.45777065690094787,-0.33569848172737693
1658789934231414,2.288853284504512,0.9460593575952316,-0.33569848172737693
1658789934247414,1.1902037079423735,0.9460593575952316,-1.1291676203554744
1658789934263414,0.45777065690094787,-0.03051804379333589,-1.983672846570471
1658789934279414,0.33569848172737693,0.5798428320745188,-1.5564202334630863
1658789934295414,0.8239871824216607,1.1291676203554744,-0.3967345693140487
1658789934311413,2.227817196917613,1.0681315327688026,-0.213626306553806
1658789934327413,3.5095750362402214,-0.03051804379333589,-0.45777065690094787
1658789934343413,2.8381780727854675,-0.6408789196611906,-0.7629510948347615
1658789934359413,0.15259021896690683,0.03051804379333589,-0.9460593575952316
1658789934375413,-1.4343480582895154,0.8850232700083325,-1.3122758831159445
1658789934391412,-0.7629510948347615,0.09155413138023505,-2.4719615472647547
1658789934407412,1.9226367589837992,-0.09155413138023505,-2.7771419851987957
1658789934423412,2.288853284504512,0.15259021896690683,-1.9226367589837992
1658789934439412,1.8616006713969,0.5188067444876197,-1.4953841458761872
1658789934455412,1.4953841458761872,0.2746623941404778,-1.3122758831159445
1658789934471411,1.2512397955290453,-0.213626306553806,-1.1902037079423735
1658789934487411,-0.33569848172737693,-0.8850232700083325,-1.4343480582895154
1658789934503411,-1.6784924086366573,-0.7629510948347615,-1.2512397955290453
1658789934519411,-1.0681315327688026,-0.6408789196611906,-0.7019150072480898
1658789934535411,1.1902037079423735,-0.3967345693140487,-0.6408789196611906
1658789934551391,1.2512397955290453,-0.7019150072480898,-1.4953841458761872
1658789934567391,-0.8239871824216607,-1.1902037079423735,-1.8616006713969
1658789934583391,-1.8005645838102282,-1.1902037079423735,-1.3122758831159445
1658789934599391,1.2512397955290453,0.2746623941404778,-0.5798428320745188
1658789934615390,3.5095750362402214,0.09155413138023505,-0.3967345693140487
1658789934631390,3.0823224231326094,-0.3967345693140487,-0.3967345693140487
1658789934647390,0.3967345693140487,-0.45777065690094787,-0.33569848172737693
1658789934663390,-1.9226367589837992,-0.09155413138023505,-0.45777065690094787
1658789934679390,-1.0681315327688026,0.5798428320745188,-0.213626306553806
1658789934695389,0.5798428320745188,0.33569848172737693,-0.8850232700083325
1658789934711389,1.4953841458761872,0.5798428320745188,-1.6784924086366573
1658789934727389,-0.33569848172737693,1.1902037079423735,-1.9226367589837992
1658789934743389,-0.6408789196611906,1.1902037079423735,-1.739528496223329
1658789934759389,0.7019150072480898,0.5798428320745188,-1.5564202334630863
1658789934775388,2.532997634851654,0.213626306553806,-1.3733119707026162
1658789934791388,0.7019150072480898,0.3967345693140487,-0.9460593575952316
1658789934807388,-1.739528496223329,0.15259021896690683,-0.3967345693140487
1658789934823388,0.213626306553806,0.3967345693140487,-0.8239871824216607
1658789934839388,0.2746623941404778,0.33569848172737693,-1.3122758831159445
1658789934855387,-1.0070954451819034,0.3967345693140487,-1.1291676203554744
1658789934871399,0.15259021896690683,0.8239871824216607,-0.9460593575952316
1658789934887398,0.6408789196611906,1.4953841458761872,-0.7019150072480898
1658789934903398,1.1902037079423735,1.3733119707026162,-1.3122758831159445
1658789934919398,0.33569848172737693,1.0070954451819034,-1.3122758831159445
1658789934935398,-0.33569848172737693,0.45777065690094787,-0.9460593575952316
1658789934951398,0.15259021896690683,1.1902037079423735,-0.6408789196611906
1658789934967397,-0.6408789196611906,1.4343480582895154,-0.7629510948347615
1658789934983397,-2.227817196917613,1.6174563210497581,-0.8239871824216607
1658789934999397,-2.166781109330941,1.1291676203554744,-1.3733119707026162
1658789935015397,-1.983672846570471,0.8239871824216607,-1.1291676203554744
1658789935031396,-2.410925459678083,1.5564202334630863,-0.8850232700083325
1658789935047396,-2.9602502479590385,1.0681315327688026,-3.1433585107195086
1658789935063396,-1.3733119707026162,0.3967345693140487,-3.5095750362402214
1658789935079396,1.0681315327688026,0.7019150072480898,-2.288853284504512
1658789935095396,4.058899824521177,1.4953841458761872,-1.1291676203554744
1658789935111395,3.2654306858930795,1.6174563210497581,-1.2512397955290453
1658789935127395,1.1902037079423735,0.09155413138023505,-2.3498893720911838
1658789935143395,1.0681315327688026,-0.213626306553806,-3.0823224231326094
1658789935159395,0.7019150072480898,0.2746623941404778,-2.227817196917613
1658789935175395,1.3733119707026162,1.3733119707026162,-1.8616006713969
1658789935191375,1.6784924086366573,1.0070954451819034,-2.410925459678083
1658789935207375,1.6174563210497581,0.09155413138023505,-2.532997634851654
1658789935223375,0.7629510948347615,0.213626306553806,-2.4719615472647547
1658789935239375,0.6408789196611906,0.5798428320745188,-2.166781109330941
1658789935255375,1.6784924086366573,0.8239871824216607,-1.4343480582895154
1658789935271374,1.9226367589837992,0.3967345693140487,-1.4343480582895154
1658789935287374,0.8239871824216607,-0.213626306553806,-1.8616006713969
1658789935303374,-1.4953841458761872,-0.5188067444876197,-2.105745021744042
1658789935319374,-0.9460593575952316,-0.33569848172737693,-2.3498893720911838
1658789935335374,0.03051804379333589,-0.2746623941404778,-1.8616006713969
1658789935351373,1.3122758831159445,-0.45777065690094787,-1.5564202334630863
1658789935367373,0.15259021896690683,-0.33569848172737693,-1.3733119707026162
1658789935383373,-1.2512397955290453,-0.6408789196611906,-2.532997634851654
1658789935399373,-1.0681315327688026,-1.0070954451819034,-2.8381780727854675
1658789935415372,1.4953841458761872,-0.7629510948347615,-1.6784924086366573
1658789935431372,2.7771419851987957,-0.15259021896690683,-0.6408789196611906
1658789935447372,0.6408789196611906,-0.213626306553806,-0.5188067444876197
1658789935463372,-0.2746623941404778,-0.8239871824216607,-1.3733119707026162
1658789935479372,0.8850232700083325,-1.0070954451819034,-1.6784924086366573
1658789935495371,1.0681315327688026,-0.45777065690094787,-0.8239871824216607
1658789935511383,-1.0070954451819034,0.7019150072480898,-0.213626306553806
1658789935527382,-1.1902037079423735,1.1291676203554744,-0.7629510948347615
1658789935543382,-0.7019150072480898,0.9460593575952316,-0.9460593575952316
1658789935559382,1.1902037079423735,1.1902037079423735,-0.2746623941404778
1658789935575382,2.8992141603723667,2.9602502479590385,0.5798428320745188
1658789935591382,2.410925459678083,5.157549401083315,1.0681315327688026
1658789935607381,1.9226367589837992,4.791332875562603,1.1291676203554744
1658789935623381,5.828946364538069,3.2043945983061803,-0.03051804379333589
1658789935639381,5.401693751430457,3.0823224231326094,-0.8239871824216607
1658789935655381,-0.33569848172737693,2.9602502479590385,-1.3733119707026162
1658789935671381,0.45777065690094787,2.8992141603723667,-1.5564202334630863
1658789935687380,3.692683299000464,2.8992141603723667,-0.7019150072480898
1658789935703380,2.655069810025225,2.3498893720911838,-0.5188067444876197
1658789935719380,0.5798428320745188,2.166781109330941,-1.4343480582895154
1658789935735380,-0.6408789196611906,2.227817196917613,-1.0070954451819034
1658789935751380,0.09155413138023505,2.5940337224383256,0.213626306553806
1658789935767379,-2.532997634851654,2.4719615472647547,0.2746623941404778
1658789935783379,-3.692683299000464,1.9226367589837992,-1.0070954451819034
1658789935799379,-4.303044174868319,1.1291676203554744,-1.8005645838102282
1658789935815379,-2.7771419851987957,0.9460593575952316,-1.5564202334630863
1658789935831390,0.03051804379333589,2.655069810025225,0.3967345693140487
1658789935847390,3.0823224231326094,4.547188525215461,1.6784924086366573
1658789935863390,2.4719615472647547,4.9134050507361735,1.1902037079423735
1658789935879389,3.936827649347606,4.791332875562603,1.1902037079423735
1658789935895389,4.486152437628789,4.180971999694748,0.7629510948347615
1658789935911389,0.45777065690094787,4.303044174868319,0.5798428320745188
1658789935927389,-2.3498893720911838,3.6316472114137923,0.6408789196611906
1658789935943389,1.0070954451819034,3.1433585107195086,1.0070954451819034
1658789935959388,4.486152437628789,2.7161058976118966,0.7629510948347615
1658789935975388,1.3122758831159445,2.04470893415737,0.03051804379333589
1658789935991388,-3.570611123826893,1.983672846570471,-0.33569848172737693
1658789936007388,-2.105745021744042,1.9226367589837992,-0.03051804379333589
1658789936023388,3.1433585107195086,2.04470893415737,0.6408789196611906
1658789936039387,3.3875028610666504,2.04470893415737,1.0070954451819034
1658789936055387,-3.4485389486533222,0.7629510948347615,-0.3967345693140487
1658789936071387,-4.303044174868319,-0.8850232700083325,-2.166781109330941
1658789936087387,-0.03051804379333589,-0.45777065690094787,-1.0070954451819034
1658789936103387,2.105745021744042,0.15259021896690683,0.03051804379333589
1658789936119386,-0.213626306553806,0.33569848172737693,-0.7019150072480898
1658789936135386,-4.9134050507361735,0.09155413138023505,-2.04470893415737
1658789936151367,-3.4485389486533222,-1.2512397955290453,-2.7161058976118966
1658789936167367,1.9226367589837992,-1.1291676203554744,-1.983672846570471
1658789936183366,0.5188067444876197,0.33569848172737693,-1.0070954451819034
1658789936199366,-1.8616006713969,0.5798428320745188,-1.983672846570471
1658789936215366,0.8850232700083325,0.8239871824216607,-2.3498893720911838
1658789936231366,2.8381780727854675,0.6408789196611906,-2.655069810025225
1658789936247366,1.739528496223329,1.0070954451819034,-3.0212863355459376
1658789936263365,-1.0070954451819034,1.3733119707026162,-2.8381780727854675
1658789936279365,-0.8850232700083325,1.0070954451819034,-2.9602502479590385
1658789936295365,4.42511635004189,1.4343480582895154,-2.4719615472647547
1658789936311365,3.0823224231326094,1.8005645838102282,-2.227817196917613
1658789936327365,-2.7771419851987957,1.3122758831159445,-3.0212863355459376
1658789936343364,-2.7161058976118966,0.9460593575952316,-2.4719615472647547
1658789936359364,0.5188067444876197,0.9460593575952316,-0.7629510948347615
1658789936375364,3.5095750362402214,1.0681315327688026,-0.09155413138023505
1658789936391364,1.4953841458761872,1.5564202334630863,-0.2746623941404778
1658789936407364,-1.0681315327688026,0.8850232700083325,-1.0681315327688026
1658789936423363,0.09155413138023505,1.1291676203554744,-0.8850232700083325
1658789936439363,1.5564202334630863,1.739528496223329,-0.3967345693140487
1658789936455363,0.45777065690094787,1.4343480582895154,-1.1291676203554744
1658789936471374,-0.2746623941404778,1.3733119707026162,-1.4953841458761872
1658789936487374,1.0070954451819034,1.5564202334630863,-1.0070954451819034
1658789936503374,1.1291676203554744,1.5564202334630863,-1.0681315327688026
1658789936519374,0.45777065690094787,1.3122758831159445,-1.3733119707026162
1658789936535373,-0.33569848172737693,0.7019150072480898,-0.7629510948347615
1658789936551373,2.5940337224383256,0.7629510948347615,0.15259021896690683
1658789936567373,2.04470893415737,1.1902037079423735,0.5188067444876197
1658789936583373,-0.15259021896690683,0.09155413138023505,-0.5798428320745188
1658789936599372,-0.9460593575952316,-0.7019150072480898,-1.1902037079423735
1658789936615372,0.03051804379333589,0.09155413138023505,-0.45777065690094787
1658789936631372,1.0681315327688026,0.5798428320745188,-0.15259021896690683
1658789936647372,1.1902037079423735,0.213626306553806,-0.213626306553806
1658789936663372,1.739528496223329,-0.3967345693140487,-1.0070954451819034
1658789936679371,0.2746623941404778,-0.5188067444876197,-1.1291676203554744
1658789936695371,-1.8005645838102282,-0.8850232700083325,-1.6174563210497581
1658789936711371,-0.3967345693140487,-0.15259021896690683,-1.3733119707026162
1658789936727371,2.3498893720911838,-0.03051804379333589,-0.5798428320745188
1658789936743371,1.9226367589837992,-0.3967345693140487,-1.0681315327688026
1658789936759370,-1.1902037079423735,-0.3967345693140487,-1.8616006713969
1658789936775370,-1.983672846570471,-0.5188067444876197,-2.166781109330941
1658789936791351,0.3967345693140487,-0.2746623941404778,-2.227817196917613
1658789936807351,2.410925459678083,0.3967345693140487,-1.2512397955290453
1658789936823351,1.0070954451819034,0.213626306553806,-1.2512397955290453
1658789936839350,-1.0070954451819034,-0.2746623941404778,-1.6174563210497581
1658789936855350,-1.8616006713969,-0.6408789196611906,-1.983672846570471
1658789936871350,-1.6784924086366573,-0.3967345693140487,-1.8616006713969
1658789936887350,-1.1902037079423735,-0.45777065690094787,-1.8616006713969
1658789936903350,0.5798428320745188,-0.2746623941404778,-2.04470893415737
1658789936919349,4.791332875562603,0.8239871824216607,-1.1902037079423735
1658789936935349,4.669260700389032,1.983672846570471,-0.45777065690094787
1658789936951349,0.5188067444876197,1.3122758831159445,-1.5564202334630863
1658789936967349,-0.8239871824216607,0.03051804379333589,-2.410925459678083
1658789936983348,1.0070954451819034,0.03051804379333589,-1.739528496223329
1658789936999348,1.8005645838102282,0.9460593575952316,-1.1291676203554744
1658789937015348,-1.739528496223329,1.3122758831159445,-2.105745021744042
1658789937031348,-2.227817196917613,0.7629510948347615,-2.410925459678083
1658789937047348,2.227817196917613,0.7019150072480898,-1.2512397955290453
1658789937063347,4.547188525215461,1.0070954451819034,-0.2746623941404778
1658789937079347,1.9226367589837992,0.7019150072480898,-1.0070954451819034
1658789937095347,-1.4343480582895154,0.03051804379333589,-1.5564202334630863
1658789937111358,0.8239871824216607,-0.03051804379333589,-1.1291676203554744
1658789937127358,3.570611123826893,0.6408789196611906,-0.213626306553806
1658789937143358,1.739528496223329,0.9460593575952316,0.09155413138023505
1658789937159358,-0.2746623941404778,0.5188067444876197,-0.15259021896690683
1658789937175357,-0.8239871824216607,0.213626306553806,-0.45777065690094787
1658789937191357,-0.2746623941404778,-0.09155413138023505,-0.5188067444876197
1658789937207357,0.8850232700083325,0.8239871824216607,0.03051804379333589
1658789937223357,1.1291676203554744,1.1902037079423735,-0.2746623941404778
1658789937239357,1.1902037079423735,0.8850232700083325,-1.1291676203554744
1658789937255356,0.7629510948347615,0.213626306553806,-0.7629510948347615
1658789937271356,1.1902037079423735,0.33569848172737693,-0.2746623941404778
1658789937287356,0.5798428320745188,0.9460593575952316,-0.5798428320745188
1658789937303356,-0.7629510948347615,0.3967345693140487,-1.6174563210497581
1658789937319356,-0.5188067444876197,-0.15259021896690683,-1.3733119707026162
1658789937335355,1.1291676203554744,0.2746623941404778,0.09155413138023505
1658789937351355,-0.7629510948347615,0.6408789196611906,-0.03051804379333589
1658789937367355,-2.655069810025225,-0.15259021896690683,-1.6784924086366573
1658789937383355,-2.4719615472647547,-0.45777065690094787,-2.105745021744042
1658789937399355,-0.5798428320745188,-0.03051804379333589,-1.6174563210497581
1658789937415354,-0.2746623941404778,0.213626306553806,-1.739528496223329
1658789937431366,0.5188067444876197,0.6408789196611906,-1.5564202334630863
1658789937447365,1.3122758831159445,1.0681315327688026,-1.2512397955290453
1658789937463365,1.0681315327688026,1.3733119707026162,-0.33569848172737693
1658789937479365,-1.1902037079423735,0.8239871824216607,-0.2746623941404778
1658789937495365,-0.7629510948347615,0.8239871824216607,-0.7629510948347615
1658789937511365,1.0681315327688026,0.7019150072480898,-1.4343480582895154
1658789937527364,1.0681315327688026,0.7629510948347615,-2.166781109330941
1658789937543364,-0.2746623941404778,1.8005645838102282,-1.8616006713969
1658789937559364,0.33569848172737693,2.105745021744042,-1.4343480582895154
1658789937575364,2.7161058976118966,1.8616006713969,-0.7629510948347615
1658789937591364,2.166781109330941,0.8850232700083325,-1.4343480582895154
1658789937607363,0.7019150072480898,0.15259021896690683,-1.5564202334630863
1658789937623363,0.3967345693140487,0.8239871824216607,-0.3967345693140487
1658789937639363,1.2512397955290453,0.7019150072480898,-0.7629510948347615
1658789937655363,-0.3967345693140487,-0.03051804379333589,-1.4953841458761872
1658789937671363,0.03051804379333589,-0.213626306553806,-1.983672846570471
1658789937687362,1.0681315327688026,0.33569848172737693,-1.3122758831159445
1658789937703362,2.410925459678083,0.7019150072480898,-0.2746623941404778
1658789937719362,2.8381780727854675,0.45777065690094787,-0.7019150072480898
1658789937735362,2.04470893415737,0.45777065690094787,-1.1902037079423735
1658789937751342,-0.09155413138023505,0.5798428320745188,-1.1902037079423735
1658789937767342,-1.9226367589837992,-0.2746623941404778,-1.4953841458761872
1658789937783342,-1.8005645838102282,-1.1902037079423735,-2.410925459678083
1658789937799342,-0.9460593575952316,-1.4343480582895154,-2.04470893415737
1658789937815342,-0.6408789196611906,-0.8850232700083325,-1.4953841458761872
1658789937831341,-1.2512397955290453,-0.5798428320745188,-1.3122758831159445
1658789937847341,-2.04470893415737,-1.2512397955290453,-1.8616006713969
1658789937863341,-2.410925459678083,-2.532997634851654,-2.8381780727854675
1658789937879341,1.0681315327688026,-1.0681315327688026,-2.105745021744042
1658789937895341,2.8381780727854675,0.45777065690094787,-1.1291676203554744
1658789937911340,1.0070954451819034,0.5188067444876197,-1.3733119707026162
1658789937927340,-0.2746623941404778,-0.2746623941404778,-2.105745021744042
1658789937943340,-0.33569848172737693,-1.3122758831159445,-2.532997634851654
1658789937959340,1.3733119707026162,-0.3967345693140487,-1.739528496223329
1658789937975340,0.8850232700083325,1.3122758831159445,-0.7019150072480898
1658789937991339,-0.213626306553806,0.6408789196611906,-1.1291676203554744
1658789938007339,0.15259021896690683,-0.7019150072480898,-2.410925459678083
1658789938023339,0.8239871824216607,-0.6408789196611906,-1.4953841458761872
1658789938039339,1.6174563210497581,0.03051804379333589,-0.09155413138023505
1658789938055338,1.6784924086366573,-0.03051804379333589,0.15259021896690683
1658789938071350,0.15259021896690683,-1.0070954451819034,-0.09155413138023505
1658789938087350,-1.983672846570471,-1.5564202334630863,-0.8239871824216607
1658789938103349,-1.6784924086366573,-0.7629510948347615,-0.6408789196611906
1658789938119349,-2.105745021744042,0.45777065690094787,0.213626306553806
1658789938135349,-1.3122758831159445,0.8239871824216607,-0.2746623941404778
1658789938151349,0.33569848172737693,1.0681315327688026,-0.3967345693140487
1658789938167348,2.04470893415737,1.1902037079423735,-0.7629510948347615
1658789938183348,3.692683299000464,1.8616006713969,-0.5798428320745188
1658789938199348,2.410925459678083,1.8005645838102282,-0.09155413138023505
1658789938215348,1.1902037079423735,1.0681315327688026,-0.6408789196611906
1658789938231348,-0.2746623941404778,0.6408789196611906,-1.739528496223329
1658789938247347,0.15259021896690683,1.2512397955290453,-1.4343480582895154
1658789938263347,1.1902037079423735,1.8005645838102282,-0.9460593575952316
1658789938279347,0.9460593575952316,1.4343480582895154,-1.1291676203554744
1658789938295347,0.7019150072480898,0.7019150072480898,-1.4953841458761872
1658789938311347,0.5188067444876197,0.09155413138023505,-1.6784924086366573
1658789938327346,1.739528496223329,0.33569848172737693,-0.7019150072480898
1658789938343346,1.3122758831159445,0.2746623941404778,-0.213626306553806
1658789938359346,-1.3733119707026162,-0.5798428320745188,-1.4953841458761872
1658789938375346,-0.8239871824216607,-0.2746623941404778,-2.5940337224383256
1658789938391357,0.45777065690094787,0.8239871824216607,-2.288853284504512
1658789938407357,1.0070954451819034,0.6408789196611906,-2.3498893720911838
1658789938423357,0.3967345693140487,0.2746623941404778,-2.227817196917613
1658789938439356,-1.1291676203554744,-0.8850232700083325,-2.532997634851654
1658789938455356,-0.03051804379333589,-0.8239871824216607,-1.9226367589837992
1658789938471356,2.4719615472647547,-0.3967345693140487,-1.2512397955290453
1658789938487356,2.166781109330941,-0.6408789196611906,-1.6174563210497581
1658789938503356,-0.45777065690094787,-1.2512397955290453,-1.9226367589837992
1658789938519355,-2.105745021744042,-1.1291676203554744,-1.4953841458761872
1658789938535355,-1.8616006713969,-1.0070954451819034,-1.983672846570471
1658789938551355,-0.213626306553806,0.15259021896690683,-2.166781109330941
1658789938567355,-0.3967345693140487,0.6408789196611906,-2.227817196917613
1658789938583355,0.7629510948347615,-0.09155413138023505,-2.4719615472647547
1658789938599354,1.4343480582895154,-0.15259021896690683,-2.04470893415737
1658789938615354,3.570611123826893,0.3967345693140487,-1.0681315327688026
1658789938631354,2.7771419851987957,0.8850232700083325,-0.6408789196611906
1658789938647354,0.45777065690094787,0.8239871824216607,-0.7629510948347615
1658789938663354,-0.8239871824216607,0.33569848172737693,-0.5798428320745188
1658789938679353,-0.2746623941404778,0.213626306553806,-0.213626306553806
1658789938695353,2.7771419851987957,0.9460593575952316,-0.213626306553806
1658789938711334,2.9602502479590385,0.5798428320745188,-0.8239871824216607
1658789938727334,1.1902037079423735,0.5798428320745188,-0.7629510948347615
1658789938743333,-0.09155413138023505,0.2746623941404778,-0.7019150072480898
1658789938759333,0.6408789196611906,0.09155413138023505,-0.33569848172737693
1658789938775333,2.4719615472647547,0.9460593575952316,0.45777065690094787
1658789938791333,3.5095750362402214,0.9460593575952316,0.03051804379333589
1658789938807333,3.2043945983061803,0.45777065690094787,-0.7019150072480898
1658789938823332,0.5188067444876197,0.09155413138023505,-0.5798428320745188
1658789938839332,-1.3122758831159445,0.213626306553806,-1.0681315327688026
1658789938855332,-1.2512397955290453,0.33569848172737693,-1.3122758831159445
1658789938871332,0.33569848172737693,0.45777065690094787,-0.8850232700083325
1658789938887332,3.6316472114137923,1.0070954451819034,-0.3967345693140487
1658789938903331,2.3498893720911838,1.4953841458761872,0.09155413138023505
1658789938919331,-1.0681315327688026,1.3733119707026162,-0.7629510948347615
1658789938935331,-1.8005645838102282,1.6174563210497581,-1.1902037079423735
1658789938951331,-1.6174563210497581,1.8616006713969,-0.8239871824216607
1658789938967331,-0.7629510948347615,1.3122758831159445,-0.7019150072480898
1658789938983330,1.3733119707026162,1.2512397955290453,-0.8239871824216607
1658789938999330,2.7771419851987957,1.6784924086366573,0.3967345693140487
1658789939015330,1.9226367589837992,1.3733119707026162,0.7629510948347615
1658789939031341,0.15259021896690683,0.7019150072480898,0.5188067444876197
1658789939047341,-1.6784924086366573,-0.213626306553806,-0.213626306553806
1658789939063341,0.3967345693140487,-0.09155413138023505,-0.15259021896690683
1658789939079341,3.2654306858930795,0.9460593575952316,0.7629510948347615
1658789939095340,0.9460593575952316,1.1902037079423735,-0.33569848172737693
1658789939111340,-1.0681315327688026,0.3967345693140487,-1.739528496223329
1658789939127340,-0.2746623941404778,0.5188067444876197,-0.9460593575952316
1658789939143340,2.3498893720911838,1.2512397955290453,-0.03051804379333589
1658789939159340,1.4953841458761872,1.4953841458761872,0.2746623941404778
1658789939175339,-1.1291676203554744,0.5798428320745188,-0.6408789196611906
1658789939191339,-2.5940337224383256,-0.5798428320745188,-1.0070954451819034
1658789939207339,-0.213626306553806,-0.3967345693140487,-0.8239871824216607
1658789939223339,0.09155413138023505,0.6408789196611906,-0.33569848172737693
1658789939239338,0.6408789196611906,0.8239871824216607,-0.5188067444876197
1658789939255338,0.5798428320745188,0.15259021896690683,-1.1902037079423735
1658789939271338,0.5188067444876197,-0.3967345693140487,-0.7629510948347615
1658789939287338,-0.5798428320745188,-0.15259021896690683,-0.15259021896690683
1658789939303338,0.2746623941404778,0.33569848172737693,-0.09155413138023505
1658789939319337,0.9460593575952316,0.03051804379333589,-0.15259021896690683
1658789939335337,2.227817196917613,-0.6408789196611906,-0.7629510948347615
1658789939351349,3.0823224231326094,-0.45777065690094787,-0.7629510948347615
1658789939367348,0.7629510948347615,-0.3967345693140487,-0.7019150072480898
1658789939383348,-0.5188067444876197,0.03051804379333589,-1.0681315327688026
1658789939399348,1.3733119707026162,0.45777065690094787,-0.7019150072480898
1658789939415348,1.8616006713969,0.15259021896690683,-1.1902037079423735
1658789939431347,-0.7019150072480898,0.15259021896690683,-1.5564202334630863
1658789939447347,-3.0212863355459376,-0.2746623941404778,-2.04470893415737
1658789939463347,-0.45777065690094787,0.15259021896690683,-1.4343480582895154
1658789939479347,3.0212863355459376,0.45777065690094787,-0.6408789196611906
1658789939495347,2.532997634851654,0.6408789196611906,-0.8850232700083325
1658789939511346,0.33569848172737693,0.5798428320745188,-1.4953841458761872
1658789939527346,-0.15259021896690683,-0.09155413138023505,-2.227817196917613
1658789939543346,0.7629510948347615,-0.3967345693140487,-2.166781109330941
1658789939559346,1.6174563210497581,0.15259021896690683,-1.4953841458761872
1658789939575346,1.1902037079423735,0.7629510948347615,-1.3122758831159445
1658789939591345,0.2746623941404778,0.5188067444876197,-1.739528496223329
1658789939607345,0.3967345693140487,0.6408789196611906,-1.1291676203554744
1658789939623345,-0.33569848172737693,-0.213626306553806,-0.8850232700083325
1658789939639345,0.7019150072480898,0.213626306553806,-0.45777065690094787
1658789939655345,1.5564202334630863,0.8850232700083325,-0.09155413138023505
1658789939671325,1.6784924086366573,0.8239871824216607,-1.0070954451819034
1658789939687325,1.9226367589837992,0.6408789196611906,-1.4953841458761872
1658789939703325,0.7629510948347615,0.9460593575952316,-1.3122758831159445
1658789939719325,0.213626306553806,1.739528496223329,-1.3733119707026162
1658789939735324,0.213626306553806,1.3122758831159445,-1.3122758831159445
1658789939751324,1.2512397955290453,0.7629510948347615,-1.2512397955290453
1658789939767324,1.3733119707026162,-0.03051804379333589,-1.2512397955290453
1658789939783324,-0.3967345693140487,0.03051804379333589,-0.6408789196611906
1658789939799324,-0.7629510948347615,0.9460593575952316,-0.2746623941404778
1658789939815323,0.33569848172737693,1.1902037079423735,-0.45777065690094787
1658789939831323,2.288853284504512,0.7019150072480898,-1.4953841458761872
1658789939847323,1.4953841458761872,0.2746623941404778,-1.983672846570471
1658789939863323,-0.7019150072480898,1.0681315327688026,-1.983672846570471
1658789939879323,-0.2746623941404778,1.1902037079423735,-1.739528496223329
1658789939895322,1.4953841458761872,0.5188067444876197,-2.04470893415737
1658789939911322,1.4953841458761872,0.8850232700083325,-1.983672846570471
1658789939927322,-1.0681315327688026,0.7629510948347615,-2.04470893415737
1658789939943322,-0.09155413138023505,0.5188067444876197,-1.0681315327688026
1658789939959322,3.1433585107195086,0.5798428320745188,-0.15259021896690683
1658789939975321,3.2654306858930795,0.33569848172737693,-0.7629510948347615
1658789939991333,-1.0070954451819034,-0.09155413138023505,-1.4953841458761872
1658789940007332,-2.532997634851654,-0.09155413138023505,-1.6784924086366573
1658789940023332,2.532997634851654,1.1291676203554744,-0.7629510948347615
1658789940039332,5.096513313496644,1.8616006713969,-0.33569848172737693
1658789940055332,2.532997634851654,0.7629510948347615,-1.2512397955290453
1658789940071332,-1.1291676203554744,0.213626306553806,-1.739528496223329
1658789940087331,-1.983672846570471,-0.2746623941404778,-1.5564202334630863
1658789940103331,-0.03051804379333589,0.5798428320745188,-1.2512397955290453
1658789940119331,0.7019150072480898,1.2512397955290453,-1.1291676203554744
1658789940135331,1.3733119707026162,1.1291676203554744,-1.983672846570471
1658789940151331,0.9460593575952316,0.7019150072480898,-1.983672846570471
1658789940167330,1.0681315327688026,0.8239871824216607,-1.5564202334630863
1658789940183330,1.6784924086366573,0.8239871824216607,-1.4343480582895154
1658789940199330,1.5564202334630863,0.7019150072480898,-1.739528496223329
1658789940215330,-0.213626306553806,0.45777065690094787,-2.410925459678083
1658789940231330,-0.7629510948347615,0.7629510948347615,-2.105745021744042
1658789940247329,-0.33569848172737693,0.9460593575952316,-1.0070954451819034
1658789940263329,1.3122758831159445,0.9460593575952316,-1.0681315327688026
1658789940279329,0.8239871824216607,1.0070954451819034,-1.3733119707026162
1658789940295329,-2.288853284504512,0.3967345693140487,-1.3733119707026162
1658789940311340,0.45777065690094787,0.213626306553806,-1.739528496223329
1658789940327340,3.936827649347606,0.8850232700083325,-0.5188067444876197
1658789940343340,2.8992141603723667,1.1291676203554744,0.09155413138023505
1658789940359339,0.03051804379333589,1.0070954451819034,-0.9460593575952316
1658789940375339,-1.0070954451819034,0.33569848172737693,-1.1291676203554744
1658789940391339,0.45777065690094787,0.2746623941404778,-0.5798428320745188
1658789940407339,0.6408789196611906,0.7629510948347615,-0.15259021896690683
1658789940423339,-0.03051804379333589,0.7629510948347615,-0.33569848172737693
1658789940439338,0.15259021896690683,0.45777065690094787,-0.45777065690094787
1658789940455338,2.105745021744042,0.7019150072480898,-0.2746623941404778
1658789940471338,0.7629510948347615,0.8239871824216607,-0.03051804379333589
1658789940487338,-1.4953841458761872,0.03051804379333589,-0.6408789196611906
1658789940503337,-0.7019150072480898,-0.2746623941404778,-1.0681315327688026
1658789940519337,1.0681315327688026,0.213626306553806,-0.8239871824216607
1658789940535337,0.7019150072480898,0.2746623941404778,-0.8239871824216607
1658789940551337,-0.7019150072480898,0.8239871824216607,-1.3122758831159445
1658789940567337,-1.0070954451819034,0.213626306553806,-1.5564202334630863
1658789940583336,0.2746623941404778,-0.09155413138023505,-1.1902037079423735
1658789940599336,0.33569848172737693,0.2746623941404778,-0.45777065690094787
1658789940615336,0.45777065690094787,0.3967345693140487,-1.0681315327688026
1658789940631317,1.4343480582895154,0.2746623941404778,-1.3122758831159445
1658789940647317,0.5798428320745188,0.03051804379333589,-1.4953841458761872
1658789940663316,-0.33569848172737693,-0.5188067444876197,-2.105745021744042
1658789940679316,0.09155413138023505,0.15259021896690683,-1.5564202334630863
1658789940695316,1.8005645838102282,0.9460593575952316,-1.2512397955290453
1658789940711316,1.3122758831159445,0.3967345693140487,-1.9226367589837992
1658789940727316,-0.9460593575952316,0.09155413138023505,-1.983672846570471
1658789940743315,-1.4343480582895154,0.15259021896690683,-2.166781109330941
1658789940759315,1.4343480582895154,0.8239871824216607,-1.0070954451819034
1658789940775315,2.288853284504512,1.2512397955290453,-0.3967345693140487
1658789940791315,1.3733119707026162,0.45777065690094787,-1.3122758831159445
1658789940807314,0.7629510948347615,0.7019150072480898,-1.1291676203554744
1658789940823314,1.1902037079423735,1.2512397955290453,-0.7019150072480898
1658789940839314,1.983672846570471,1.983672846570471,-0.9460593575952316
1658789940855314,1.983672846570471,1.4953841458761872,-1.3733119707026162
1658789940871314,2.3498893720911838,1.1291676203554744,-1.0681315327688026
1658789940887313,2.166781109330941,1.0070954451819034,-0.9460593575952316
1658789940903313,0.7019150072480898,1.1291676203554744,-1.0070954451819034
1658789940919313,0.45777065690094787,1.1291676203554744,-0.9460593575952316
1658789940935313,2.7161058976118966,1.0681315327688026,-0.9460593575952316
1658789940951324,3.1433585107195086,1.0070954451819034,-0.8239871824216607
1658789940967324,-1.0070954451819034,0.7629510948347615,-1.0070954451819034
1658789940983324,-2.04470893415737,0.45777065690094787,-1.739528496223329
1658789940999323,0.03051804379333589,0.213626306553806,-1.6174563210497581
1658789941015323,3.0212863355459376,0.7019150072480898,-1.1291676203554744
1658789941031323,1.8616006713969,1.0070954451819034,-1.5564202334630863
1658789941047323,-0.213626306553806,1.0070954451819034,-1.6784924086366573
1658789941063323,0.2746623941404778,1.2512397955290453,-1.4343480582895154
1658789941079322,0.6408789196611906,0.6408789196611906,-1.1291676203554744
1658789941095322,0.8850232700083325,0.45777065690094787,-1.2512397955290453
1658789941111322,-0.33569848172737693,0.7629510948347615,-2.166781109330941
1658789941127322,-1.1291676203554744,0.6408789196611906,-2.105745021744042
1658789941143322,1.2512397955290453,0.5188067444876197,-1.4343480582895154
1658789941159321,2.7771419851987957,0.7629510948347615,-1.3733119707026162
1658789941175321,0.8850232700083325,0.8239871824216607,-1.739528496223329
1658789941191321,-1.3122758831159445,0.33569848172737693,-1.8005645838102282
1658789941207321,1.6174563210497581,0.09155413138023505,-1.4953841458761872
1658789941223321,3.0212863355459376,0.7629510948347615,-0.7629510948347615
1658789941239320,1.1902037079423735,0.8239871824216607,-1.0070954451819034
1658789941255320,0.5188067444876197,0.2746623941404778,-1.3733119707026162
1658789941271331,0.33569848172737693,-0.09155413138023505,-1.3122758831159445
1658789941287331,-0.45777065690094787,0.09155413138023505,-1.1902037079423735
1658789941303331,0.5798428320745188,0.6408789196611906,-0.8850232700083325
1658789941319331,1.3122758831159445,0.6408789196611906,-0.6408789196611906
1658789941335331,2.105745021744042,0.45777065690094787,-1.4343480582895154
1658789941351330,2.105745021744042,-0.03051804379333589,-1.6174563210497581
1658789941367330,-0.45777065690094787,0.5798428320745188,-1.0070954451819034
1658789941383330,-0.6408789196611906,1.0681315327688026,-1.0070954451819034
1658789941399330,0.2746623941404778,1.0070954451819034,-1.1902037079423735
1658789941415330,1.2512397955290453,0.7629510948347615,-1.1291676203554744
1658789941431329,0.8850232700083325,0.9460593575952316,-0.7019150072480898
1658789941447329,0.7019150072480898,0.6408789196611906,-1.0070954451819034
1658789941463329,2.04470893415737,0.7629510948347615,-0.3967345693140487
1658789941479329,0.8850232700083325,0.45777065690094787,-0.3967345693140487
1658789941495329,0.7629510948347615,0.33569848172737693,-1.0070954451819034
1658789941511328,-0.5188067444876197,1.0070954451819034,-0.8850232700083325
1658789941527328,0.03051804379333589,1.2512397955290453,-0.7629510948347615
1658789941543328,3.3875028610666504,1.0070954451819034,-0.5798428320745188
1658789941559328,1.983672846570471,1.0681315327688026,0.15259021896690683
1658789941575327,-0.6408789196611906,0.6408789196611906,-0.09155413138023505
1658789941591308,-1.0681315327688026,0.3967345693140487,-0.09155413138023505
1658789941607308,0.7019150072480898,1.3733119707026162,0.2746623941404778
1658789941623308,0.213626306553806,1.4953841458761872,0.213626306553806
1658789941639308,-0.03051804379333589,2.532997634851654,1.1291676203554744
1658789941655307,-4.486152437628789,4.180971999694748,1.3733119707026162
1658789941671307,-5.279621576256886,3.3875028610666504,1.8616006713969
1658789941687307,-1.1902037079423735,3.6316472114137923,4.730296787975931
1658789941703307,1.1902037079423735,3.5095750362402214,7.4158846417944915
1658789941719307,0.5798428320745188,3.2654306858930795,9.55214770733187
1658789941735306,0.7629510948347615,1.6174563210497581,11.261158159761862
1658789941751306,2.3498893720911838,0.6408789196611906,14.496070801861606
1658789941767306,1.983672846570471,0.9460593575952316,18.70756084534969
1658789941783306,-0.15259021896690683,1.3122758831159445,21.27107652399468
1658789941799306,1.4953841458761872,1.6784924086366573,22.247653925383247
1658789941815305,1.1291676203554744,2.5940337224383256,25.36049439230942
1658789941831305,-2.410925459678083,2.166781109330941,25.909819180590375
1658789941847305,-2.9602502479590385,1.983672846570471,25.787747005416804
1658789941863305,-3.7537193865873633,2.8992141603723667,26.6422522316318
1658789941879305,-7.17174029144735,4.547188525215461,26.82536049439227
1658789941895304,-8.575570305943302,4.9134050507361735,25.665674830243233
1658789941911316,-3.4485389486533222,4.974441138323073,27.313649195086555
1658789941927315,-1.2512397955290453,5.76791027695117,29.14473182269012
1658789941943315,-3.875791561760934,4.119935912108076,29.08369573510322
1658789941959315,-6.439307240405924,3.875791561760934,30.30441748683893
1658789941975315,-8.575570305943302,4.242008087281647,32.684824902723676
1658789941991315,-6.439307240405924,4.303044174868319,32.684824902723676
1658789942007314,-2.7771419851987957,4.119935912108076,32.80689707789725
1658789942023314,-1.8005645838102282,5.279621576256886,34.45487144274034
1658789942039314,-3.997863736934505,4.852368963149502,33.3562218661782
1658789942055314,-1.3122758831159445,5.706874189364498,32.80689707789725
1658789942071313,1.3122758831159445,6.500343327992596,34.2107270923932
1658789942087313,0.3967345693140487,6.317235065232353,34.821087968261054
1658789942103313,-1.4953841458761872,5.645838101777599,33.905546654459386
1658789942119313,-4.9134050507361735,5.096513313496644,33.783474479285815
1658789942135313,-8.6366063935302,5.76791027695117,34.39383535515367
1658789942151312,-7.2938124666209205,5.3406576638437855,34.39383535515367
1658789942167312,-4.42511635004189,6.256198977645454,34.943160143434625
1658789942183312,-6.073090714885211,7.660028992141633,36.10284580758366
1658789942199312,-9.796292057679011,9.246967269398056,36.408026245517476
1658789942215312,-9.85732814526591,9.430075532158298,34.88212405584795
1658789942231323,-4.60822461280236,9.67421988250544,34.69901579308748
1658789942247323,-0.213626306553806,10.223544670786623,36.285954070343905
1658789942263322,-2.105745021744042,9.613183794918768,38.0560006103608
1658789942279322,-3.7537193865873633,9.063859006637585,38.971541924162466
1658789942295322,-4.364080262455218,9.185931181811156,40.68055237659246
1658789942311322,-5.401693751430457,9.369039444571627,43.36614023041102
1658789942327322,-4.364080262455218,9.308003356984727,43.73235675593173
1658789942343321,-6.561379415579495,10.528725108720437,44.95307850766744
1658789942359321,-9.613183794918768,10.101472495613052,46.662088960097435
1658789942375321,-10.040436408026153,10.101472495613052,47.943846799420044
1658789942391321,-8.087281605249018,11.20012207217519,50.08010986495765
1658789942407321,-8.33142595559616,12.481879911497572,50.14114595254432
1658789942423320,-9.185931181811156,11.627374685282575,49.71389333943671
1658789942439320,-9.73525597009234,11.810482948043045,52.15533684290813
1658789942455320,-13.031204699778755,12.726024261844714,53.498130769817635
1658789942471320,-13.946746013580423,14.435034714274707,53.55916685740431
1658789942487320,-8.880750743877343,14.190890363927565,53.25398641947049
1658789942503319,-0.2746623941404778,13.031204699778755,56.12268253604907
1658789942519319,2.288853284504512,15.533684290836845,59.7848477912562
1658789942535319,-7.904173342488775,16.32715342946517,62.9587243457695
1658789942551300,-12.176699473563758,13.824673838406852,65.46120393682804
1658789942567299,-8.392462043183059,11.749446860456146,69.67269398031613
1658789942583299,-4.486152437628789,13.153276874952326,74.7997253376061
1658789942599299,-11.139085984588291,14.496070801861606,76.20355535210228
1658789942615299,-23.102159151598244,12.726024261844714,75.28801403830039
1658789942631299,-29.449912260623933,10.955977721828049,75.10490577553992
1658789942647298,-27.374685282673227,12.848096437018285,76.93598840314371
1658789942663298,-24.994277866788707,17.181658655680167,77.24116884107752
1658789942679298,-23.83459220263967,20.35553521019301,74.7997253376061
1658789942695298,-22.919050888838,22.919050888838,72.90760662241564
1658789942711298,-19.623102159151586,25.17738612954895,73.33485923552325
1658789942727297,-22.8580148012511,26.031891355763946,72.54139009689516
1658789942743297,-22.73594262607753,25.42153047989609,70.03891050583661
1658789942759297,-17.48683909361398,25.05531395437538,71.93102922102707
1658789942775297,-14.92332341496899,25.726710917830133,72.6634622720685
1658789942791297,-20.599679560540153,26.214999618524416,69.48958571755566
1658789942807296,-31.280994888227724,26.214999618524416,67.53643091477852
1658789942823296,-37.994964522774126,26.764324406805372,69.30647745479519
1658789942839296,-38.54428931105531,28.595407034408936,72.7855344472423
1658789942855296,-37.750820172426984,28.900587472342977,71.0765239948123
1658789942871307,-31.036850537880355,24.811169604028237,66.13260090028234
1658789942887307,-26.82536049439227,22.49179827573039,69.06233310444804
1658789942903307,-33.41725795376533,24.750133516441565,69.61165789272945
1658789942919306,-33.66140230411247,26.031891355763946,68.75715266651423
1658789942935306,-22.67490653849086,25.23842221713585,69.97787441824994
1658789942951306,-5.401693751430457,21.637293049515392,70.34409094377088
1658789942967306,0.7019150072480898,22.980086976424673,72.72449835965517
1658789942983306,-11.505302510109004,28.107118333714652,73.94522011139088
1658789942999305,-22.003509575036105,24.994277866788707,68.8181887541009
1658789943015305,-9.369039444571627,20.965896086060866,65.70534828717518
1658789943031305,1.0070954451819034,23.224231326771815,69.12336919203517
1658789943047305,-9.796292057679011,29.38887617303726,70.83237964446516
1658789943063305,-25.848783093003703,30.4264896620125,66.62088960097662
1658789943079304,-25.48256656748299,29.694056610971074,62.10421911955427
1658789943095304,-8.45349813076973,32.19653620202939,63.75219348439805
1658789943111304,-0.8850232700083325,36.65217059586462,68.0247196154728
1658789943127304,-8.819714656290444,39.154650186922936,69.30647745479519
1658789943143303,-20.416571297779683,36.469062333104375,67.29228656443138
1658789943159303,-26.58121614404513,30.4875257495994,65.70534828717518
1658789943175303,-24.689097428854666,28.290226596475122,67.59746700236519
1658789943191314,-22.980086976424673,30.121309224078686,70.34409094377088
1658789943207314,-24.200808728160382,27.92401007095441,70.28305485618375
1658789943223314,-30.121309224078686,23.102159151598244,67.17021438925804
1658789943239314,-33.90554665445961,17.54787518120088,63.01976043335662
1658789943255313,-39.215686274509835,13.64156557564661,60.82246128023189
1658789943271313,-43.67132066834529,11.688410772869474,58.01480125123953
1658789943287313,-38.1170366979477,10.772869459067579,53.74227512016478
1658789943303313,-28.04608224612798,9.613183794918768,48.187991149767186
1658789943319313,-26.6422522316318,8.51453421835663,41.290913252460314
1658789943335312,-28.107118333714652,6.927595941100208,31.586175326161538
1658789943351312,-22.125581750209676,2.166781109330941,23.102159151598244
1658789943367312,-13.397421225299468,-0.7019150072480898,16.510261692225413
1658789943383312,-5.401693751430457,0.5798428320745188,12.359807736324
1658789943399312,3.4485389486533222,-0.09155413138023505,8.6366063935302
1658789943415311,10.528725108720437,-3.875791561760934,3.2043945983061803
1658789943431311,19.317921721217544,-8.819714656290444,-4.9134050507361735
1658789943447311,21.942473487449433,-12.848096437018285,-12.787060349431613
1658789943463311,17.36476691844041,-15.167467765316132,-20.294499122606112
1658789943479311,12.787060349431613,-17.60891126878755,-29.26680399786369
1658789943495310,16.754406042572555,-21.33211261158158,-36.835278858625315
1658789943511291,24.322880903333953,-22.308690012970146,-40.497444113832444
1658789943527291,28.534370946822264,-20.23346303501944,-43.305104142824575
1658789943543291,30.182345311665358,-19.623102159151586,-47.39452201113909
1658789943559291,32.379644464789635,-21.820401312275862,-51.78912031738764
1658789943575290,37.689784084840085,-23.346303501945386,-55.81750209811548
1658789943591290,39.154650186922936,-24.505989166094423,-58.44205386434737
1658789943607290,32.80689707789725,-27.86297398336751,-61.615930418860216
1658789943623290,28.656443121995835,-31.219958800640825,-66.19363698786901
1658789943639289,32.19653620202939,-33.60036621652557,-71.01548790722518
1658789943655289,39.88708323796436,-36.04180971999699,-74.49454489967184
1658789943671289,43.42717631799792,-36.713206683451745,-75.59319447623398
1658789943687289,46.540016784923864,-35.187304493781994,-76.50873579003587
1658789943703289,47.39452201113886,-35.55352101930271,-79.86572060730896
1658789943719288,47.943846799420044,-40.1922636758984,-85.78622110322726
1658789943735288,52.2163729304948,-45.38033112077528,-92.3781185626001
1658789943751288,48.98146028839528,-48.6152437628748,-94.45334554055103
1658789943767288,40.9857328145265,-46.11276417181671,-94.27023727779056
1658789943783288,42.38956282902245,-43.244068055237676,-96.83375295643555
1658789943799287,48.126955062180514,-46.47898069733742,-99.88555733577482
1658789943815287,49.83596551461051,-50.38529030289169,-101.47249561303124
1658789943831298,39.09361409933604,-50.38529030289169,-101.89974822613885
1658789943847298,36.346990157930804,-51.239795529106686,-105.9281300068667
1658789943863298,41.535057602807456,-53.681239032578105,-108.43060959792479
1658789943879298,39.94811932555103,-54.4747081712062,-108.06439307240407
1658789943895298,35.43144884412891,-51.239795529106686,-105.98916609445337
1658789943911297,29.938200961318216,-46.17380025940338,-105.31776913099884
1658789943927297,35.79766536964962,-46.47898069733742,-109.04097047379264
1658789943943297,41.596093690394355,-51.6060120546274,-109.16304264896621
1658789943959297,37.01838712138533,-50.08010986495765,-102.81528953994052
1658789943975297,29.51094834821083,-44.220645456626244,-98.78690775921268
1658789943991296,33.783474479285815,-45.07515068284124,-101.59456778820481
1658789944007296,42.69474326695649,-50.44632639047836,-102.99839780270099
1658789944023296,42.938887617303635,-48.49317158770123,-96.04028381780745
1658789944039296,37.689784084840085,-37.81185626001388,-88.83802548256654
1658789944055296,40.375371938658645,-34.45487144274057,-91.76775768673224
1658789944071295,36.469062333104375,-39.58190280003055,-94.63645380331127
1658789944087295,30.243381399252257,-42.57267109178315,-92.07293812466605
1658789944103295,33.4172579537651,-41.59609369039458,-85.60311284046679
1658789944119295,41.96231021591507,-31.342030975814623,-81.14747844663157
1658789944135295,28.656443121995835,-29.32784008545036,-83.40581368734252
1658789944151275,6.073090714885211,-37.07942320897246,-89.8146028839551
1658789944167275,1.1902037079423735,-35.85870145723675,-89.26527809567392
1658789944183275,12.176699473563758,-26.39810788128466,-79.43846799420157
1658789944199275,19.867246509498727,-17.975127794308264,-73.76211184863041
1658789944215274,13.153276874952326,-16.693369954985883,-76.99702449073015
1658789944231274,-0.6408789196611906,-20.904859998473967,-79.19432364385443
1658789944247274,-4.852368963149502,-20.294499122606112,-75.10490577553969
1658789944263274,3.997863736934505,-16.693369954985883,-71.62584878309303
1658789944279274,11.444266422522333,-13.824673838406852,-69.00129701686114
1658789944295273,14.557106889448278,-14.190890363927565,-68.39093614099329
1658789944311273,13.092240787365427,-14.862287327382319,-69.79476615548947
1658789944327273,10.467689021133765,-12.726024261844714,-68.51300831616686
1658789944343273,8.6366063935302,-8.51453421835663,-62.653543907835456
1658789944359273,9.796292057679011,-2.410925459678083,-58.56412603952094
1658789944375272,15.777828641183987,4.669260700389032,-58.07583733882666
1658789944391272,16.998550392919697,7.782101167315204,-54.779888609140244
1658789944407272,2.5940337224383256,8.33142595559616,-44.76997024490743
1658789944423272,-13.64156557564661,10.833905546654478,-33.478294041352
1658789944439272,-16.388189517051842,15.777828641183987,-22.247653925383247
1658789944455271,-4.669260700389032,17.54787518120088,-8.148317692835917
1658789944471283,0.45777065690094787,16.510261692225413,4.730296787975931
1658789944487282,-11.932555123216616,17.54787518120088,15.838864728770886
1658789944503282,-20.599679560540153,18.158236057068734,27.98504615854108
1658789944519282,-12.848096437018285,20.294499122606112,41.35194934004721
1658789944535282,-7.2938124666209205,22.186617837796575,53.07087815671002
1658789944551282,-19.867246509498727,23.041123064011572,61.67696650644666
1658789944567281,-32.50171663996343,22.61387045090396,69.12336919203517
1658789944583281,-28.839551384756078,21.51522087434182,77.48531319142467
1658789944599281,-23.468375677118956,23.224231326771815,85.84725719081416
1658789944615281,-33.966582742046285,27.74090180819394,91.5236133363851
1658789944631281,-44.037537193866,28.717479209582507,93.41573205157556
1658789944647280,-37.2625314717327,28.534370946822264,97.44411383230363
1658789944663280,-25.909819180590375,28.96162355992965,102.32700083924647
1658789944679280,-29.449912260623933,31.342030975814396,105.25673304341217
1658789944695280,-36.22491798275746,33.3562218661782,105.68398565651933
1658789944711279,-27.069504844739413,33.29518577859153,107.39299610894932
1658789944727279,-19.439993896391115,32.684824902723676,111.78759441519787
1658789944743279,-28.595407034408936,34.39383535515367,112.94728007934691
1658789944759279,-45.62447547112242,34.45487144274034,112.76417181658644
1658789944775279,-48.92042420080884,33.478294041351774,114.41214618142976
1658789944791290,-35.00419623102175,34.14969100480653,118.3794918745707
1658789944807290,-29.816128786144645,34.14969100480653,121.37026016632353
1658789944823289,-41.47402151522101,32.07446402685582,117.83016708628975
1658789944839289,-51.85015640497454,30.4264896620125,114.35111009384309
1658789944855289,-43.85442893110553,31.89135576409535,116.4873731593807
1658789944871289,-27.496757457846797,32.257572289616064,117.5860227359426
1658789944887289,-26.459143968871558,33.53933012893867,113.80178530556213
1658789944903288,-43.67132066834529,32.01342793926892,107.75921263447026
1658789944919288,-51.42290379186693,29.08369573510322,103.91393911650266
1658789944935288,-40.314335851071974,31.342030975814396,106.59952697032122
1658789944951288,-29.38887617303726,36.71320668345152,108.97993438620597
1658789944967288,-31.280994888227724,36.10284580758366,103.48668650339505
1658789944983287,-43.48821240558482,31.158922713053926,96.46753643091506
1658789944999287,-53.31502250705739,27.374685282673227,93.35469596398889
1658789945015287,-46.906233310444804,30.60959792477297,95.55199511711317
1658789945031287,-27.191577019912984,35.126268406195095,95.85717555504698
1658789945047287,-11.871519035629717,32.440680552376534,90.24185549706272
1658789945063286,-28.473334859235365,25.970855268177274,84.38239108873131
1658789945079286,-53.43709468223096,24.567025253681095,80.59815365835084
1658789945095286,-48.85938811322194,28.473334859235365,80.41504539559037
1658789945111267,-13.397421225299468,34.33279926756677,82.85648889906179
1658789945127267,3.997863736934505,37.567711909666514,82.42923628595418
1658789945143266,-18.89066910811016,37.811856260013656,74.61661707484564
1658789945159266,-42.75577935454339,33.844510566872486,66.68192568856375
1658789945175266,-34.3938353551539,33.53933012893867,66.19363698786947
1658789945191266,-10.772869459067579,38.727397573815324,69.97787441824994
1658789945207265,-10.406652933546866,41.16884107728674,71.01548790722518
1658789945223265,-30.4264896620125,35.67559319447605,66.010528725109
1658789945239265,-36.652170595864845,28.717479209582507,60.57831692988475
1658789945255265,-32.13550011444272,26.39810788128466,59.540703440909056
1658789945271265,-34.149691004806755,29.08369573510322,58.93034256504143
1658789945287264,-40.13122758831173,31.89135576409535,53.19295033188337
1658789945303264,-32.07446402685605,29.694056610971074,44.89204242008077
1658789945319264,-19.623102159151586,26.52018005645823,39.58190280003032
1658789945335264,-15.655756466010416,23.95666437781324,35.85870145723652
1658789945351264,-20.843823910887295,19.80621042191183,31.464103150987967
1658789945367263,-21.51522087434182,15.533684290836845,25.909819180590375
1658789945383263,-12.054627298390187,10.589761196307336,19.439993896391115
1658789945399263,3.3264667734797513,5.706874189364498,14.312962539101136
1658789945415263,5.279621576256886,1.3733119707026162,8.880750743877343
1658789945431274,4.058899824521177,-1.0070954451819034,2.105745021744042
1658789945447274,7.476920729381163,-3.936827649347606,-3.997863736934505
1658789945463274,16.26611734187827,-9.063859006637585,-11.261158159761862
1658789945479273,20.23346303501944,-12.970168612191856,-18.341344319828977
1658789945495273,15.960936903944457,-12.603952086671143,-25.36049439230942
1658789945511273,8.270389868009488,-14.129854276340893,-33.051041428244616
1658789945527273,9.369039444571627,-18.036163881895163,-40.2532997634853
1658789945543273,16.388189517051842,-20.294499122606112,-44.95307850766767
1658789945559272,20.843823910887295,-19.9893186846723,-48.6762798504617
1658789945575272,24.933241779201808,-22.8580148012511,-52.460517280842396
1658789945591272,35.67559319447605,-25.848783093003703,-54.596780346379774
1658789945607272,43.48821240558459,-28.16815442130155,-57.404440375371905
1658789945623272,39.88708323796436,-32.50171663996343,-61.79903868162046
1658789945639271,35.67559319447605,-37.07942320897246,-66.31570916304258
1658789945655271,42.755779354543165,-39.215686274509835,-69.73373006790257
1658789945671271,48.06591897459339,-39.64293888761745,-72.5413900968947
1658789945687271,45.07515068284101,-40.92469672693983,-78.0956740672923
1658789945703271,44.83100633249387,-42.26749065384911,-82.97856107423513
1658789945719270,47.882810711833145,-43.305104142824575,-85.29793240253298
1658789945735270,51.4229037918667,-44.403753719386714,-86.51865415426869
1658789945751281,50.690470740825276,-44.647898069733856,-89.50942244602106
1658789945767281,54.596780346379546,-46.05172808422981,-94.94163424124531
1658789945783281,60.57831692988475,-48.6152437628748,-99.09208819714672
1658789945799281,56.67200732433048,-51.36186770428026,-101.53353170061814
1658789945815281,45.80758373388244,-54.35263599603263,-102.51010910200671
1658789945831280,38.727397573815324,-55.75646601052881,-103.18150606546124
1658789945847280,40.253299763485074,-55.3292133974212,-102.57114518959338
1658789945863280,42.57267109178292,-56.48889906157024,-103.97497520408956
1658789945879280,37.9949645227739,-59.60173952849618,-103.97497520408956
1658789945895280,27.374685282673227,-62.653543907835456,-104.34119172961027
1658789945911279,20.538643472953254,-61.92111085679403,-105.31776913099884
1658789945927279,25.726710917830133,-60.70038910505832,-106.17227435721384
1658789945943279,29.633020523384403,-59.60173952849618,-105.74502174410623
1658789945959279,27.74090180819394,-59.66277561608308,-105.74502174410623
1658789945975278,18.646524757763018,-57.22133211261166,-106.05020218204027
1658789945991278,15.655756466010416,-54.29159990844596,-108.12542915999097
1658789946007278,18.82963302052326,-52.155336842908355,-107.45403219653622
1658789946023278,25.665674830243233,-50.812542915999074,-105.9281300068667
1658789946039278,32.62378881513678,-47.028305485618375,-102.44907301441981
1658789946055277,31.586175326161538,-45.13618677042814,-100.74006256198982
1658789946071258,31.586175326161538,-47.211413748378845,-101.53353170061814
1658789946087258,36.89631494621176,-46.35690852216385,-99.33623254749386
1658789946103258,36.65217059586462,-41.901274128328396,-94.27023727779056
1658789946119258,32.684824902723676,-36.4690623331046,-89.63149462119463
1658789946135257,25.29945830472252,-37.07942320897246,-89.87563897154178
1658789946151257,21.69832913710229,-41.22987716487387,-92.13397421225295
1658789946167257,19.1348134584573,-39.58190280003055,-87.43419546807036
1658789946183257,22.186617837796575,-28.351262684061794,-78.76707103074682
1658789946199257,23.529411764705856,-19.562066071564686,-75.77630273899445
1658789946215256,25.36049439230942,-20.477607385366582,-78.64499885557325
1658789946231256,17.36476691844041,-25.787747005416804,-79.07225146868086
1658789946247256,-1.0070954451819034,-23.529411764705856,-74.49454489967184
1658789946263256,-2.410925459678083,-13.519493400473038,-68.94026092927447
1658789946279255,10.406652933546866,-7.232776379034021,-67.17021438925758
1658789946295255,13.092240787365427,-4.180971999694748,-67.10917830167091
1658789946311255,-0.45777065690094787,-4.242008087281647,-68.57404440375376
1658789946327255,-7.4158846417944915,-0.45777065690094787,-65.27809567406734
1658789946343255,8.270389868009488,5.95101853971164,-56.79407949950405
1658789946359254,25.726710917830133,8.819714656290444,-47.27244983596552
1658789946375254,20.416571297779683,7.476920729381163,-41.840238040741724
1658789946391265,2.7161058976118966,8.697642481116873,-35.91973754482342
1658789946407265,-2.8381780727854675,11.749446860456146,-24.872205691615136
1658789946423265,2.5940337224383256,13.519493400473038,-13.031204699778755
1658789946439265,2.7771419851987957,16.632333867398984,-3.2654306858930795
1658789946455265,-9.185931181811156,19.439993896391115,7.232776379034021
1658789946471264,-17.24269474326684,21.087968261234437,17.730983443961122
1658789946487264,-17.36476691844041,22.67490653849086,27.92401007095441
1658789946503264,-17.181658655680167,23.7125200274661,37.689784084840085
1658789946519264,-24.07873655298681,24.994277866788707,45.502403295948625
1658789946535264,-31.525139238574866,25.116350041962278,52.46051728084194
1658789946551263,-30.4264896620125,25.787747005416804,59.96795605401667
1658789946567263,-25.23842221713585,26.39810788128466,66.62088960097662
1658789946583263,-26.031891355763946,27.92401007095441,71.13756008239898
1658789946599263,-32.07446402685605,29.51094834821083,74.92179751277945
1658789946615263,-27.008468757152514,30.121309224078686,79.74364843213561
1658789946631262,-17.60891126878755,31.52513923857464,84.8706797894256
1658789946647262,-19.9282825970854,33.661402304112244,88.16662851911224
1658789946663262,-31.280994888227724,32.74586099031035,89.9366750591289
1658789946679262,-33.11207751583129,34.14969100480653,92.25604638742652
1658789946695262,-29.14473182269012,36.346990157930804,97.19996948195649
1658789946711273,-28.96162355992965,36.10284580758366,98.78690775921268
1658789946727273,-37.50667582207984,37.689784084840085,99.15312428473362
1658789946743272,-38.97154192416269,37.689784084840085,99.82452124818792
1658789946759272,-37.38460364690627,37.689784084840085,102.81528953994075
1658789946775272,-35.73662928206318,38.0560006103608,102.44907301441981
1658789946791272,-33.35622186617843,38.910505836575794,102.08285648889932
1658789946807272,-30.30441748683893,39.032578011749365,104.40222781719694
1658789946823271,-31.952391851682478,37.2014953841458,105.80605783169312
1658789946839271,-38.91050583657602,34.821087968261054,104.40222781719694
1658789946855271,-43.61028458075839,35.004196231021524,103.66979476615552
1658789946871271,-43.121995880064105,36.591134508277946,102.63218127718028
1658789946887271,-36.652170595864845,36.77424277103819,98.78690775921268
1658789946903270,-39.337758449683406,33.600366216525344,95.00267032883221
1658789946919270,-42.93888761730386,31.89135576409535,93.53780422674936
1658789946935270,-39.58190280003055,34.57694361791391,95.61303120469984
1658789946951270,-31.89135576409558,37.32356755931937,94.27023727779078
1658789946967270,-20.35553521019301,32.684824902723676,86.51865415426892
1658789946983269,-23.89562829022657,27.557793545433697,81.87991149767322
1658789946999269,-39.82604715037769,27.80193789578084,78.21774624246609
1658789947015269,-46.29587243457695,30.243381399252257,74.7997253376061
1658789947031250,-31.708247501335336,33.661402304112244,74.06729228656468
1658789947047249,-19.378957808804444,37.689784084840085,75.34905012588706
1658789947063249,-26.031891355763946,38.17807278553437,70.6492713817047
1658789947079249,-40.1922636758984,33.661402304112244,60.88349736781856
1658789947095249,-35.309376668955565,29.449912260623933,56.24475471122287
1658789947111249,-16.2050812542916,32.13550011444249,62.28732738231474
1658789947127248,-1.983672846570471,41.10780498970007,68.20782787823327
1658789947143248,-3.4485389486533222,40.9246967269396,63.263904783703765
1658789947159248,-10.650797283894008,32.13550011444249,52.39948119325527
1658789947175248,-22.73594262607753,27.191577019912984,49.225604638742425
1658789947191248,-28.412298771648693,29.877164873731545,51.5449759670405
1658789947207247,-20.965896086060866,35.126268406195095,54.29159990844573
1658789947223247,-5.523765926604028,38.54428931105508,54.413672083619076
1658789947239247,-7.843137254901876,36.346990157930804,50.38529030289146
1658789947255247,-25.36049439230942,26.459143968871558,42.51163500419602
1658789947271247,-33.966582742046285,22.73594262607753,37.506675822079615
1658789947287246,-22.125581750209676,28.595407034408936,38.36118104829461
1658789947303246,-3.814755474174035,35.49248493171581,40.00915541313793
1658789947319246,7.476920729381163,33.661402304112244,36.285954070343905
1658789947335246,-1.1902037079423735,28.778515297169406,30.121309224078686
1658789947351257,-19.9893186846723,25.29945830472252,26.337071793697987
1658789947367257,-21.087968261234437,22.919050888838,25.970855268177274
1658789947383257,-8.51453421835663,21.14900434882111,26.276035706111088
1658789947399256,-8.941786831464015,17.42580300602731,23.89562829022657
1658789947415256,-24.505989166094423,11.261158159761862,16.02197299153113
1658789947431256,-31.464103150988194,4.180971999694748,6.500343327992596
1658789947447256,-24.200808728160382,-1.0681315327688026,1.5564202334630863
1658789947463256,-14.740215152208748,-3.2043945983061803,-0.45777065690094787
1658789947479255,-2.532997634851654,-4.486152437628789,-2.04470893415737
1658789947495255,9.55214770733187,-6.134126802471883,-4.547188525215461
1658789947511255,17.730983443961122,-10.467689021133765,-9.796292057679011
1658789947527255,16.998550392919697,-14.251926451514464,-17.24269474326684
1658789947543254,12.909132524605184,-16.26611734187827,-24.689097428854666
1658789947559254,13.031204699778755,-17.42580300602731,-29.755092698557974
1658789947575254,19.073777370870403,-17.914091706721592,-33.5393301289389
1658789947591254,24.872205691615136,-19.867246509498727,-36.713206683451745
1658789947607254,24.13977264057371,-22.61387045090396,-39.215686274509835
1658789947623253,20.965896086060866,-24.383916990920852,-41.901274128328396
1658789947639253,22.003509575036105,-26.7032883192187,-45.38033112077528
1658789947655253,26.58121614404513,-30.60959792477297,-48.92042420080884
1658789947671264,29.999237048905115,-33.478294041352,-51.48393987945383
1658789947687264,27.92401007095441,-35.91973754482342,-53.559166857404534
1658789947703264,24.322880903333953,-36.89631494621199,-56.00061036087595
1658789947719264,29.26680399786369,-36.04180971999699,-60.76142519264522
1658789947735263,40.497444113832216,-35.98077363241032,-63.996337834744736
1658789947751263,41.8402380407415,-38.36118104829484,-65.21705958648045
1658789947767263,34.02761882963296,-42.45059891660958,-67.29228656443115
1658789947783263,32.74586099031035,-44.58686198214696,-70.34409094377042
1658789947799263,37.506675822079615,-42.81681544213029,-72.17517357137399
1658789947815262,42.02334630350174,-41.35194934004744,-74.3114366369116
1658789947831262,42.26749065384888,-41.59609369039458,-76.81391622796968
1658789947847262,37.9949645227739,-44.28168154421314,-79.316395819028
1658789947863262,31.219958800640825,-48.249027237354085,-80.59815365835038
1658789947879262,30.060273136491787,-47.39452201113909,-80.35400930800324
1658789947895261,35.73662928206295,-43.244068055237676,-81.87991149767299
1658789947911261,37.75082017242676,-42.45059891660958,-85.05378805218584
1658789947927261,33.478294041351774,-46.9672693980317,-88.89906157015321
1658789947943261,25.543602655069662,-49.04249637598241,-89.08216983291368
1658789947959261,23.7125200274661,-44.76997024490743,-87.55626764324393
1658789947975260,28.04608224612798,-41.0467689021134,-88.47180895704582
1658789947991272,33.905546654459386,-42.45059891660958,-90.91325246051724
1658789948007271,34.943160143434625,-46.23483634699028,-91.15739681086438
1658789948023271,24.383916990920852,-46.17380025940338,-90.85221637293034
1658789948039271,16.26611734187827,-42.75577935454339,-93.04951552605462
1658789948055271,20.17242694743254,-37.81185626001388,-94.20920119020388
1658789948071271,33.905546654459386,-34.45487144274057,-93.65987640192247
1658789948087270,37.75082017242676,-34.88212405584818,-91.82879377431891
1658789948103270,29.32784008545036,-37.50667582207984,-91.21843289845106
1658789948119270,26.39810788128466,-36.835278858625315,-88.5328450446325
1658789948135270,32.62378881513678,-32.25757228961629,-84.13824673838394
1658789948151270,36.77424277103819,-32.13550011444272,-85.11482413977251
1658789948167269,30.060273136491787,-36.28595407034413,-88.5938811322194
1658789948183269,22.67490653849086,-37.50667582207984,-86.70176241702893
1658789948199269,20.477607385366582,-31.342030975814623,-78.4008545052261
1658789948215269,22.003509575036105,-25.05531395437538,-75.71526665140755
1658789948231269,24.689097428854666,-27.252613107499656,-81.33058670939181
1658789948247268,17.79201953154802,-30.670634012359642,-81.33058670939181
1658789948263268,9.796292057679011,-27.191577019912984,-75.28801403830016
1658789948279268,8.697642481116873,-20.416571297779683,-71.44274052033256
1658789948295268,11.749446860456146,-18.95170519569683,-73.76211184863041
1658789948311279,13.702601663233281,-21.45418478675515,-75.16594186312659
1658789948327279,11.688410772869474,-23.285267414358714,-71.99206530861375
1658789948343279,10.955977721828049,-19.623102159151586,-66.07156481269544
1658789948359278,11.566338597695903,-15.716792553597315,-64.36255436026545
1658789948375278,11.993591210803288,-15.960936903944457,-67.29228656443115
1658789948391278,16.510261692225413,-17.60891126878755,-67.71953917753876
1658789948407278,18.58548867017612,-16.1440451667047,-62.1042191195545
1658789948423277,11.993591210803288,-10.467689021133765,-58.503089951934044
1658789948439277,6.500343327992596,-8.880750743877343,-60.33417257953761
1658789948455277,6.744487678339738,-10.101472495613052,-59.845883878843324
1658789948471277,11.20012207217519,-8.51453421835663,-56.61097123674381
1658789948487277,8.880750743877343,-2.166781109330941,-50.56839856565193
1658789948503276,3.814755474174035,0.8239871824216607,-45.868619821469565
1658789948519276,3.7537193865873633,1.1902037079423735,-41.41298542763411
1658789948535276,4.730296787975931,0.6408789196611906,-35.12626840619532
1658789948551276,-2.04470893415737,3.1433585107195086,-27.496757457846797
1658789948567276,-9.613183794918768,6.012054627298312,-20.843823910887295
1658789948583275,-4.119935912108076,6.500343327992596,-13.946746013580423
1658789948599275,7.721065079728305,9.063859006637585,-3.4485389486533222
1658789948615275,4.974441138323073,12.664988174258042,5.157549401083315
1658789948631286,-11.07804989700162,12.848096437018285,11.993591210803288
1658789948647286,-16.632333867398984,12.176699473563758,18.402380407415876
1658789948663286,-7.354848554207592,14.190890363927565,26.947432669565842
1658789948679286,-5.462729839017356,17.54787518120088,38.36118104829461
1658789948695285,-17.914091706721592,18.82963302052326,44.83100633249387
1658789948711285,-27.313649195086555,17.181658655680167,49.77492942702338
1658789948727285,-21.57625696192872,16.571297779812312,58.9913786526281
1658789948743285,-14.862287327382319,17.730983443961122,67.2312504768447
1658789948759285,-19.501029983978015,19.317921721217544,72.48035400930803
1658789948775284,-30.60959792477297,20.660715648126825,78.27878233005276
1658789948791284,-29.08369573510322,20.721751735713724,83.10063324940893
1658789948807284,-19.439993896391115,21.026932173647538,86.03036545357463
1658789948823284,-23.529411764705856,23.102159151598244,88.16662851911224
1658789948839284,-33.844510566872714,24.628061341267994,88.89906157015366
1658789948855283,-28.96162355992965,26.764324406805372,91.15739681086461
1658789948871283,-15.10643167772946,28.229190508888223,94.94163424124508
1658789948887283,-12.4208438239109,29.938200961318216,97.13893339436936
1658789948903283,-26.214999618524416,31.158922713053926,97.07789730678269
1658789948919283,-34.271763179980326,30.792706187533213,96.28442816815459
1658789948935282,-25.42153047989609,30.060273136491787,99.2141603723203
1658789948951263,-18.219272144655406,30.30441748683893,104.9515526054779
1658789948967263,-26.82536049439227,32.13550011444249,107.0878156710155
1658789948983263,-44.403753719386714,32.684824902723676,105.50087739375931
1658789948999262,-47.63866636148623,29.755092698557974,102.75425345235362
1658789949015262,-28.839551384756078,28.107118333714652,104.2801556420236
1658789949031262,-18.646524757763018,30.670634012359642,107.69817654688359
1658789949047262,-28.595407034408936,33.722438391698915,105.74502174410645
1658789949063262,-42.93888761730386,33.783474479285815,101.89974822613885
1658789949079261,-38.23910887312127,33.23414969100463,99.39726863508076
1658789949095261,-23.590447852292527,32.86793316548392,97.74929427023744
1658789949111261,-21.637293049515392,32.74586099031035,96.16235599298079
1658789949127261,-37.44563973449317,33.478294041351774,94.4533455405508
1658789949143261,-50.50736247806526,34.08865491721963,91.88982986190604
1658789949159260,-45.868619821469565,33.3562218661782,88.71595330739319
1658789949175260,-27.74090180819394,32.684824902723676,87.37315938048368
1658789949191260,-25.665674830243233,33.11207751583106,90.11978332188937
1658789949207260,-39.45983062485698,32.13550011444249,90.18081940947604
1658789949223260,-43.54924849317172,31.036850537880355,87.06797894254987
1658789949239259,-25.23842221713585,29.571984435797503,85.11482413977274
1658789949255259,-8.697642481116873,32.13550011444249,86.8848706797894
1658789949271270,-15.838864728770886,31.586175326161538,82.30716411078083
1658789949287270,-37.872892347600555,28.412298771648693,74.73868925001943
1658789949303270,-41.53505760280768,27.130540932326085,70.40512703135755
1658789949319270,-21.087968261234437,31.52513923857464,71.7479209582666
1658789949335270,-1.4953841458761872,36.65217059586462,71.99206530861375
1658789949351269,-10.162508583199724,35.79766536964962,65.40016784924092
1658789949367269,-34.332799267567,30.792706187533213,57.09925993743764
1658789949383269,-38.48325322346841,29.26680399786369,55.634393835354786
1658789949399269,-20.599679560540153,34.02761882963296,58.74723430228096
1658789949415269,-5.645838101777599,36.77424277103819,58.01480125123953
1658789949431268,-9.67421988250544,32.99000534065749,52.88776989394955
1658789949447268,-23.7125200274661,29.571984435797503,49.46974898908957
1658789949463268,-27.98504615854108,28.717479209582507,48.73731593804814
1658789949479268,-11.566338597695903,29.999237048905115,47.6997024490729
1658789949495267,0.09155413138023505,33.05104142824439,46.35690852216362
1658789949511267,-4.180971999694748,31.83031967650868,42.45059891660935
1658789949527267,-18.158236057068734,26.031891355763946,38.910505836575794
1658789949543267,-23.529411764705856,21.820401312275862,36.83527885862509
1658789949559267,-19.9282825970854,21.026932173647538,34.57694361791391
1658789949575266,-16.1440451667047,23.102159151598244,29.877164873731545
1658789949591278,-13.824673838406852,23.83459220263967,22.49179827573039
1658789949607277,-11.627374685282575,19.256885633630873,15.10643167772946
1658789949623277,-13.885709925993751,14.435034714274707,10.528725108720437
1658789949639277,-13.946746013580423,13.153276874952326,6.378271152819025
1658789949655277,-3.5095750362402214,12.909132524605184,1.739528496223329
1658789949671277,13.702601663233281,9.73525597009234,-1.8005645838102282
1658789949687276,15.350576028076603,3.4485389486533222,-5.3406576638437855
1658789949703276,6.683451590753066,-0.09155413138023505,-10.711833371480907
1658789949719276,8.6366063935302,-2.5940337224383256,-16.388189517051842
1658789949735276,16.1440451667047,-6.683451590753066,-20.17242694743254
1658789949751276,17.975127794308264,-11.261158159761862,-24.689097428854666
1658789949767275,14.557106889448278,-15.045395590142562,-28.778515297169406
1658789949783275,10.589761196307336,-18.463416495002548,-32.867933165484146
1658789949799275,9.918364232852582,-22.980086976424673,-37.933928435187454
1658789949815275,14.251926451514464,-28.107118333714652,-43.54924849317172
1658789949831275,19.867246509498727,-30.36545357442583,-47.45555809872599
1658789949847274,17.975127794308264,-32.37964446478986,-49.95803768978408
1658789949863274,21.637293049515392,-31.89135576409558,-53.376058594644064
1658789949879274,32.31860837720296,-33.17311360341819,-57.09925993743809
1658789949895274,36.65217059586462,-36.957351033798886,-61.493858243686645
1658789949911255,31.036850537880355,-41.41298542763411,-66.07156481269544
1658789949927254,26.886396581978943,-41.1078049897003,-69.611657892729
1658789949943254,36.53009842069105,-38.056000610361025,-71.19859616998542
1658789949959254,47.08934157320505,-38.056000610361025,-72.66346227206827
1658789949975254,40.74158846417936,-44.28168154421314,-76.08148317692826
1658789949991253,25.970855268177274,-50.934615091172645,-80.78126192111085
1658789950007253,23.407339589532285,-47.94384679942027,-80.90333409628442
1658789950023253,35.18730449378177,-43.79339284351886,-82.67338063630109
1658789950039253,48.79835202563481,-45.92965590905624,-84.50446326390465
1658789950055253,43.61028458075816,-51.056687266346216,-85.72518501564036
1658789950071252,26.6422522316318,-52.76569771877621,-88.71595330739297
1658789950087252,29.51094834821083,-52.216372930495254,-92.13397421225295
1658789950103252,43.976501106278874,-50.14114595254455,-90.36392767223606
1658789950119252,52.39948119325527,-48.554207675288126,-88.16662851911178
1658789950135252,44.89204242008077,-50.01907377737098,-90.54703593499653
1658789950151251,31.097886625467254,-53.74227512016478,-95.97924773022055
1658789950167251,23.95666437781324,-55.26817730983453,-100.74006256198982
1658789950183251,25.36049439230942,-53.19295033188382,-99.64141298542768
1658789950199251,33.661402304112244,-47.45555809872599,-95.67406729228674
1658789950215251,36.04180971999676,-42.999923704890534,-94.5754177157246
1658789950231262,37.01838712138533,-45.19722285801481,-99.2141603723203
1658789950247262,35.37041275654224,-47.39452201113909,-101.77767605096528
1658789950263261,27.98504615854108,-45.62447547112242,-100.434882124056
1658789950279261,26.459143968871558,-44.037537193866,-99.82452124818815
1658789950295261,34.33279926756677,-41.16884107728697,-97.5051499198903
1658789950311261,38.0560006103608,-38.91050583657602,-94.33127336537746
1658789950327261,28.839551384756078,-37.01838712138556,-95.06370641641888
1658789950343260,19.1348134584573,-36.16388189517056,-101.47249561303124
1658789950359260,21.14900434882111,-35.24834058136889,-100.74006256198982
1658789950375260,32.257572289616064,-31.280994888227724,-92.25604638742652
1658789950391260,32.13550011444249,-27.008468757152514,-88.71595330739297
1658789950407260,19.378957808804444,-27.98504615854108,-93.5378042267489
1658789950423259,11.566338597695903,-31.403067063401295,-92.56122682536034
1658789950439259,18.70756084534969,-27.435721370260126,-83.58892195010299
1658789950455259,24.505989166094423,-21.69832913710229,-79.68261234454872
1658789950471259,12.4208438239109,-21.45418478675515,-82.97856107423513
1658789950487259,4.852368963149502,-22.369726100556818,-83.8941023880368
1658789950503258,13.885709925993751,-19.684138246738257,-76.56977187762254
1658789950519258,22.919050888838,-15.228503852903032,-71.19859616998542
1658789950535258,11.871519035629717,-14.862287327382319,-74.00625619897755
1658789950551269,4.058899824521177,-16.876478217746126,-76.93598840314326
1658789950567269,13.397421225299468,-16.510261692225413,-70.40512703135732
1658789950583269,24.26184481574728,-9.063859006637585,-61.73800259403379
1658789950599269,23.529411764705856,-4.303044174868319,-61.371786068513074
1658789950615268,20.477607385366582,-6.195162890058782,-64.24048218509188
1658789950631268,20.11139085984587,-9.85732814526591,-61.67696650644689
1658789950647268,11.261158159761862,-5.645838101777599,-53.620202944991206
1658789950663268,-0.15259021896690683,-0.15259021896690683,-48.98146028839551
1658789950679268,4.180971999694748,1.5564202334630863,-44.892042420081
1658789950695267,17.36476691844041,0.8239871824216607,-37.14045929655913
1658789950711267,11.383230334935433,5.645838101777599,-28.534370946822264
1658789950727267,-8.209353780422589,7.537956816968062,-23.590447852292527
1658789950743267,-15.716792553597315,7.843137254901876,-15.533684290836845
1658789950759266,-5.95101853971164,10.101472495613052,-5.3406576638437855
1658789950775266,-3.3264667734797513,13.58052948805971,2.655069810025225
1658789950791266,-18.76859693293659,14.862287327382319,11.07804989700162
1658789950807266,-21.820401312275862,13.519493400473038,19.684138246738257
1658789950823266,-12.054627298390187,14.007782101167322,29.816128786144645
1658789950839265,-13.275349050125897,15.350576028076603,38.23910887312104
1658789950855265,-21.637293049515392,14.435034714274707,42.816815442130064
1658789950871246,-28.717479209582507,15.10643167772946,50.93461509117242
1658789950887246,-25.17738612954895,13.946746013580423,57.83169298847906
1658789950903246,-18.280308232242305,14.251926451514464,63.56908522163758
1658789950919245,-18.82963302052326,16.876478217746126,67.84161135271233
1658789950935245,-27.191577019912984,19.256885633630873,70.71030746929137
1658789950951245,-28.778515297169406,20.477607385366582,73.94522011139088
1658789950967245,-22.186617837796575,21.881437399862534,77.54634927901134
1658789950983245,-24.689097428854666,25.29945830472252,80.41504539559037
1658789950999244,-32.50171663996343,24.689097428854666,79.25535973144133
1658789951015244,-31.158922713053926,23.83459220263967,80.96437018387132
1658789951031244,-23.89562829022657,25.726710917830133,86.8848706797894
1658789951047244,-23.041123064011572,27.86297398336751,90.42496375982319
1658789951063243,-31.647211413748437,28.473334859235365,91.70672159914557
1658789951079243,-33.66140230411247,27.008468757152514,91.58464942397222
1658789951095243,-27.313649195086555,26.153963530937517,93.96505683985652
1658789951111243,-27.61882963302037,26.39810788128466,96.65064469367508
1658789951127243,-36.10284580758389,26.947432669565842,96.77271686884887
1658789951143242,-37.50667582207984,27.80193789578084,97.74929427023744
1658789951159242,-22.552834363317288,29.38887617303726,98.60379949645221
1658789951175242,-15.594720378423744,31.158922713053926,99.70244907301458
1658789951191253,-27.496757457846797,30.54856183718607,96.95582513160934
1658789951207253,-42.93888761730386,29.571984435797503,93.84298466468317
1658789951223253,-40.92469672693983,32.92896925307082,93.6598764019227
1658789951239253,-18.219272144655406,35.67559319447605,94.94163424124508
1658789951255252,-9.796292057679011,36.408026245517476,97.13893339436936
1658789951271252,-25.665674830243233,35.004196231021524,94.75852597848507
1658789951287252,-48.85938811322194,32.13550011444249,91.6456855115589
1658789951303252,-51.78912031738764,30.060273136491787,91.27946898603795
1658789951319252,-28.107118333714652,32.99000534065749,94.94163424124508
1658789951335251,-13.64156557564661,35.18730449378177,98.4206912336922
1658789951351251,-28.595407034408936,32.379644464789635,95.42992294193937
1658789951367251,-54.29159990844596,29.38887617303726,89.99771114671557
1658789951383251,-55.14610513466096,28.229190508888223,87.06797894254987
1658789951399251,-21.14900434882111,30.853742275120112,88.22766460669891
1658789951415250,0.33569848172737693,37.01838712138533,91.70672159914557
1658789951431250,-18.95170519569683,37.628747997253186,85.78622110322749
1658789951447250,-42.999923704890534,31.89135576409535,75.53215838864753
1658789951463250,-34.45487144274057,30.4264896620125,75.28801403830039
1658789951479250,-7.537956816968062,37.75082017242676,83.1616693369956
1658789951495249,2.7161058976118966,45.25825894560148,85.90829327840083
1658789951511261,-12.848096437018285,42.02334630350174,75.16594186312659
1658789951527260,-26.58121614404513,36.163881895170334,64.72877088578662
1658789951543260,-26.7032883192187,34.08865491721963,64.36255436026568
1658789951559260,-22.247653925383247,37.01838712138533,67.10917830167091
1658789951575260,-21.026932173647538,40.55848020141889,65.2170595864809
1658789951591260,-17.66994735637445,39.39879453727008,61.06660563057903
1658789951607259,-14.435034714274707,35.49248493171581,58.503089951933816
1658789951623259,-15.045395590142562,33.23414969100463,56.12268253604907
1658789951639259,-18.097199969481835,32.62378881513678,53.19295033188337
1658789951655259,-16.388189517051842,32.562752727550105,51.483939879453374
1658789951671259,-11.20012207217519,29.38887617303726,49.89700160219718
1658789951687258,-11.627374685282575,27.130540932326085,48.43213550011433
1658789951703258,-17.914091706721592,26.39810788128466,44.64789806973363
1658789951719258,-26.82536049439227,24.200808728160382,38.910505836575794
1658789951735258,-28.778515297169406,20.782787823300396,33.05104142824439
1658789951751258,-28.351262684061794,16.388189517051842,26.886396581978943
1658789951767257,-24.872205691615136,14.007782101167322,21.026932173647538
1658789951783257,-21.57625696192872,13.519493400473038,15.960936903944457
1658789951799257,-11.749446860456146,10.955977721828049,11.322194247348762
1658789951815257,-1.5564202334630863,6.927595941100208,7.721065079728305
1658789951831237,-1.4953841458761872,3.4485389486533222,1.4953841458761872
1658789951847237,1.4343480582895154,-0.03051804379333589,-5.828946364538069
1658789951863237,8.392462043183059,-3.3875028610666504,-10.040436408026153
1658789951879237,16.388189517051842,-4.364080262455218,-13.397421225299468
1658789951895237,15.716792553597315,-7.965209430075447,-19.256885633630873
1658789951911236,7.537956816968062,-14.435034714274707,-27.069504844739413
1658789951927236,2.105745021744042,-20.05035477225897,-34.3938353551539
1658789951943236,6.9886320286868795,-22.67490653849086,-39.398794537270305
1658789951959236,14.740215152208748,-23.83459220263967,-42.20645456626244
1658789951975236,20.416571297779683,-24.322880903333953,-44.647898069733856
1658789951991235,24.07873655298681,-27.496757457846797,-48.98146028839551
1658789952007235,24.200808728160382,-31.708247501335336,-54.65781643396667
1658789952023235,20.538643472953254,-35.370412756542464,-60.76142519264522
1658789952039235,18.158236057068734,-35.309376668955565,-66.31570916304258
1658789952055235,27.61882963302037,-33.35622186617843,-69.85580224307614
1658789952071234,42.38956282902245,-30.670634012359642,-70.89341573205161
1658789952087234,47.6997024490729,-30.243381399252257,-72.84657053482874
1658789952103234,43.61028458075816,-33.72243839169914,-78.0346379797054
1658789952119234,38.727397573815324,-37.44563973449317,-82.67338063630109
1658789952135234,39.27672236209651,-38.42221713588174,-83.64995803768966
1658789952151245,42.938887617303635,-37.14045929655913,-83.34477759975584
1658789952167245,41.22987716487364,-38.056000610361025,-85.66414892805369
1658789952183244,38.36118104829461,-43.36614023041125,-89.63149462119463
1658789952199244,37.44563973449294,-44.95307850766767,-89.63149462119463
1658789952215244,39.09361409933604,-43.73235675593196,-88.65491721980607
1658789952231244,42.08438239108864,-44.8310063324941,-90.18081940947582
1658789952247244,43.9154650186922,-46.84519722285813,-91.40154116121153
1658789952263243,34.821087968261054,-46.66208896009766,-90.6080720225832
1658789952279243,24.872205691615136,-43.06095979247743,-93.90402075226984
1658789952295243,37.75082017242676,-40.558480201419115,-98.60379949645244
1658789952311243,47.39452201113886,-36.835278858625315,-94.5754177157246
1658789952327242,45.624475471122196,-28.107118333714652,-90.91325246051724
1658789952343242,51.056687266346216,-26.886396581978943,-93.47676813916223
1658789952359242,60.82246128023189,-27.130540932326085,-90.42496375982296
1658789952375242,52.82673380636288,-24.567025253681095,-81.025406271458
1658789952391242,39.45983062485675,-23.83459220263967,-79.74364843213539
1658789952407241,39.45983062485675,-27.80193789578084,-85.29793240253298
1658789952423241,34.69901579308748,-31.769283588922008,-84.44342717631798
1658789952439241,27.61882963302037,-28.412298771648693,-78.27878233005254
1658789952455241,22.064545662623004,-21.820401312275862,-73.15175097276256
1658789952471252,18.76859693293659,-21.39314869916825,-78.21774624246586
1658789952487252,23.7125200274661,-27.008468757152514,-84.7486076142518
1658789952503252,20.294499122606112,-29.633020523384403,-82.55130846112752
1658789952519251,13.031204699778755,-24.200808728160382,-77.66842145418468
1658789952535251,12.848096437018285,-18.58548867017612,-77.30220492866397
1658789952551251,22.79697871366443,-19.378957808804444,-82.61234454871442
1658789952567251,33.478294041351774,-24.505989166094423,-83.9551384756237
1658789952583251,27.86297398336751,-20.843823910887295,-79.37743190661467
1658789952599250,16.632333867398984,-16.754406042572555,-81.94094758525966
1658789952615250,14.251926451514464,-16.632333867398984,-84.56549935149155
1658789952631250,17.853055619134693,-19.1348134584573,-83.16166933699537
1658789952647250,19.867246509498727,-19.317921721217544,-79.68261234454872
1658789952663250,16.693369954985883,-16.02197299153113,-75.95941100175469
1658789952679249,7.965209430075447,-15.228503852903032,-75.77630273899445
1658789952695249,9.613183794918768,-17.914091706721592,-77.85152971694515
1658789952711249,17.975127794308264,-18.463416495002548,-74.55558098725874
1658789952727249,18.036163881895163,-14.373998626688035,-69.97787441824971
1658789952743249,11.566338597695903,-13.397421225299468,-69.97787441824971
1658789952759248,6.8665598535133086,-13.519493400473038,-70.64927138170447
1658789952775248,11.688410772869474,-12.481879911497572,-68.63508049134043
1658789952791229,16.2050812542916,-10.345616845960194,-64.54566262302592
1658789952807229,12.054627298390187,-4.486152437628789,-59.66277561608308
1658789952823228,3.814755474174035,0.2746623941404778,-58.86930647745476
1658789952839228,11.139085984588291,-1.739528496223329,-57.77065690089262
1658789952855228,18.89066910811016,1.0681315327688026,-50.32425421530479
1658789952871228,9.491111619745197,5.828946364538069,-42.999923704890534
1658789952887228,-0.15259021896690683,5.401693751430457,-36.713206683451745
1658789952903227,6.744487678339738,4.180971999694748,-26.214999618524416
1658789952919227,8.209353780422589,5.95101853971164,-13.336385137712568
1658789952935227,-8.697642481116873,11.322194247348762,-3.997863736934505
1658789952951227,-24.933241779201808,11.383230334935433,3.5095750362402214
1658789952967227,-12.298771648737329,9.85732814526591,14.435034714274707
1658789952983226,-3.2043945983061803,13.092240787365427,26.58121614404513
1658789952999226,-15.472648203250174,14.435034714274707,33.722438391698915
1658789953015226,-26.7032883192187,13.824673838406852,41.412985427633885
1658789953031226,-21.637293049515392,13.76363775082018,52.277409018081926
1658789953047226,-17.303730830853738,14.98435950255589,61.18867780575238
1658789953063225,-29.14473182269012,16.571297779812312,66.86503395132377
1658789953079225,-39.276722362096734,16.632333867398984,71.7479209582666
1658789953095225,-32.07446402685605,19.01274128328373,78.88914320592085
1658789953111236,-24.994277866788707,21.33211261158158,86.2134737163351
1658789953127236,-36.591134508278174,23.346303501945386,90.66910811017033
1658789953143236,-51.056687266346216,22.8580148012511,92.8664072632946
1658789953159236,-41.59609369039458,22.064545662623004,96.34546425574126
1658789953175235,-24.994277866788707,24.383916990920852,103.05943389028789
1658789953191235,-24.811169604028237,30.060273136491787,107.2098878461893
1658789953207235,-41.0467689021134,30.182345311665358,106.35538261997408
1658789953223235,-44.58686198214696,26.764324406805372,104.2801556420236
1658789953239235,-35.06523231860842,27.92401007095441,107.27092393377598
1658789953255234,-29.755092698557974,30.30441748683893,111.42137788967739
1658789953271234,-39.093614099336264,33.722438391698915,115.02250705729784
1658789953287234,-50.50736247806526,32.13550011444249,112.70313572899977
1658789953303234,-43.54924849317172,28.351262684061794,109.52925917448692
1658789953319234,-32.37964446478986,29.999237048905115,114.04592965590928
1658789953335233,-38.056000610361025,31.219958800640825,115.5718318455788
1658789953351233,-54.840924696726915,29.14473182269012,112.27588311589216
1658789953367233,-59.66277561608308,27.557793545433697,112.39795529106595
1658789953383233,-43.73235675593196,28.351262684061794,114.53421835660356
1658789953399232,-30.670634012359642,27.98504615854108,112.70313572899977
1658789953415232,-43.427176317998146,26.947432669565842,108.24750133516454
1658789953431244,-64.36255436026545,22.308690012970146,103.85290302891599
1658789953447243,-66.62088960097662,21.881437399862534,102.32700083924647
1658789953463243,-43.9765011062791,24.200808728160382,100.00762951094839
1658789953479243,-22.369726100556818,23.651483939879427,97.13893339436936
1658789953495243,-27.130540932326085,20.599679560540153,92.50019073777366
1658789953511242,-44.76997024490743,23.163195239185143,87.37315938048368
1658789953527242,-53.98641947051192,25.116350041962278,83.22270542458227
1658789953543242,-34.94316014343485,23.346303501945386,79.316395819028
1658789953559242,-17.42580300602731,23.285267414358714,80.10986495765655
1658789953575242,-20.477607385366582,27.069504844739413,78.40085450522656
1658789953591241,-40.1922636758984,27.557793545433697,72.90760662241564
1658789953607241,-41.0467689021134,21.14900434882111,64.36255436026568
1658789953623241,-19.256885633630873,17.975127794308264,63.20286869611664
1658789953639241,-11.627374685282575,22.919050888838,68.39093614099374
1658789953655241,-21.51522087434182,25.116350041962278,66.62088960097662
1658789953671240,-27.374685282673227,21.026932173647538,57.95376516365286
1658789953687240,-19.684138246738257,17.54787518120088,51.5449759670405
1658789953703240,-9.55214770733187,17.303730830853738,53.07087815671002
1658789953719240,-11.993591210803288,23.102159151598244,57.46547646295858
1658789953735240,-21.69832913710229,24.872205691615136,53.92538338292479
1658789953751220,-23.102159151598244,22.186617837796575,48.126955062180514
1658789953767220,-20.23346303501944,22.67490653849086,47.33348592355219
1658789953783220,-27.557793545433697,20.721751735713724,45.86861982146934
1658789953799220,-32.31860837720319,14.740215152208748,42.38956282902245
1658789953815220,-36.835278858625315,9.246967269398056,40.1312275883115
1658789953831219,-44.525825894560285,3.814755474174035,37.32356755931937
1658789953847219,-45.807583733882666,-1.3122758831159445,31.219958800640825
1658789953863219,-38.30014496070817,-4.242008087281647,22.430762188143717
1658789953879219,-29.022659647516548,-5.523765926604028,12.176699473563758
1658789953895218,-14.862287327382319,-6.317235065232353,3.6316472114137923
1658789953911218,-2.5940337224383256,-6.622415503166167,-0.2746623941404778
1658789953927218,3.1433585107195086,-8.087281605249018,-4.547188525215461
1658789953943218,11.383230334935433,-9.796292057679011,-8.941786831464015
1658789953959218,17.303730830853738,-12.4208438239109,-14.98435950255589
1658789953975217,15.716792553597315,-15.777828641183987,-22.61387045090396
1658789953991217,7.11070420386045,-18.158236057068734,-30.60959792477297
1658789954007217,2.410925459678083,-21.026932173647538,-37.20149538414603
1658789954023217,3.5095750362402214,-24.200808728160382,-41.41298542763411
1658789954039217,6.439307240405924,-27.069504844739413,-45.62447547112242
1658789954055216,11.139085984588291,-27.98504615854108,-49.34767681391622
1658789954071228,19.378957808804444,-27.98504615854108,-53.25398641947049
1658789954087227,28.229190508888223,-30.670634012359642,-57.16029602502476
1658789954103227,31.158922713053926,-34.94316014343485,-60.88349736781879
1658789954119227,25.970855268177274,-37.2625314717327,-65.40016784924092
1658789954135227,26.153963530937517,-36.16388189517056,-70.95445181963828
1658789954151227,27.92401007095441,-36.22491798275746,-74.12832837415112
1658789954167226,30.975814450293683,-37.14045929655913,-75.89837491416802
1658789954183226,33.4172579537651,-36.530098420691274,-77.48531319142444
1658789954199226,28.839551384756078,-35.309376668955565,-80.47608148317681
1658789954215226,23.773556115052997,-38.66636148622888,-86.70176241702893
1658789954231226,26.82536049439227,-42.93888761730386,-90.97428854810391
1658789954247225,25.970855268177274,-44.09857328145267,-91.34050507362463
1658789954263225,22.247653925383247,-40.497444113832444,-91.82879377431891
1658789954279225,24.689097428854666,-37.14045929655913,-94.81956206607174
1658789954295225,34.2717631799801,-38.23910887312127,-98.60379949645244
1658789954311225,36.10284580758366,-40.86366063935316,-100.06866559853529
1658789954327224,22.79697871366443,-39.64293888761745,-98.72587167162601
1658789954343224,14.373998626688035,-39.03257801174959,-100.55695429922957
1658789954359224,20.843823910887295,-36.957351033798886,-102.51010910200671
1658789954375224,31.097886625467254,-38.178072785534596,-102.02182040131243
1658789954391235,29.938200961318216,-39.70397497520412,-99.03105210955982
1658789954407235,19.9282825970854,-40.07019150072483,-99.09208819714672
1658789954423235,12.970168612191856,-40.13122758831173,-102.63218127718028
1658789954439234,24.505989166094423,-40.436408026245545,-107.02677958342883
1658789954455234,40.9246967269396,-40.314335851071974,-104.34119172961027
1658789954471234,41.35194934004721,-37.01838712138556,-98.72587167162601
1658789954487234,34.08865491721963,-35.24834058136889,-97.81033035782411
1658789954503234,35.248340581368666,-35.55352101930271,-98.60379949645244
1658789954519233,35.126268406195095,-37.994964522774126,-99.94659342336172
1658789954535233,27.313649195086555,-38.48325322346841,-101.04524299992386
1658789954551233,15.411612115663274,-36.530098420691274,-102.51010910200671
1658789954567233,12.848096437018285,-33.78347447928604,-103.42565041580838
1658789954583233,19.623102159151586,-28.473334859235365,-99.70244907301458
1658789954599232,29.14473182269012,-26.82536049439227,-96.04028381780745
1658789954615232,29.449912260623933,-27.374685282673227,-96.04028381780745
1658789954631232,10.955977721828049,-28.778515297169406,-97.13893339436959
1658789954647232,2.3498893720911838,-31.952391851682478,-98.78690775921268
1658789954663231,16.2050812542916,-27.61882963302037,-93.72091248950937
1658789954679231,29.022659647516548,-21.637293049515392,-88.71595330739297
1658789954695231,29.633020523384403,-21.45418478675515,-89.44838635843439
1658789954711212,18.89066910811016,-22.125581750209676,-89.44838635843439
1658789954727212,12.176699473563758,-21.39314869916825,-86.45761806668179
1658789954743211,14.007782101167322,-17.853055619134693,-83.83306630045013
1658789954759211,13.946746013580423,-17.60891126878755,-84.93171587701227
1658789954775211,15.472648203250174,-17.181658655680167,-82.1850919356068
1658789954791211,12.603952086671143,-11.627374685282575,-76.08148317692826
1658789954807211,4.242008087281647,-8.819714656290444,-75.77630273899445
1658789954823210,7.2938124666209205,-9.246967269398056,-75.4711223010604
1658789954839210,23.224231326771815,-7.17174029144735,-66.13260090028234
1658789954855210,29.51094834821083,-3.0823224231326094,-56.67200732433048
1658789954871210,11.932555123216616,-0.7629510948347615,-53.376058594644064
1658789954887210,-1.8616006713969,-1.9226367589837992,-49.591821164263365
1658789954903209,9.124895094224485,0.5188067444876197,-37.56771190966674
1658789954919209,9.063859006637585,6.378271152819025,-26.39810788128466
1658789954935209,-12.176699473563758,8.819714656290444,-20.904859998473967
1658789954951209,-24.07873655298681,10.467689021133765,-11.566338597695903
1658789954967208,-10.711833371480907,11.505302510109004,2.3498893720911838
1658789954983208,-2.655069810025225,14.862287327382319,15.594720378423744
1658789954999208,-16.2050812542916,16.388189517051842,24.13977264057371
1658789955015208,-25.116350041962278,14.679179064621849,32.86793316548392
1658789955031219,-11.444266422522333,14.312962539101136,46.05172808422958
1658789955047219,-6.378271152819025,17.975127794308264,58.13687342641333
1658789955063219,-20.782787823300396,18.70756084534969,64.72877088578662
1658789955079218,-33.17311360341819,18.646524757763018,71.56481269550659
1658789955095218,-27.92401007095441,18.76859693293659,80.29297322041657
1658789955111218,-24.811169604028237,19.378957808804444,89.1432059205008
1658789955127218,-34.332799267567,18.95170519569683,94.75852597848507
1658789955143218,-42.32852674143601,17.24269474326684,98.4206912336922
1658789955159217,-32.99000534065772,17.42580300602731,103.73083085374219
1658789955175217,-15.777828641183987,20.294499122606112,109.34615091172645
1658789955191217,-14.129854276340893,23.102159151598244,112.03173876554501
1658789955207217,-25.42153047989609,24.13977264057371,111.7265583276112
1658789955223217,-29.571984435797503,23.95666437781324,109.83443961242074
1658789955239216,-23.224231326771815,26.153963530937517,110.99412527656978
1658789955255216,-21.210040436408008,29.755092698557974,111.848630502785
1658789955271216,-26.153963530937517,30.792706187533213,110.32272831311502
1658789955287216,-30.54856183718607,30.792706187533213,110.07858396276788
1658789955303216,-26.947432669565842,31.036850537880355,111.23826962691692
1658789955319215,-23.83459220263967,30.30441748683893,111.60448615243786
1658789955335215,-25.42153047989609,29.694056610971074,111.29930571450359
1658789955351226,-28.534370946822264,28.656443121995835,113.13038834210738
1658789955367226,-27.80193789578084,28.96162355992965,114.41214618142976
1658789955383226,-28.107118333714652,29.20576791027679,113.13038834210738
1658789955399226,-32.806897077897474,29.449912260623933,112.82520790417357
1658789955415226,-25.36049439230942,29.633020523384403,112.45899137865263
1658789955431225,-12.115663385976859,28.534370946822264,111.97070267795834
1658789955447225,-14.557106889448278,27.130540932326085,111.29930571450359
1658789955463225,-26.459143968871558,27.008468757152514,110.56687266346216
1658789955479225,-29.38887617303726,27.74090180819394,110.9330891889831
1658789955495225,-15.167467765316132,29.20576791027679,108.55268177309836
1658789955511224,-2.7161058976118966,28.839551384756078,104.1580834668498
1658789955527224,-20.23346303501944,27.313649195086555,100.37384603646933
1658789955543224,-42.999923704890534,29.938200961318216,95.85717555504698
1658789955559224,-43.67132066834529,29.755092698557974,92.50019073777366
1658789955575224,-18.036163881895163,31.83031967650868,92.7443350881208
1658789955591223,3.6316472114137923,37.07942320897223,92.25604638742652
1658789955607223,-5.0354772259097444,35.248340581368666,86.33554589150845
1658789955623223,-21.51522087434182,27.496757457846797,79.07225146868086
1658789955639223,-22.61387045090396,26.031891355763946,79.07225146868086
1658789955655223,-12.970168612191856,31.097886625467254,81.69680323491275
1658789955671203,-1.8005645838102282,32.07446402685582,78.88914320592085
1658789955687203,-8.087281605249018,26.947432669565842,70.46616311894422
1658789955703203,-30.73167009994654,21.39314869916825,63.99633783474519
1658789955719203,-44.464789806973386,18.036163881895163,63.080796520943295
1658789955735202,-29.08369573510322,18.463416495002548,63.935301747158064
1658789955751202,-5.645838101777599,24.200808728160382,64.72877088578662
1658789955767202,-2.8381780727854675,25.29945830472252,58.258945601586674
1658789955783202,-15.838864728770886,16.998550392919697,46.90623331044458
1658789955799202,-21.33211261158158,10.589761196307336,38.910505836575794
1658789955815201,-18.89066910811016,9.491111619745197,34.2717631799801
1658789955831201,-14.98435950255589,10.406652933546866,30.30441748683893
1658789955847201,-12.970168612191856,9.85732814526591,23.163195239185143
1658789955863201,-15.777828641183987,6.317235065232353,13.397421225299468
1658789955879201,-18.280308232242305,1.1291676203554744,4.42511635004189
1658789955895200,-17.36476691844041,-1.1291676203554744,-3.2654306858930795
1658789955911200,-7.4158846417944915,-1.2512397955290453,-9.796292057679011
1658789955927200,4.547188525215461,-2.288853284504512,-13.824673838406852
1658789955943200,13.153276874952326,-6.195162890058782,-16.876478217746126
1658789955959200,12.787060349431613,-13.275349050125897,-22.919050888838
1658789955975199,11.07804989700162,-18.646524757763018,-32.19653620202962
1658789955991211,11.749446860456146,-20.782787823300396,-41.47402151522101
1658789956007210,16.388189517051842,-22.552834363317288,-47.7607385366598
1658789956023210,19.80621042191183,-24.200808728160382,-51.6060120546274
1658789956039210,21.33211261158158,-26.39810788128466,-55.81750209811548
1658789956055210,24.01770046540014,-28.412298771648693,-60.45624475471118
1658789956071210,29.38887617303726,-27.374685282673227,-65.33913176165402
1658789956087209,31.280994888227497,-26.459143968871558,-69.55062180514233
1658789956103209,29.20576791027679,-27.98504615854108,-75.10490577553969
1658789956119209,29.022659647516548,-30.975814450293683,-80.84229800869753
1658789956135209,31.586175326161538,-32.44068055237676,-83.9551384756237
1658789956151209,34.2717631799801,-29.694056610971074,-85.54207675288012
1658789956167208,41.90127412832817,-27.679865720607268,-87.49523155565726
1658789956183208,44.83100633249387,-30.914778362706784,-89.50942244602106
1658789956199208,38.17807278553437,-36.957351033798886,-91.58464942397177
1658789956215208,27.679865720607268,-39.276722362096734,-93.90402075226984
1658789956231207,25.05531395437538,-41.53505760280768,-97.01686121919602
1658789956247207,32.19653620202939,-43.06095979247743,-95.49095902952627
1658789956263207,36.95735103379866,-43.183031967651004,-90.91325246051724
1658789956279207,31.342030975814396,-43.427176317998146,-89.14320592050035
1658789956295207,12.970168612191856,-44.342717631799815,-93.11055161364152
1658789956311218,2.4719615472647547,-47.150377660791946,-100.49591821164267
1658789956327218,10.101472495613052,-47.028305485618375,-102.51010910200671
1658789956343217,21.026932173647538,-42.14541847867554,-96.89478904402245
1658789956359217,20.904859998473967,-36.04180971999699,-94.20920119020388
1658789956375217,21.39314869916825,-35.492484931716035,-98.97001602197315
1658789956391217,25.36049439230942,-39.76501106279102,-102.69321736476695
1658789956407217,25.36049439230942,-42.20645456626244,-100.00762951094839
1658789956423216,23.773556115052997,-38.056000610361025,-94.69748989089817
1658789956439216,16.571297779812312,-31.647211413748437,-95.06370641641888
1658789956455216,17.36476691844041,-34.63797970550104,-101.77767605096528
1658789956471216,23.163195239185143,-37.2625314717327,-99.39726863508054
1658789956487216,19.9893186846723,-29.938200961318216,-91.21843289845106
1658789956503215,18.95170519569683,-26.153963530937517,-93.04951552605462
1658789956519215,16.937514305333025,-28.16815442130155,-95.3688868543527
1658789956535215,12.176699473563758,-29.999237048905115,-90.48599984740963
1658789956551215,10.650797283894008,-26.153963530937517,-84.07721065079727
1658789956567215,8.392462043183059,-23.95666437781324,-84.56549935149155
1658789956583214,8.026245517662346,-28.107118333714652,-87.7393759060044
1658789956599214,13.031204699778755,-30.36545357442583,-83.34477759975584
1658789956615214,18.89066910811016,-24.689097428854666,-76.44769970244897
1658789956631195,16.632333867398984,-21.14900434882111,-76.56977187762254
1658789956647194,8.392462043183059,-24.383916990920852,-81.45265888456538
1658789956663194,8.026245517662346,-24.505989166094423,-80.84229800869753
1658789956679194,11.383230334935433,-15.777828641183987,-74.43350881208517
1658789956695194,10.101472495613052,-10.406652933546866,-74.79972533760588
1658789956711194,6.622415503166167,-13.031204699778755,-78.88914320592039
1658789956727193,11.322194247348762,-12.664988174258042,-74.06729228656445
1658789956743193,14.496070801861606,-7.537956816968062,-65.21705958648045
1658789956759193,11.566338597695903,-6.256198977645454,-62.0431830319676
1658789956775193,6.500343327992596,-6.927595941100208,-58.625162127107615
1658789956791193,4.791332875562603,-5.2185854886702145,-50.6904707408255
1658789956807192,-1.739528496223329,-0.8850232700083325,-43.427176317998146
1658789956823192,-11.932555123216616,1.3122758831159445,-38.97154192416269
1658789956839192,-8.941786831464015,5.096513313496644,-30.243381399252257
1658789956855192,-3.2043945983061803,11.932555123216616,-16.08300907911803
1658789956871192,-7.232776379034021,15.10643167772946,-7.4158846417944915
1658789956887191,-15.594720378423744,14.129854276340893,-1.3122758831159445
1658789956903191,-13.397421225299468,14.557106889448278,9.369039444571627
1658789956919191,-6.317235065232353,16.998550392919697,24.628061341267994
1658789956935191,-5.76791027695117,18.82963302052326,36.469062333104375
1658789956951202,-15.289539940489703,20.05035477225897,45.13618677042791
1658789956967202,-22.430762188143717,20.416571297779683,53.92538338292479
1658789956983202,-21.14900434882111,20.843823910887295,64.48462653543947
1658789956999201,-23.7125200274661,23.285267414358714,75.28801403830039
1658789957015201,-32.25757228961629,22.67490653849086,82.42923628595418
1658789957031201,-31.036850537880355,22.247653925383247,88.10559243152511
1658789957047201,-24.811169604028237,23.102159151598244,95.61303120469984
1658789957063201,-26.153963530937517,25.665674830243233,101.96078431372553
1658789957079200,-29.022659647516548,25.48256656748299,103.60875867856885
1658789957095200,-25.787747005416804,24.505989166094423,104.76844434271788
1658789957111200,-17.54787518120088,27.252613107499656,109.16304264896644
1658789957127200,-15.289539940489703,32.440680552376534,114.22903791866929
1658789957143200,-21.57625696192872,33.53933012893867,111.54345006485073
1658789957159199,-28.473334859235365,34.63797970550081,107.82024872205693
1658789957175199,-22.064545662623004,34.88212405584795,109.22407873655311
1658789957191199,-11.932555123216616,39.45983062485675,112.76417181658644
1658789957207199,-17.24269474326684,42.20645456626221,112.21484702830548
1658789957223199,-25.17738612954895,39.88708323796436,111.48241397726406
1658789957239198,-19.439993896391115,37.567711909666514,114.10696574349595
1658789957255198,-14.618142977035177,38.910505836575794,117.64705882352928
1658789957271209,-24.750133516441565,39.09361409933604,115.69390402075214
1658789957287209,-31.525139238574866,32.31860837720296,110.68894483863596
1658789957303209,-26.82536049439227,31.52513923857464,113.49660486762787
1658789957319209,-17.914091706721592,37.689784084840085,120.57679102769498
1658789957335209,-15.777828641183987,37.93392843518723,120.0885023270007
1658789957351208,-23.773556115052997,32.99000534065749,111.36034180209072
1658789957367208,-28.473334859235365,27.435721370260126,104.52429999237074
1658789957383208,-19.562066071564686,26.214999618524416,105.74502174410645
1658789957399208,-9.979400320439481,31.219958800640825,109.28511482413978
1658789957415207,-14.373998626688035,36.89631494621176,107.57610437170979
1658789957431207,-21.087968261234437,33.53933012893867,96.46753643091506
1658789957447207,-16.388189517051842,26.031891355763946,85.35896849011988
1658789957463207,-13.58052948805971,25.848783093003703,83.22270542458227
1658789957479207,-20.599679560540153,30.54856183718607,82.67338063630132
1658789957495206,-17.54787518120088,33.29518577859153,80.29297322041657
1658789957511206,-5.584802014190927,34.45487144274034,77.48531319142467
1658789957527206,-2.9602502479590385,30.54856183718607,74.61661707484564
1658789957543206,-14.251926451514464,27.435721370260126,71.32066834515945
1658789957559206,-34.76005188067461,26.886396581978943,65.40016784924092
1658789957575205,-40.00915541313816,22.61387045090396,57.64858472571905
1658789957591186,-26.39810788128466,18.463416495002548,54.413672083619076
1658789957607186,-15.472648203250174,19.256885633630873,55.02403295948716
1658789957623186,-16.1440451667047,20.904859998473967,53.131914244296695
1658789957639186,-12.542915999084471,18.646524757763018,46.90623331044458
1658789957655185,-4.42511635004189,14.862287327382319,39.39879453727008
1658789957671185,-6.378271152819025,8.941786831464015,30.73167009994654
1658789957687185,-13.153276874952326,5.889982452124741,23.224231326771815
1658789957703185,-20.416571297779683,3.570611123826893,16.937514305333025
1658789957719185,-20.904859998473967,0.45777065690094787,10.89494163424115
1658789957735184,-17.60891126878755,-1.739528496223329,4.547188525215461
1658789957751184,-18.463416495002548,-4.242008087281647,-3.7537193865873633
1658789957767184,-16.32715342946517,-7.721065079728305,-12.23773556115043
1658789957783184,-2.166781109330941,-10.162508583199724,-17.36476691844041
1658789957799183,15.838864728770886,-12.726024261844714,-20.477607385366582
1658789957815183,19.684138246738257,-15.655756466010416,-24.872205691615136
1658789957831183,15.838864728770886,-20.965896086060866,-32.6848249027239
1658789957847183,16.02197299153113,-26.886396581978943,-40.37537193865887
1658789957863183,18.036163881895163,-30.30441748683893,-47.63866636148623
1658789957879182,19.256885633630873,-30.73167009994654,-53.74227512016478
1658789957895182,28.290226596475122,-29.449912260623933,-58.86930647745476
1658789957911193,32.07446402685582,-28.412298771648693,-60.57831692988475
1658789957927193,26.764324406805372,-28.04608224612798,-65.70534828717473
1658789957943193,26.337071793697987,-29.022659647516548,-72.90760662241541
1658789957959193,36.04180971999676,-28.107118333714652,-76.44769970244897
1658789957975193,42.51163500419602,-27.008468757152514,-78.58396276798658
1658789957991192,39.032578011749365,-32.01342793926915,-82.2461280231937
1658789958007192,32.07446402685582,-36.04180971999699,-86.57969024185536
1658789958023192,24.567025253681095,-33.72243839169914,-88.10559243152511
1658789958039192,28.04608224612798,-34.088654917219856,-91.27946898603795
1658789958055192,37.07942320897223,-37.14045929655913,-93.84298466468317
1658789958071191,34.08865491721963,-37.2625314717327,-93.29365987640176
1658789958087191,26.153963530937517,-35.79766536964985,-92.25604638742652
1658789958103191,28.595407034408936,-35.187304493781994,-93.29365987640176
1658789958119191,29.633020523384403,-38.178072785534596,-96.04028381780745
1658789958135191,25.543602655069662,-42.999923704890534,-99.03105210955982
1658789958151190,27.80193789578084,-44.464789806973386,-97.62722209506387
1658789958167190,29.32784008545036,-40.00915541313816,-93.35469596398866
1658789958183190,29.938200961318216,-39.88708323796459,-94.94163424124531
1658789958199190,27.313649195086555,-44.403753719386714,-98.05447470817126
1658789958215190,19.867246509498727,-45.44136720836195,-99.03105210955982
1658789958231201,13.336385137712568,-42.999923704890534,-99.45830472266744
1658789958247201,22.61387045090396,-44.09857328145267,-102.02182040131243
1658789958263200,30.243381399252257,-43.121995880064105,-100.3738460364691
1658789958279200,26.031891355763946,-40.80262455176626,-97.68825818265054
1658789958295200,20.904859998473967,-39.03257801174959,-98.3596551461053
1658789958311200,14.862287327382319,-40.314335851071974,-102.9373617151141
1658789958327200,13.76363775082018,-41.47402151522101,-106.23331044480051
1658789958343199,20.05035477225897,-42.084382391088866,-102.87632562752742
1658789958359199,23.163195239185143,-35.06523231860842,-96.04028381780745
1658789958375199,21.69832913710229,-31.219958800640825,-97.4441138323034
1658789958391199,20.538643472953254,-33.966582742046285,-102.51010910200671
1658789958407199,16.693369954985883,-37.750820172426984,-102.57114518959338
1658789958423198,12.23773556115043,-32.25757228961629,-98.42069123369197
1658789958439198,14.068818188753994,-25.36049439230942,-97.07789730678269
1658789958455198,17.66994735637445,-21.637293049515392,-97.93240253299768
1658789958471198,23.89562829022657,-22.369726100556818,-98.48172732127887
1658789958487198,22.49179827573039,-21.820401312275862,-94.39230945296413
1658789958503197,15.228503852903032,-17.48683909361398,-90.73014419775677
1658789958519197,8.880750743877343,-14.92332341496899,-88.9600976577401
1658789958535197,13.58052948805971,-15.411612115663274,-85.9693293659875
1658789958551178,17.181658655680167,-12.970168612191856,-77.54634927901111
1658789958567177,10.040436408026153,-8.6366063935302,-70.83237964446471
1658789958583177,0.09155413138023505,-6.134126802471883,-67.04814221408401
1658789958599177,2.532997634851654,-5.584802014190927,-62.47043564507521
1658789958615177,12.298771648737329,-1.1902037079423735,-53.31502250705739
1658789958631177,4.974441138323073,6.8665598535133086,-45.01411459525457
1658789958647176,-5.523765926604028,8.33142595559616,-41.1078049897003
1658789958663176,-1.2512397955290453,10.589761196307336,-30.36545357442583
1658789958679176,0.7019150072480898,12.481879911497572,-16.510261692225413
1658789958695176,-7.660028992141633,15.716792553597315,-8.392462043183059
1658789958711176,-14.862287327382319,19.01274128328373,-2.227817196917613
1658789958727175,-11.261158159761862,22.186617837796575,6.012054627298312
1658789958743175,-1.983672846570471,23.95666437781324,15.960936903944457
1658789958759175,-6.744487678339738,25.909819180590375,25.48256656748299
1658789958775175,-18.95170519569683,26.153963530937517,33.11207751583106
1658789958791175,-18.95170519569683,25.42153047989609,40.61951628900579
1658789958807174,-6.744487678339738,25.116350041962278,51.056687266346216
1658789958823174,-9.430075532158298,26.153963530937517,60.090028229190466
1658789958839174,-26.276035706111088,24.444953078507524,64.91187914854663
1658789958855174,-34.94316014343485,20.782787823300396,69.79476615548947
1658789958871185,-24.26184481574728,19.684138246738257,75.715266651408
1658789958887185,-16.26611734187827,22.73594262607753,82.55130846112797
1658789958903185,-23.163195239185143,24.13977264057371,85.35896849011988
1658789958919184,-32.623788815137004,23.651483939879427,86.2134737163351
1658789958935184,-34.149691004806755,23.346303501945386,88.65491721980652
1658789958951184,-24.750133516441565,23.041123064011572,90.48599984740986
1658789958967184,-23.041123064011572,25.17738612954895,93.59884031433603
1658789958983183,-33.844510566872714,26.337071793697987,94.69748989089794
1658789958999183,-37.14045929655913,25.36049439230942,94.69748989089794
1658789959015183,-27.069504844739413,25.60463874265656,96.89478904402222
1658789959031183,-21.39314869916825,26.39810788128466,100.06866559853506
1658789959047183,-30.73167009994654,26.031891355763946,100.92317082475029
1658789959063182,-43.427176317998146,25.48256656748299,100.3128099488822
1658789959079182,-45.07515068284124,24.13977264057371,100.00762951094839
1658789959095182,-29.26680399786369,22.980086976424673,101.10627908751076
1658789959111182,-17.48683909361398,22.247653925383247,105.43984130617218
1658789959127182,-23.224231326771815,22.552834363317288,108.43060959792501
1658789959143181,-31.89135576409558,19.073777370870403,104.1580834668498
1658789959159181,-32.19653620202962,14.557106889448278,98.23758297093173
1658789959175181,-24.26184481574728,16.754406042572555,98.48172732127887
1658789959191192,-19.1348134584573,23.285267414358714,103.12046997787456
1658789959207192,-21.69832913710229,27.92401007095441,101.59456778820504
1658789959223192,-31.708247501335336,25.48256656748299,91.40154116121175
1658789959239192,-29.20576791027679,19.562066071564686,81.5747310597394
1658789959255191,-22.73594262607753,19.562066071564686,83.34477759975607
1658789959271191,-16.571297779812312,27.130540932326085,87.73937590600462
1658789959287191,-12.298771648737329,33.478294041351774,87.12901503013654
1658789959303191,-13.336385137712568,30.4875257495994,78.82810711833372
1658789959319191,-10.955977721828049,22.919050888838,72.17517357137422
1658789959335190,-12.4208438239109,24.628061341267994,76.08148317692849
1658789959351190,-16.32715342946517,33.17311360341796,81.33058670939226
1658789959367190,-13.824673838406852,37.75082017242676,79.98779278248276
1658789959383190,-10.101472495613052,36.04180971999676,74.61661707484564
1658789959399190,-14.007782101167322,30.121309224078686,70.16098268101041
1658789959415189,-24.567025253681095,28.229190508888223,70.16098268101041
1658789959431189,-33.5393301289389,28.656443121995835,69.7337300679028
1658789959447189,-24.505989166094423,29.571984435797503,68.08575570305948
1658789959463189,-0.03051804379333589,30.73167009994654,67.2312504768447
