Timestamp (microseconds),Accel X (g),Accel Y (g),Accel Z (g)
1658789933591430,0.19342336156252404,0.9585717555504694,-0.043030441748683756
1658789933607430,0.19342336156252404,0.9457541771572444,-0.027527275501640247
1658789933623430,0.19720759899290474,0.9822537575341421,-0.02679484245059882
1658789933639430,0.2057526512550547,1.00337224383917,-0.026916914625772392
1658789933655429,0.20172426947432687,0.9755397878995957,-0.03070115205615309
1658789933671429,0.19256885633630905,0.9787136644541086,-0.029846646829938095
1658789933687429,0.1923247119859619,0.9937285420004578,-0.033752956435492365
1658789933703429,0.20184634164950044,0.9843289845120928,-0.031311512932020946
1658789933719429,0.1961089494163426,0.9696803234912643,-0.03057907988097952
1658789933735428,0.1860990310521098,0.9584496833752958,-0.03607232776379021
1658789933751428,0.18414587624933265,0.9711451895933472,-0.03338673990997165
1658789933767428,0.18255893797207623,0.9895780880445564,-0.04510566872663446
1658789933783428,0.1940337224383919,0.9822537575341421,-0.03717097734035235
1658789933799428,0.18805218585488692,0.9632104982070651,-0.029724574654764524
1658789933815427,0.19256885633630905,0.9915312428473335,-0.017883573662928143
1658789933831427,0.1911039902342262,1.0043488212405585,-0.02777141985198739
1658789933847427,0.1952544441901276,0.9867704280155642,-0.030945296406500233
1658789933863427,0.19183642328526762,0.9732204165712979,-0.028381780727855244
1658789933879427,0.19000534065766406,0.9945830472266728,-0.03033493553063238
1658789933895426,0.17877470054169553,1.0052033264667735,-0.03790341039139378
1658789933911407,0.1940337224383919,0.9887235828183414,-0.03155565728236809
1658789933927407,0.1852445258258948,0.9661402304112308,-0.03179980163271523
1658789933943407,0.18878461890592835,0.9694361791409172,-0.026306553749904538
1658789933959406,0.1771877622644391,0.9849393453879607,-0.032410162508583085
1658789933975406,0.17987335011825767,0.9890897993438621,-0.04095521477073305
1658789933991406,0.18487830930037408,0.9729762722209507,-0.03582818341344307
1658789934007406,0.1973296711680783,0.9853055619134814,-0.024475471122300974
1658789934023406,0.18414587624933265,0.9934843976501107,-0.028625925078202386
1658789934039405,0.18597695887693622,0.9960479133287556,-0.03680476081483164
1658789934055405,0.1873197528038455,0.966628519111925,-0.03399710078583951
1658789934071405,0.19427786678873904,0.97602807660029,-0.02532997634851597
1658789934087405,0.17950713359273696,1.0028839551384756,-0.036438544289310926
1658789934103405,0.18255893797207623,0.9846952010376135,-0.04095521477073305
1658789934119404,0.18377965972381194,0.9553978789959565,-0.045349813076981604
1658789934135404,0.19342336156252404,0.9746852826733807,-0.03411917296101308
1658789934151404,0.18719768062867193,0.9964141298542764,-0.03436331731136022
1658789934167404,0.18695353627832478,0.9955596246280614,-0.03595025558861664
1658789934183404,0.18707560845349835,0.9685816739147022,-0.03924620431830306
1658789934199403,0.1928130006866562,0.9771267261768521,-0.025696192874036683
1658789934215403,0.1864652475776305,0.9867704280155642,-0.028625925078202386
1658789934231414,0.18329137102311766,1.002517738612955,-0.027161058976119534
1658789934247414,0.18841840238040763,0.9904325932707714,-0.0424200808728159
1658789934263414,0.19366750591287119,0.9698023956664379,-0.03717097734035235
1658789934279414,0.18805218585488692,0.9596704051270315,-0.03533989471274879
1658789934295414,0.18048371099412552,0.9748073548485543,-0.0327763790341038
1658789934311413,0.17267109178301698,0.9689478904402229,-0.03741512169069949
1658789934327413,0.18487830930037408,0.9798123140306707,-0.03424124513618665
1658789934343413,0.1919584954604412,0.970901045243,-0.0252079041733424
1658789934359413,0.18536659800106836,0.9892118715190357,-0.023376821545738835
1658789934375413,0.17987335011825767,0.9948271915770199,-0.03216601815823594
1658789934391412,0.18207064927138195,0.9730983443961243,-0.032410162508583085
1658789934407412,0.18915083543144906,0.9656519417105365,-0.02923628595407024
1658789934423412,0.18365758754863837,0.9776150148775464,-0.03204394598306237
1658789934439412,0.17792019531548053,0.9804226749065386,-0.034973678187228074
1658789934455412,0.17499046311131483,0.9770046540016786,-0.03533989471274879
1658789934471411,0.1860990310521098,0.9865262836652171,-0.03790341039139378
1658789934487411,0.19085984588387905,0.9895780880445564,-0.0327763790341038
1658789934503411,0.19073777370870548,0.9889677271686885,-0.03607232776379021
1658789934519411,0.18670939192797764,0.982009613183795,-0.03033493553063238
1658789934535411,0.19122606240939977,0.9822537575341421,-0.03045700770580595
1658789934551391,0.18670939192797764,0.9892118715190357,-0.039002059967955915
1658789934567391,0.18866254673075478,0.9901884489204242,-0.0424200808728159
1658789934583391,0.1860990310521098,0.98457312886244,-0.04107728694590662
1658789934599391,0.1814602883955141,0.9771267261768521,-0.04596017395284946
1658789934615390,0.17828641184100125,0.9757839322499429,-0.0424200808728159
1658789934631390,0.18500038147554765,0.9846952010376135,-0.03717097734035235
1658789934647390,0.18805218585488692,0.9835965514610514,-0.029968719005111666
1658789934663390,0.18316929884794408,0.9762722209506371,-0.029846646829938095
1658789934679390,0.18719768062867193,0.9995880064087892,-0.03680476081483164
1658789934695389,0.19159227893492048,0.9948271915770199,-0.03558403906309593
1658789934711389,0.19562066071564832,0.9789578088044557,-0.03143358510719452
1658789934727389,0.1890287632562755,0.98286411841001,-0.028259708552681673
1658789934743389,0.1823147936217291,0.9790798809796293,-0.033752956435492365
1658789934759389,0.17779812314030696,0.9718776226443886,-0.04217593652246876
1658789934775388,0.18890669108110192,0.9795681696803236,-0.03985656519417091
1658789934791388,0.17926298924238981,0.9821316853589686,-0.04376287479972518
1658789934807388,0.18426794842450622,0.9732204165712979,-0.03460746166170736
1658789934823388,0.18048371099412552,0.9779812314030671,-0.033875028610665936
1658789934839388,0.1839017318989855,0.9936064698252842,-0.028870069428549527
1658789934855387,0.18414587624933265,0.9749294270237279,-0.03472953383688093
1658789934871399,0.19830624856946688,0.9889677271686885,-0.035217822537575216
1658789934887398,0.18878461890592835,0.9937285420004578,-0.03814755474174092
1658789934903398,0.19269092851148262,0.988845654993515,-0.03936827649347663
1658789934919398,0.18707560845349835,0.9738307774471657,-0.038879987792782345
1658789934935398,0.18915083543144906,0.9633325703822386,-0.02386511024643312
1658789934951398,0.18133821622034052,0.9822537575341421,-0.025085831998168828
1658789934967397,0.18133821622034052,0.9857938506141757,-0.02911421377889667
1658789934983397,0.18512245365072122,0.9838406958113985,-0.03997863736934448
1658789934999397,0.18121614404516695,0.9860379949645228,-0.03924620431830306
1658789935015397,0.19378957808804476,0.9833524071107043,-0.027283131151293105
1658789935031396,0.19635309376668975,0.9707789730678265,-0.02789349202716096
1658789935047396,0.18170443274586123,0.9556420233463037,-0.02777141985198739
1658789935063396,0.1704737926298927,0.9563744563973451,-0.021911955443655984
1658789935079396,0.17743190661478625,0.9639429312581065,-0.028747997253375956
1658789935095396,0.18463416495002694,0.9928740367742428,-0.028503852903028815
1658789935111395,0.1785305561913484,0.9929961089494164,-0.04083314259555948
1658789935127395,0.19501029983978047,0.9818875410086214,-0.021057450217440987
1658789935143395,0.18084992751964624,0.9711451895933472,-0.01641870756084529
1658789935159395,0.17877470054169553,0.9844510566872664,-0.008850232700083893
1658789935175395,0.17730983443961268,0.9938506141756314,-0.024963759822995257
1658789935191375,0.18280308232242337,0.9936064698252842,-0.03595025558861664
1658789935207375,0.18793011367971335,0.9823758297093157,-0.032410162508583085
1658789935223375,0.18329137102311766,0.9853055619134814,-0.025696192874036683
1658789935239375,0.17499046311131483,0.9772487983520257,-0.02532997634851597
1658789935255375,0.17816433966582768,0.9790798809796293,-0.02777141985198739
1658789935271374,0.17962920576791053,0.9832303349355307,-0.02423132677195383
1658789935287374,0.1860990310521098,0.9881132219424735,-0.020447089341573133
1658789935303374,0.1747463187609677,0.9846952010376135,-0.021911955443655984
1658789935319374,0.1763332570382241,0.9765163653009843,-0.023254749370565264
1658789935335374,0.17084000915541342,0.9740749217975129,-0.031311512932020946
1658789935351373,0.18133821622034052,0.98457312886244,-0.031189440756847375
1658789935367373,0.18109407186999338,0.9976348516060121,-0.03204394598306237
1658789935383373,0.18048371099412552,0.990554665445945,-0.030090791180285237
1658789935399373,0.17657740138857125,0.9733424887464714,-0.036194399938963784
1658789935415372,0.1843900205996798,0.9804226749065386,-0.034851606012054503
1658789935431372,0.17877470054169553,0.9994659342336156,-0.03436331731136022
1658789935447372,0.18084992751964624,0.9951934081025406,-0.034851606012054503
1658789935463372,0.17865262836652196,0.9754177157244222,-0.03204394598306237
1658789935479372,0.18109407186999338,0.9748073548485543,-0.03216601815823594
1658789935495371,0.1881742580300605,1.0056916151674677,-0.03924620431830306
1658789935511383,0.17706569008926554,1.0088654917219806,-0.05108720531013944
1658789935527382,0.18451209277485336,1.0021515220874342,-0.05365072098878443
1658789935543382,0.17523460746166197,0.9748073548485543,-0.04608224612802303
1658789935559382,0.17328145265888484,0.9682154573891815,-0.04071107042038591
1658789935575382,0.18207064927138195,0.9906767376211185,-0.03985656519417091
1658789935591382,0.1797512779430841,0.9861600671396964,-0.04596017395284946
1658789935607381,0.18207064927138195,0.9497825589379723,-0.04449530785076661
1658789935623381,0.19391165026321833,0.9707789730678265,-0.03460746166170736
1658789935639381,0.18670939192797764,1.0158236057068741,-0.02911421377889667
1658789935655381,0.18219272144655552,0.9804226749065386,-0.03289845120927737
1658789935671381,0.17547875181200911,0.9474631876096744,-0.026306553749904538
1658789935687380,0.17523460746166197,0.9789578088044557,-0.027405203326466676
1658789935703380,0.18194857709620837,0.9986114290074006,-0.02789349202716096
1658789935719380,0.18072785534447267,0.9752956435492486,-0.02276646066987098
1658789935735380,0.17877470054169553,0.9684596017395286,-0.024597543297474544
1658789935751380,0.18585488670176264,1.003616388189517,-0.0319218738078888
1658789935767379,0.17828641184100125,1.0089875638971542,-0.03448538948653379
1658789935783379,0.19391165026321833,1.0058136873426413,-0.038879987792782345
1658789935799379,0.18829633020523406,1.0043488212405585,-0.03839169909208806
1658789935815379,0.18793011367971335,0.9788357366292821,-0.03582818341344307
1658789935831390,0.1751125352864884,0.9779812314030671,-0.03399710078583951
1658789935847390,0.171816586556802,1.0005645838101778,-0.03741512169069949
1658789935863390,0.1742580300602734,0.9821316853589686,-0.0424200808728159
1658789935879389,0.1868314641031512,0.9550316624704358,-0.032532234683756656
1658789935895389,0.20514229037918685,0.9916533150225071,-0.02911421377889667
1658789935911389,0.18780804150453978,0.9984893568322271,-0.029968719005111666
1658789935927389,0.1885404745555812,0.9636987869077593,-0.021911955443655984
1658789935943389,0.1826810101472498,0.9562523842221715,-0.017273212787060288
1658789935959388,0.19208056763561476,0.9898222323949035,-0.011902037079423167
1658789935975388,0.1906157015335319,1.0100862134737163,-0.007751583123521755
1658789935991388,0.1823147936217291,0.964919508659495,-0.009094377050431035
1658789936007388,0.17438010223544698,0.9387960631723509,-0.010803387502861028
1658789936023388,0.16815442130159486,0.9739528496223393,-0.01873807888914314
1658789936039387,0.18536659800106836,1.0203402761882963,-0.020569161516746703
1658789936055387,0.18878461890592835,0.98970016021973,-0.021911955443655984
1658789936071387,0.18829633020523406,0.944167238879988,-0.0060425726710917615
1658789936087387,0.18084992751964624,0.9478294041351951,-0.008728160524910322
1658789936103387,0.17865262836652196,0.9933623254749371,-0.02276646066987098
1658789936119386,0.18023956664377838,1.0148470283054856,-0.026916914625772392
1658789936135386,0.1830472266727705,0.9713893339436943,-0.032410162508583085
1658789936151367,0.18463416495002694,0.9218280308232245,-0.02911421377889667
1658789936167367,0.19464408331425975,0.964919508659495,-0.017639429312581
1658789936183366,0.17145037003128127,0.9915312428473335,-0.02130159456778813
1658789936199366,0.18084992751964624,0.9868925001907378,-0.03155565728236809
1658789936215366,0.1978179598687726,0.9669947356374458,-0.03314259555962451
1658789936231366,0.20843823910887327,0.964919508659495,-0.023498893720912406
1658789936247366,0.2016021972991533,0.9982452124818799,-0.022034027618829555
1658789936263365,0.18194857709620837,1.0021515220874342,-0.02911421377889667
1658789936279365,0.18976119630731692,0.9710231174181736,-0.031189440756847375
1658789936295365,0.19684138246738403,0.983718623636225,-0.022400244144350268
1658789936311365,0.19794003204394617,1.0060578316929885,-0.027161058976119534
1658789936327365,0.18255893797207623,0.9806668192568857,-0.02386511024643312
1658789936343364,0.16656748302433844,0.9575951781490808,-0.028381780727855244
1658789936359364,0.1704737926298927,0.9867704280155642,-0.03155565728236809
1658789936375364,0.18890669108110192,1.0063019760433356,-0.03155565728236809
1658789936391364,0.18866254673075478,0.9998321507591363,-0.030090791180285237
1658789936407364,0.18744182497901907,0.9710231174181736,-0.01373311970702673
1658789936423363,0.17584496833752983,0.9783474479285879,-0.011169604028381741
1658789936439363,0.18194857709620837,1.0125276569771877,-0.021179522392614558
1658789936455363,0.18487830930037408,0.9950713359273671,-0.024719615472648115
1658789936471374,0.18512245365072122,0.9655298695353629,-0.01995880064087885
1658789936487374,0.17865262836652196,0.9705348287174793,-0.01617456321049815
1658789936503374,0.1826810101472498,0.9909208819714657,-0.020447089341573133
1658789936519374,0.17657740138857125,0.9870145723659114,-0.022156099794003126
1658789936535373,0.18658731975280407,0.9612573434042879,-0.016906996261539575
1658789936551373,0.1835355153734648,0.971755550469215,-0.013244831006332447
1658789936567373,0.18377965972381194,1.0114290074006256,-0.019714656290531707
1658789936583373,0.18463416495002694,0.9981231403067063,-0.01886015106431671
1658789936599372,0.19085984588387905,0.9672388799877929,-0.010437170977340315
1658789936615372,0.1902494850080112,0.9633325703822386,-0.011413748378728883
1658789936631372,0.18243686579690266,0.98970016021973,-0.016906996261539575
1658789936647372,0.17657740138857125,0.9922636758983749,-0.023743038071259548
1658789936663372,0.1856107423514155,0.9799343862058443,-0.018371862363622427
1658789936679371,0.1906157015335319,0.98457312886244,-0.0214236667429617
1658789936695371,0.18976119630731692,0.9661402304112308,-0.011657892729076025
1658789936711371,0.17401388570992626,0.9636987869077593,-0.014221408407721015
1658789936727371,0.17755397878995982,0.9866483558403907,-0.021179522392614558
1658789936743371,0.18829633020523406,0.9903105210955978,-0.022156099794003126
1658789936759370,0.1868314641031512,0.9889677271686885,-0.03143358510719452
1658789936775370,0.1885404745555812,0.9658960860608836,-0.023376821545738835
1658789936791351,0.17926298924238981,0.9632104982070651,-0.013000686655985305
1658789936807351,0.1747463187609677,0.98286411841001,-0.026306553749904538
1658789936823351,0.1860990310521098,0.9927519645990692,-0.033630884260318794
1658789936839350,0.1990386816205083,0.985427634088655,-0.03179980163271523
1658789936855350,0.18744182497901907,0.9651636530098422,-0.02252231631952384
1658789936871350,0.1771877622644391,0.982009613183795,-0.02423132677195383
1658789936887350,0.17560082398718269,0.9966582742046235,-0.033875028610665936
1658789936903350,0.1780422674906541,0.9724879835202564,-0.032532234683756656
1658789936919349,0.1973296711680783,0.9660181582360572,-0.02264438849469741
1658789936935349,0.18695353627832478,0.9906767376211185,-0.0252079041733424
1658789936951349,0.17938506141756339,0.9975127794308385,-0.024841687647821686
1658789936967349,0.17328145265888484,0.9746852826733807,-0.022400244144350268
1658789936983348,0.18597695887693622,0.9745632104982072,-0.02130159456778813
1658789936999348,0.1952544441901276,1.004226749065385,-0.02130159456778813
1658789937015348,0.18084992751964624,0.9958037689784085,-0.026184481574730967
1658789937031348,0.17877470054169553,0.9586938277256429,-0.023010605020218122
1658789937047348,0.1801174944686048,0.96406500343328,-0.02154573891813527
1658789937063347,0.1847562371252005,1.0169222552834363,-0.027405203326466676
1658789937079347,0.18414587624933265,1.0180209048599984,-0.03436331731136022
1658789937095347,0.18841840238040763,0.9705348287174793,-0.026306553749904538
1658789937111358,0.1830472266727705,0.9546654459449151,-0.015197985809109582
1658789937127358,0.1864652475776305,0.9945830472266728,-0.011169604028381741
1658789937143358,0.16888685435263628,1.0011749446860456,-0.021911955443655984
1658789937159358,0.18280308232242337,0.9922636758983749,-0.022156099794003126
1658789937175357,0.1818265049210348,0.9824979018844893,-0.02935835812924381
1658789937191357,0.19366750591287119,0.9795681696803236,-0.019226367589837423
1658789937207357,0.1806057831692991,0.9702906843671322,-0.011902037079423167
1658789937223357,0.17315938048371127,0.9806668192568857,-0.01239032578011745
1658789937239357,0.17730983443961268,0.9928740367742428,-0.023132677195391693
1658789937255356,0.18292515449759694,0.9798123140306707,-0.018249790188448856
1658789937271356,0.18927290760662263,0.9892118715190357,-0.02008087281605242
1658789937287356,0.18487830930037408,0.9899443045700771,-0.025085831998168828
1658789937303356,0.17657740138857125,0.9556420233463037,-0.02130159456778813
1658789937319356,0.17816433966582768,0.9494163424124515,-0.01226825360494388
1658789937335355,0.18670939192797764,0.9928740367742428,-0.01898222323949028
1658789937351355,0.18841840238040763,1.025223163195239,-0.037781338216220206
1658789937367355,0.19220263981078833,0.9949492637521935,-0.034973678187228074
1658789937383355,0.18194857709620837,0.9645532921339743,-0.01886015106431671
1658789937399355,0.18719768062867193,0.9699244678416115,-0.01617456321049815
1658789937415354,0.18158236057068766,0.9688258182650493,-0.017151140611886717
1658789937431366,0.17645532921339768,0.9605249103532465,-0.024475471122300974
1658789937447365,0.1823147936217291,0.97773708705272,-0.03033493553063238
1658789937463365,0.17706569008926554,1.0015411612115663,-0.03314259555962451
1658789937479365,0.18426794842450622,0.9958037689784085,-0.025085831998168828
1658789937495365,0.19415579461356547,0.9774929427023729,-0.015564202334630295
1658789937511365,0.19598687724116903,0.9877470054169528,-0.010193026626993174
1658789937527364,0.19000534065766406,0.9892118715190357,-0.009948882276646032
1658789937543364,0.1856107423514155,0.9798123140306707,-0.017273212787060288
1658789937559364,0.16937514305333057,0.9704127565423057,-0.023376821545738835
1658789937575364,0.17779812314030696,0.9866483558403907,-0.02386511024643312
1658789937591364,0.1771877622644391,0.9876249332417792,-0.02032501716639956
1658789937607363,0.18414587624933265,0.9641870756084536,-0.01226825360494388
1658789937623363,0.18109407186999338,0.9857938506141757,-0.016662851911192433
1658789937639363,0.1902494850080112,1.0064240482185092,-0.02679484245059882
1658789937655363,0.18512245365072122,0.9884794384679942,-0.020447089341573133
1658789937671363,0.1826810101472498,0.9630884260318915,-0.005432211795223907
1658789937687362,0.16534676127260273,0.970046540016785,-0.005065995269703194
1658789937703362,0.17462424658579412,0.9868925001907378,-0.018005645838101714
1658789937719362,0.18585488670176264,0.9798123140306707,-0.020691233691920274
1658789937735362,0.19049362935835834,0.9776150148775464,-0.011413748378728883
1658789937751342,0.17279316395819055,0.9956816968032349,-0.012878614480811734
1658789937767342,0.17914091706721624,1.0014190890363928,-0.015197985809109582
1658789937783342,0.18084992751964624,0.9707789730678265,-0.019104295414663852
1658789937799342,0.19122606240939977,0.9678492408636608,-0.009338521400778177
1658789937815342,0.1806057831692991,0.9562523842221715,-0.005432211795223907
1658789937831341,0.17828641184100125,0.9809109636072328,-0.01605249103532458
1658789937847341,0.17438010223544698,1.0069123369192035,-0.028503852903028815
1658789937863341,0.17865262836652196,0.982009613183795,-0.02532997634851597
1658789937879341,0.1906157015335319,0.9730983443961243,-0.02032501716639956
1658789937895341,0.1771877622644391,0.9867704280155642,-0.01739528496223386
1658789937911340,0.17792019531548053,0.9993438620584421,-0.022400244144350268
1658789937927340,0.17828641184100125,0.9903105210955978,-0.029480430304417382
1658789937943340,0.18988326848249049,0.964919508659495,-0.017639429312581
1658789937959340,0.1856107423514155,0.9848172732127871,-0.008606088349736751
1658789937975340,0.17315938048371127,1.0043488212405585,-0.02276646066987098
1658789937991339,0.1868314641031512,1.0100862134737163,-0.03204394598306237
1658789938007339,0.18316929884794408,0.9754177157244222,-0.026306553749904538
1658789938023339,0.1856107423514155,0.970046540016785,-0.014099336232547444
1658789938039339,0.17706569008926554,0.9821316853589686,-0.01629663538567172
1658789938055338,0.170962081330587,1.0069123369192035,-0.02276646066987098
1658789938071350,0.18170443274586123,1.0050812542916,-0.026184481574730967
1658789938087350,0.18780804150453978,0.9661402304112308,-0.01739528496223386
1658789938103349,0.18793011367971335,0.9663843747615779,-0.014587624933241727
1658789938119349,0.17157244220645484,0.9904325932707714,-0.0252079041733424
1658789938135349,0.1797512779430841,1.0043488212405585,-0.03045700770580595
1658789938151349,0.17608911268787697,0.9882352941176471,-0.028747997253375956
1658789938167348,0.18487830930037408,0.9650415808346686,-0.014221408407721015
1658789938183348,0.17730983443961268,0.9600366216525522,-0.007385366598001042
1658789938199348,0.17413595788509983,0.9890897993438621,-0.01361104753185316
1658789938215348,0.18243686579690266,0.9988555733577478,-0.01861600671396957
1658789938231348,0.1797512779430841,0.9706569008926529,-0.011413748378728883
1658789938247347,0.1738918135347527,0.9605249103532465,-0.007385366598001042
1658789938263347,0.17438010223544698,0.9821316853589686,-0.014343480582894585
1658789938279347,0.18365758754863837,0.9976348516060121,-0.020447089341573133
1658789938295347,0.1839017318989855,0.9813992523079271,-0.01483176928358887
1658789938311347,0.1876859693293662,0.9589379720759901,-0.008972304875257464
1658789938327346,0.17706569008926554,0.9694361791409172,-0.010681315327687457
1658789938343346,0.1785305561913484,1.012161440451667,-0.01495384145876244
1658789938359346,0.17901884489204267,0.9906767376211185,-0.01751735713740743
1658789938375346,0.18670939192797764,0.9595483329518579,-3.0518043793392735E-4
1658789938391357,0.17657740138857125,0.9694361791409172,-0.008606088349736751
1658789938407357,0.1742580300602734,0.9855497062638285,-0.010315098802166744
1658789938423357,0.18170443274586123,1.0014190890363928,-0.023254749370565264
1658789938439356,0.17291523613336413,0.9773708705271993,-0.021057450217440987
1658789938455356,0.18255893797207623,0.9561303120469979,-0.018127718013275285
1658789938471356,0.17242694743266984,0.96919203479057,-0.007385366598001042
1658789938487356,0.16681162737468558,0.9795681696803236,-0.007019150072480329
1658789938503356,0.16351567864499916,0.985427634088655,-0.0017700465400167786
1658789938519355,0.1856107423514155,0.9960479133287556,-0.014099336232547444
1658789938535355,0.18780804150453978,0.9983672846570535,-0.015930418860151008
1658789938551355,0.19635309376668975,1.0034943160143435,-0.01995880064087885
1658789938567355,0.17206073090714913,0.9910429541466392,-0.023132677195391693
1658789938583355,0.17621118486305054,0.9855497062638285,-0.02288853284504455
1658789938599354,0.171816586556802,0.9727321278706036,-0.020813305867093845
1658789938615354,0.17621118486305054,0.9824979018844893,-0.012634470130464592
1658789938631354,0.170962081330587,0.9971465629053178,-0.01995880064087885
1658789938647354,0.17499046311131483,1.0009308003356985,-0.028625925078202386
1658789938663354,0.17621118486305054,0.9882352941176471,-0.02276646066987098
1658789938679353,0.1856107423514155,0.9889677271686885,-0.020569161516746703
1658789938695353,0.17999542229343124,0.9884794384679942,-0.017639429312581
1658789938711334,0.17560082398718269,0.9756618600747693,-0.014221408407721015
1658789938727334,0.17157244220645484,0.9893339436942092,-0.018371862363622427
1658789938743333,0.17401388570992626,0.9909208819714657,-0.025574120698863112
1658789938759333,0.1806057831692991,0.9715114061188679,-0.015442130159456724
1658789938775333,0.1809719996948198,0.9672388799877929,-0.011779964904249596
1658789938791333,0.170962081330587,0.9784695201037614,-0.00848401617456318
1658789938807333,0.1680323491264213,0.9818875410086214,-0.01495384145876244
1658789938823332,0.1738918135347527,0.9972686350804914,-0.024841687647821686
1658789938839332,0.19073777370870548,1.004470893415732,-0.032410162508583085
1658789938855332,0.1830472266727705,0.9788357366292821,-0.01886015106431671
1658789938871332,0.17084000915541342,0.9556420233463037,-0.013366903181506018
1658789938887332,0.17792019531548053,0.9929961089494164,-0.01617456321049815
1658789938903331,0.18451209277485336,1.018142977035172,-0.017273212787060288
1658789938919331,0.18414587624933265,0.9907988097962921,-0.019348439765010994
1658789938935331,0.1835355153734648,0.9737087052719922,-0.015075913633936011
1658789938951331,0.17743190661478625,1.0023956664377813,-0.024963759822995257
1658789938967331,0.17950713359273696,0.99140917067216,-0.023620965896085977
1658789938983330,0.18280308232242337,0.9677271686884872,-0.015808346684977437
1658789938999330,0.18121614404516695,0.9638208590829329,-0.016906996261539575
1658789939015330,0.18194857709620837,0.978591592278935,-0.015808346684977437
1658789939031341,0.170962081330587,1.001052872510872,-0.020447089341573133
1658789939047341,0.17584496833752983,0.9887235828183414,-0.013855191882200302
1658789939063341,0.17364766918440555,0.9618677042801558,-0.0060425726710917615
1658789939079341,0.18292515449759694,0.9853055619134814,0.0022583352407110624
1658789939095340,0.17535667963683554,1.007888914320592,-0.011413748378728883
1658789939111340,0.18207064927138195,0.9812771801327536,-0.010559243152513886
1658789939127340,0.17779812314030696,0.9610131990539408,-0.010070954451819603
1658789939143340,0.18414587624933265,0.9812771801327536,-0.012634470130464592
1658789939159340,0.17669947356374482,1.0045929655909056,-0.018249790188448856
1658789939175339,0.1771877622644391,0.9949492637521935,-0.016906996261539575
1658789939191339,0.1826810101472498,0.9732204165712979,-0.009582665751125319
1658789939207339,0.1902494850080112,0.9844510566872664,-0.006530861371786045
1658789939223339,0.17621118486305054,0.9850614175631343,-0.006775005722133187
1658789939239338,0.18170443274586123,0.9761501487754636,-0.01861600671396957
1658789939255338,0.18158236057068766,0.9728542000457772,-0.021911955443655984
1658789939271338,0.18915083543144906,0.9903105210955978,-0.016662851911192433
1658789939287338,0.18109407186999338,0.9916533150225071,-0.02288853284504455
1658789939303338,0.1843900205996798,0.98286411841001,-0.01886015106431671
1658789939319337,0.18451209277485336,0.9661402304112308,-0.016662851911192433
1658789939335337,0.18316929884794408,0.9655298695353629,-0.005065995269703194
1658789939351349,0.18463416495002694,1.0038605325398642,-0.009216449225604606
1658789939367348,0.1823147936217291,1.0009308003356985,-0.016784924086366004
1658789939383348,0.19342336156252404,0.9641870756084536,-0.01617456321049815
1658789939399348,0.17962920576791053,0.9568627450980394,-0.016662851911192433
1658789939415348,0.1868314641031512,0.988845654993515,-0.017029068436713146
1658789939431347,0.1776760509651334,0.9983672846570535,-0.020691233691920274
1658789939447347,0.17267109178301698,0.9605249103532465,-0.010681315327687457
1658789939463347,0.17438010223544698,0.945876249332418,-0.017273212787060288
1658789939479347,0.1809719996948198,0.9733424887464714,-0.019470511940184565
1658789939495347,0.18084992751964624,0.9971465629053178,-0.017273212787060288
1658789939511346,0.18487830930037408,0.9973907072556649,-0.020691233691920274
1658789939527346,0.19012741283283763,0.9894560158693828,-0.021057450217440987
1658789939543346,0.18707560845349835,0.97261005569543,-0.018127718013275285
1658789939559346,0.18988326848249049,0.9887235828183414,-0.01239032578011745
1658789939575346,0.17547875181200911,0.9793240253299764,-0.02032501716639956
1658789939591345,0.1826810101472498,0.9750514991989014,-0.020691233691920274
1658789939607345,0.18023956664377838,0.9906767376211185,-0.0289921416037231
1658789939623345,0.18829633020523406,0.9933623254749371,-0.027649347676813818
1658789939639345,0.19183642328526762,0.990554665445945,-0.022400244144350268
1658789939655345,0.17962920576791053,0.9766384374761579,-0.011291676203555312
1658789939671325,0.17523460746166197,0.9868925001907378,-0.01104753185320817
1658789939687325,0.18341344319829123,0.9936064698252842,-0.010070954451819603
1658789939703325,0.1881742580300605,0.9816433966582743,-0.007751583123521755
1658789939719325,0.18170443274586123,0.9789578088044557,-0.024597543297474544
1658789939735324,0.17926298924238981,0.9778591592278936,-0.02288853284504455
1658789939751324,0.17084000915541342,0.9754177157244222,-0.02020294499122599
1658789939767324,0.1818265049210348,0.9781033035782407,-0.01739528496223386
1658789939783324,0.17914091706721624,0.9732204165712979,-0.008972304875257464
1658789939799324,0.17987335011825767,0.9792019531548029,-0.01373311970702673
1658789939815323,0.1830472266727705,0.9848172732127871,-0.017151140611886717
1658789939831323,0.18597695887693622,0.9904325932707714,-0.017761501487754572
1658789939847323,0.1881742580300605,0.9843289845120928,-0.007873655298695326
1658789939863323,0.18084992751964624,0.9807888914320593,-0.009338521400778177
1658789939879323,0.1771877622644391,0.9835965514610514,-0.019104295414663852
1658789939895322,0.1843900205996798,0.9740749217975129,-0.01873807888914314
1658789939911322,0.1881742580300605,0.9951934081025406,-0.024963759822995257
1658789939927322,0.1797512779430841,0.9881132219424735,-0.02020294499122599
1658789939943322,0.17743190661478625,0.9632104982070651,-0.012878614480811734
1658789939959322,0.18121614404516695,0.978591592278935,-0.01495384145876244
1658789939975321,0.19330128938735047,1.0039826047150378,-0.01861600671396957
1658789939991333,0.18316929884794408,1.002761882963302,-0.02264438849469741
1658789940007332,0.18341344319829123,0.9678492408636608,-0.01495384145876244
1658789940023332,0.17901884489204267,0.964919508659495,-0.016662851911192433
1658789940039332,0.17926298924238981,0.9916533150225071,-0.027649347676813818
1658789940055332,0.18487830930037408,0.9961699855039292,-0.017151140611886717
1658789940071332,0.16900892652780986,0.9779812314030671,-0.015320057984283153
1658789940087331,0.17877470054169553,0.9729762722209507,-0.01361104753185316
1658789940103331,0.17730983443961268,0.9693141069657436,-0.011657892729076025
1658789940119331,0.1801174944686048,0.985427634088655,-0.017151140611886717
1658789940135331,0.17645532921339768,0.9877470054169528,-0.022400244144350268
1658789940151331,0.1780422674906541,0.9846952010376135,-0.017273212787060288
1658789940167330,0.17877470054169553,0.9704127565423057,-0.01629663538567172
1658789940183330,0.18207064927138195,0.9879911497673,-0.017761501487754572
1658789940199330,0.17865262836652196,0.9972686350804914,-0.017151140611886717
1658789940215330,0.18451209277485336,0.9882352941176471,-0.018249790188448856
1658789940231330,0.1763332570382241,0.9718776226443886,-0.01495384145876244
1658789940247329,0.18084992751964624,0.9801785305561914,-0.015686274509803866
1658789940263329,0.1776760509651334,0.9964141298542764,-0.019836728465705278
1658789940279329,0.18341344319829123,1.0105745021744106,-0.025696192874036683
1658789940295329,0.1860990310521098,0.9818875410086214,-0.022034027618829555
1658789940311340,0.18585488670176264,0.9550316624704358,-0.009582665751125319
1658789940327340,0.1721828030823227,0.9875028610666057,-0.005310139620050336
1658789940343340,0.17621118486305054,1.0159456778820477,-0.01898222323949028
1658789940359339,0.18573281452658907,1.0015411612115663,-0.02423132677195383
1658789940375339,0.18243686579690266,0.9672388799877929,-0.019104295414663852
1658789940391339,0.18414587624933265,0.9719996948195622,-0.011535820553902454
1658789940407339,0.17108415350576056,0.9861600671396964,-0.014587624933241727
1658789940423339,0.17779812314030696,0.9864042114900435,-0.014343480582894585
1658789940439338,0.17267109178301698,0.9721217669947357,-0.019592584115358136
1658789940455338,0.1860990310521098,0.9822537575341421,-0.015320057984283153
1658789940471338,0.17608911268787697,0.9940947585259785,-0.013000686655985305
1658789940487338,0.1776760509651334,0.9779812314030671,-0.009460593575951748
1658789940503337,0.1776760509651334,0.9765163653009843,-0.011535820553902454
1658789940519337,0.18243686579690266,0.9783474479285879,-0.01641870756084529
1658789940535337,0.18341344319829123,0.9824979018844893,-0.010559243152513886
1658789940551337,0.17022964827954556,0.987136644541085,-0.017639429312581
1658789940567337,0.1738918135347527,0.9807888914320593,-0.0214236667429617
1658789940583336,0.1852445258258948,0.9739528496223393,-0.01617456321049815
1658789940599336,0.18805218585488692,0.9795681696803236,-0.01361104753185316
1658789940615336,0.17730983443961268,0.9722438391699093,-0.01239032578011745
1658789940631317,0.17462424658579412,0.9867704280155642,-0.015197985809109582
1658789940647317,0.1814602883955141,1.0045929655909056,-0.02410925459678026
1658789940663316,0.18707560845349835,0.9706569008926529,-0.014465552758068156
1658789940679316,0.1809719996948198,0.9668726634622722,-0.005065995269703194
1658789940695316,0.1721828030823227,0.9943389028763256,-0.017151140611886717
1658789940711316,0.1776760509651334,1.003616388189517,-0.023132677195391693
1658789940727316,0.18500038147554765,0.9883573662928207,-0.02252231631952384
1658789940743315,0.1873197528038455,0.9584496833752958,-0.021911955443655984
1658789940759315,0.1801174944686048,0.9730983443961243,-0.014587624933241727
1658789940775315,0.1704737926298927,1.0074006256198977,-0.024719615472648115
1658789940791315,0.1801174944686048,0.9970244907301442,-0.021179522392614558
1658789940807314,0.18805218585488692,0.9798123140306707,-0.021057450217440987
1658789940823314,0.1911039902342262,0.9961699855039292,-0.018005645838101714
1658789940839314,0.17486839093614126,0.9866483558403907,-0.01629663538567172
1658789940855314,0.1696192874036777,0.9740749217975129,-0.015197985809109582
1658789940871314,0.17828641184100125,0.9749294270237279,-0.017273212787060288
1658789940887313,0.1835355153734648,0.9929961089494164,-0.022278171969176697
1658789940903313,0.17901884489204267,0.9817654688334478,-0.015930418860151008
1658789940919313,0.17084000915541342,0.9586938277256429,-0.014099336232547444
1658789940935313,0.17376974135957912,0.9713893339436943,-0.012878614480811734
1658789940951324,0.17950713359273696,0.9989776455329213,-0.015686274509803866
1658789940967324,0.18780804150453978,1.0049591821164263,-0.02020294499122599
1658789940983324,0.18512245365072122,0.9790798809796293,-0.022400244144350268
1658789940999323,0.17560082398718269,0.9624780651560236,-0.012024109254596738
1658789941015323,0.1776760509651334,0.9890897993438621,-0.01104753185320817
1658789941031323,0.17572289616235626,0.9933623254749371,-0.017029068436713146
1658789941047323,0.17462424658579412,0.9727321278706036,-0.01226825360494388
1658789941063323,0.17572289616235626,0.9754177157244222,-0.021911955443655984
1658789941079322,0.1797512779430841,0.97773708705272,-0.02008087281605242
1658789941095322,0.1806057831692991,0.9886015106431678,-0.010437170977340315
1658789941111322,0.1738918135347527,0.9945830472266728,-0.01373311970702673
1658789941127322,0.17328145265888484,0.9693141069657436,-0.015197985809109582
1658789941143322,0.1868314641031512,0.9706569008926529,-0.014099336232547444
1658789941159321,0.17450217441062055,0.9942168307011521,-0.013488975356679589
1658789941175321,0.17169451438162842,1.0066681925688563,-0.02264438849469741
1658789941191321,0.17535667963683554,0.9783474479285879,-0.026062409399557396
1658789941207321,0.18487830930037408,0.9749294270237279,-0.019592584115358136
1658789941223321,0.18194857709620837,0.9964141298542764,-0.013977264057373873
1658789941239320,0.17352559700923198,0.9790798809796293,-0.012512397955291021
1658789941255320,0.17084000915541342,0.9772487983520257,-0.017273212787060288
1658789941271331,0.1780422674906541,0.9864042114900435,-0.021789883268482413
1658789941287331,0.18023956664377838,0.9895780880445564,-0.020813305867093845
1658789941303331,0.17572289616235626,0.9883573662928207,-0.020447089341573133
1658789941319331,0.1721828030823227,0.9822537575341421,-0.018493934538795997
1658789941335331,0.1759670405127034,0.9761501487754636,-0.016906996261539575
1658789941351330,0.18109407186999338,0.9947051194018464,-0.01239032578011745
1658789941367330,0.17413595788509983,0.9851834897383078,-0.018127718013275285
1658789941383330,0.17914091706721624,0.9839627679865721,-0.02264438849469741
1658789941399330,0.16900892652780986,0.97773708705272,-0.027527275501640247
1658789941415330,0.17462424658579412,0.9928740367742428,-0.01873807888914314
1658789941431329,0.18329137102311766,0.98457312886244,-0.01861600671396957
1658789941447329,0.17950713359273696,0.9884794384679942,-0.01995880064087885
1658789941463329,0.1785305561913484,0.9918974593728542,-0.01995880064087885
1658789941479329,0.17743190661478625,0.9859159227893493,-0.01995880064087885
1658789941495329,0.17608911268787697,0.9886015106431678,-0.010070954451819603
1658789941511328,0.17242694743266984,0.9857938506141757,-0.011902037079423167
1658789941527328,0.17486839093614126,0.9772487983520257,-0.018249790188448856
1658789941543328,0.17950713359273696,0.9848172732127871,-0.019836728465705278
1658789941559328,0.1868314641031512,0.9992217898832685,-0.024597543297474544
1658789941575327,0.17743190661478625,0.9840848401617457,-0.024841687647821686
1658789941591308,0.1704737926298927,0.97944609750515,-0.011291676203555312
1658789941607308,0.17376974135957912,1.0084992751964599,-0.015808346684977437
1658789941623308,0.18573281452658907,1.0120393682764934,-0.01641870756084529
1658789941639308,0.21441977569237824,1.0727092393377582,-0.008850232700083893
1658789941655307,0.19391165026321833,1.0603799496452275,-0.032288090333409514
1658789941671307,0.20685130083161685,1.0098420691233692,-0.030945296406500233
1658789941687307,0.18243686579690266,1.0063019760433356,-0.0432745860990309
1658789941703307,0.18341344319829123,1.0428015564202333,-0.037537193865873064
1658789941719307,0.18878461890592835,1.0608682383459218,-0.049256122682535874
1658789941735306,0.20184634164950044,1.0550087739375904,-0.0424200808728159
1658789941751306,0.2074616617074847,1.0487830930037383,-0.026306553749904538
1658789941767306,0.2171053635461968,1.0581826504921032,-0.008606088349736751
1658789941783306,0.22064545662623036,1.0407263294422826,-0.01226825360494388
1658789941799306,0.21686121919584966,1.0501258869306476,3.0518043793392735E-4
1658789941815305,0.23065537499046318,1.0908979934386203,-0.00836194399938961
1658789941831305,0.2511635004196231,1.0811322194247346,-0.014709697108415298
1658789941847305,0.25519188220035094,1.0476844434271761,-0.006897077897306758
1658789941863305,0.25885404745555807,1.047440299076829,0.006286717021438903
1658789941879305,0.25690089265278093,1.036087586785687,0.010193026626993174
1658789941895304,0.24249637598229956,0.98115510795758,-0.008850232700083893
1658789941911316,0.2638590066376745,0.9980010681315328,-5.493247882810692E-4
1658789941927315,0.26227206836041805,1.0149691004806591,-0.02423132677195383
1658789941943315,0.2743572137026016,0.9817654688334478,-0.022278171969176697
1658789941959315,0.27191577019913016,0.9626001373311972,-0.019836728465705278
1658789941975315,0.28656443121995867,0.9889677271686885,-0.007629510948348184
1658789941991315,0.28253604943923083,0.9536888685435265,-0.009094377050431035
1658789942007314,0.306950484473945,0.9801785305561914,0.0038452735179674846
1658789942023314,0.3262378881513692,1.00166323338674,-9.15541313801782E-4
1658789942039314,0.33490501258869276,0.9563744563973451,0.011169604028381741
1658789942055314,0.3428397039749749,0.919142442969406,7.934691386282111E-4
1658789942071313,0.3511406118867777,0.945021744106203,-0.004821850919356052
1658789942087313,0.34503700312809915,0.9571068894483865,-0.007995727473868897
1658789942103313,0.35223926146333984,0.9368429083695737,-0.0022583352407110624
1658789942119313,0.37067215991454905,0.9459983215075916,0.01617456321049815
1658789942135313,0.3800717174029149,0.9247577630273902,0.013000686655985305
1658789942151312,0.39118028534370985,0.9049820706492717,0.01886015106431671
1658789942167312,0.4005798428320748,0.9075455863279167,0.02911421377889667
1658789942183312,0.41425192645151476,0.9643091477836272,0.01898222323949028
1658789942199312,0.42011139085984617,0.9867704280155642,0.014343480582894585
1658789942215312,0.42780193789578114,0.9455100328068973,0.010193026626993174
1658789942231323,0.44000915541313823,0.9070572976272224,0.010681315327687457
1658789942247323,0.45429159990844603,0.919996948195621,0.013000686655985305
1658789942263322,0.46515602349889384,0.9290302891584652,0.02032501716639956
1658789942279322,0.4530708781567103,0.8882581826504925,0.020447089341573133
1658789942295322,0.46051728084229815,0.9328145265888459,0.015075913633936011
1658789942311322,0.47528801403830023,0.9551537346456094,0.017761501487754572
1658789942327322,0.4837109941252766,0.9307392996108952,0.04229800869764233
1658789942343321,0.49921416037232014,0.8999771114671553,0.03704890516517878
1658789942359321,0.5153276874952315,0.8814221408407725,0.048157473105973736
1658789942375321,0.5209430075532158,0.8941176470588239,0.058289463645380124
1658789942391321,0.5464560921644921,0.9610131990539408,0.04693675135423803
1658789942407321,0.5546349279011213,0.9203631647211417,0.049134050507362304
1658789942423320,0.5718471046005948,0.8776379034103918,0.06024261844815726
1658789942439320,0.5864957656214234,0.8848401617456325,0.07623407339589505
1658789942455320,0.5882047760738534,0.911451895933471,0.08087281605249075
1658789942471320,0.5889372091248948,0.9276874952315559,0.05999847409781012
1658789942487320,0.5768520637827113,0.8921644922560468,0.040100709544518054
1658789942503319,0.6247043564507511,0.8797131303883425,0.0689097428854808
1658789942519319,0.6214084077210646,0.879591058213169,0.062439917601281536
1658789942535319,0.6298313878080419,0.856275272755016,0.044007019150072324
1658789942551300,0.615915159838254,0.7442130159456779,0.05889982452124798
1658789942567299,0.6135957885099561,0.7407949950408179,0.08136110475318503
1658789942583299,0.6413061722743576,0.8505378805218582,0.0739147020675972
1658789942599299,0.673899443045701,0.8848401617456325,0.0651255054551001
1658789942615299,0.682444495307851,0.8083009079118026,0.08709849698634287
1658789942631299,0.712596322575723,0.7333485923552301,0.124330510414282
1658789942647298,0.7278553444724194,0.7501945525291829,0.1549706263828492
1658789942663298,0.7294422827496758,0.7553215838864729,0.15851071946288275
1658789942679298,0.7561760891126879,0.696116578927291,0.16498054474708201
1658789942695298,0.7514152742809186,0.6770733196002139,0.14044403753719426
1658789942711298,0.7614251926451514,0.6931868467231252,0.1351949340047307
1658789942727297,0.7403067063401236,0.6204318303196761,0.13824673838406998
1658789942743297,0.7217517357137408,0.5404745555809871,0.1289692530708786
1658789942759297,0.7302967879758908,0.5878385595483326,0.13299763485160643
1658789942775297,0.7476310368505379,0.591134508278019,0.13665980010681356
1658789942791297,0.7603265430685893,0.4918898298619059,0.1579003585870149
1658789942807296,0.7785152971694513,0.38532082093537845,0.19171435111009405
1658789942823296,0.7522697795071336,0.3952086671244377,0.22162203402761893
1658789942839296,0.7482413977264057,0.5136186770428015,0.19366750591287119
1658789942855296,0.7409170672159915,0.4549019607843139,0.14093232623788854
1658789942871307,0.781445029373617,0.33417257953765134,0.14764629587243494
1658789942887307,0.8509040970473789,0.3712825207904169,0.20477607385366614
1658789942903307,0.827832455939574,0.3218432898451207,0.23785763332570387
1658789942919306,0.7924315251392384,0.2962081330586708,0.23920042725261315
1658789942935306,0.7730220492866406,0.22357518883039607,0.21429770351720467
1658789942951306,0.7975585564965284,0.17169451438162842,0.2360265506981003
1658789942967306,0.8644541084916453,0.31464103150988,0.2566567483024338
1658789942983306,0.8412603952086668,0.32318608377202995,0.23419546807049674
1658789942999305,0.8031738765545127,0.1625391012436106,0.24701304646372169
1658789943015305,0.8402838178072782,0.13336385137712714,0.28363469901579297
1658789943031305,0.8657969024185546,0.28168154421301583,0.3285572594796671
1658789943047305,0.8611581597619589,0.31097886625467286,0.31561760891126855
1658789943063305,0.8479743648432132,0.1582665751125356,0.3385671778438999
1658789943079304,0.8439459830624854,0.029968719005111666,0.33197528038452706
1658789943095304,0.8642099641412981,0.03350881208514522,0.34723430228122343
1658789943111304,0.8543221179522389,0.09796292057679068,0.344792858777752
1658789943127304,0.8369878690775918,0.11663996337834703,0.3288014038300142
1658789943143303,0.8021972991531241,0.003479056992446772,0.3242847333485921
1658789943159303,0.8274662394140533,-0.10833905546654465,0.37189288166628476
1658789943175303,0.8302738994430454,-0.07647821774624264,0.4115663385976962
1658789943191314,0.7965819790951398,-0.06732280460822482,0.3959411001754791
1658789943207314,0.7739986266880292,-0.08722056916151688,0.39703974975204126
1658789943223314,0.799389639124132,-0.16754406042572656,0.41254291599908477
1658789943239314,0.8339360646982525,-0.24408331425955598,0.4494087129015032
1658789943255313,0.8650644693675131,-0.2595864805065995,0.4733348592355231
1658789943271313,0.8526131074998089,-0.29413290608072007,0.47528801403830023
1658789943287313,0.8283207446402683,-0.3513847562371253,0.4831006332494088
1658789943303313,0.8273441672388797,-0.3333180743114368,0.5170366979476615
1658789943319313,0.8068360418097198,-0.3176928358892197,0.5258258945601586
1658789943335312,0.7750972762645914,-0.4536812390325782,0.52997634851606
1658789943351312,0.7654535744258792,-0.5519493400473028,0.5615930418860149
1658789943367312,0.7870603494316013,-0.5497520408941785,0.5770962081330584
1658789943383312,0.7676508735790035,-0.5630579079880982,0.5831998168917369
1658789943399312,0.7625238422217135,-0.5548790722514685,0.5659876401922634
1658789943415311,0.7663080796520942,-0.54023041123064,0.5349813076981764
1658789943431311,0.7810788128480963,-0.5047074082551308,0.5296101319905393
1658789943447311,0.7995117112993055,-0.4343938353551535,0.5390096894789043
1658789943463311,0.8135500114442662,-0.3996032654306858,0.534248874647135
1658789943479311,0.8128175783932248,-0.4530708781567103,0.51972228580148
1658789943495310,0.8114747844663155,-0.4741893644617381,0.5193560692759593
1658789943511291,0.8146486610208283,-0.42084382391088715,0.5232623788815136
1658789943527291,0.787426565957122,-0.37177080949111163,0.5014114595254444
1658789943543291,0.7841306172274356,-0.3538261997405967,0.46210421911955457
1658789943559291,0.76752880140383,-0.33551537346456106,0.4387884336614025
1658789943575290,0.7833981841763942,-0.2957198443579765,0.41559472037842404
1658789943591290,0.780590524147402,-0.21930266269932108,0.4182803082322426
1658789943607290,0.7672846570534828,-0.18060578316929865,0.41644922560463904
1658789943623290,0.7846189059281299,-0.19305714503700333,0.4044861524376291
1658789943639289,0.7904783703364613,-0.19452201113908618,0.392278934920272
1658789943655289,0.7895017929350727,-0.15973144121461802,0.3902037079423213
1658789943671289,0.7829098954756999,-0.08099488822766476,0.3981383993286034
1658789943687289,0.768383306630045,0.006652933546959616,0.37201495384145833
1658789943703289,0.7702143892576485,0.024353398947127403,0.33990997177080917
1658789943719288,0.766674296177615,0.01751735713740743,0.3368581673914699
1658789943735288,0.7586175326161593,0.033875028610665936,0.3297779812314028
1658789943751288,0.7661860074769207,0.14093232623788854,0.33490501258869276
1658789943767288,0.7604486152437628,0.19623102159151617,0.3104905775539786
1658789943783288,0.7486076142519265,0.1587548638132299,0.26276035706111234
1658789943799287,0.7487296864271,0.2007476920729383,0.2229648279545282
1658789943815287,0.7781490806439306,0.34369420920118987,0.21991302357518894
1658789943831298,0.7648432135500114,0.39069199664301557,0.19537651636530118
1658789943847298,0.7345693141069658,0.3335622186617835,0.16327153429465202
1658789943863298,0.7482413977264057,0.35468070496681126,0.14715800717174066
1658789943879298,0.747875181200885,0.43451590753032754,0.12860303654535787
1658789943895298,0.751293202105745,0.5591515983825435,0.08624399176012787
1658789943911297,0.7487296864271,0.5950408178835733,0.006897077897306758
1658789943927297,0.723704890516518,0.499824521248188,-0.0424200808728159
1658789943943297,0.7420157167925536,0.5443808651865414,-0.026306553749904538
1658789943959297,0.7595941100175478,0.6975814450293738,-0.02923628595407024
1658789943975297,0.7371328297856108,0.7030746929121845,-0.07611200122072193
1658789943991296,0.6957503624017702,0.6126192111085675,-0.12860303654535743
1658789944007296,0.7014877546349281,0.6234836346990154,-0.10003814755474183
1658789944023296,0.6917219806210424,0.799389639124132,-0.04754711223010588
1658789944039296,0.6332494087129019,0.852002746623941,-0.08624399176012831
1658789944055296,0.6280003051804384,0.720286869611658,-0.1337300679026474
1658789944071295,0.6432593270771347,0.6842755779354546,-0.14251926451514452
1658789944087295,0.6109102006561375,0.685862516212711,-0.12262149996185245
1658789944103295,0.5794155794613562,0.8230716411078047,-0.09393453879606328
1658789944119295,0.5355916685740443,1.0514686808575568,-0.16729991607537942
1658789944135295,0.5132524605172808,1.0043488212405585,-0.2310215915159839
1658789944151275,0.5523155565728235,0.75214770733196,-0.17926298924238937
1658789944167275,0.5691615167467763,0.6979476615548945,-0.127870603494316
1658789944183275,0.5045853360799573,0.8501716639963375,-0.1421530479896238
1658789944199275,0.4590524147402153,0.9849393453879607,-0.21026932173647683
1658789944215274,0.4657663843747617,0.9367208361944002,-0.2658121614404516
1658789944231274,0.48664072632944233,0.8949721522850389,-0.22980086976424818
1658789944247274,0.4641794460975053,0.8532234683756768,-0.1762111848630501
1658789944263274,0.4578316929884796,0.8920424200808732,-0.16510261692225514
1658789944279274,0.42487220569161543,1.0103303578240634,-0.2057526512550547
1658789944295273,0.42145418478675545,1.0484168764782176,-0.21844815747310609
1658789944311273,0.4640573739223317,1.0119172961013199,-0.21808194094758537
1658789944327273,0.47736324101625094,1.0651407644769968,-0.21905851834897394
1658789944343273,0.45172808422980104,1.1148241397726402,-0.18597695887693577
1658789944359273,0.45831998168917387,1.1890440222781722,-0.19501029983978047
1658789944375272,0.45294880598153675,1.150102998397803,-0.23443961242084388
1658789944391272,0.47858396276798665,1.2381170366979477,-0.2943770504310672
1658789944407272,0.5069047074082551,1.3344319829098952,-0.29083695735103365
1658789944423272,0.47736324101625094,1.327107652399481,-0.27875181200885013
1658789944439272,0.430121309224079,1.3344319829098952,-0.29718471046005934
1658789944455271,0.4018005645838105,1.359822995345998,-0.3014572365911343
1658789944471283,0.47528801403830023,1.4390478370336464,-0.2709391927977416
1658789944487282,0.5009231708247501,1.4610208285648891,-0.23797970550087744
1658789944503282,0.47528801403830023,1.3285725185015638,-0.20465400167849257
1658789944519282,0.4535591668574046,1.3227130540932324,-0.18390173189898507
1658789944535282,0.46979476615548954,1.3969329365987644,-0.18048371099412508
1658789944551282,0.45294880598153675,1.36775768673228,-0.1555809872587166
1658789944567281,0.4317082475013354,1.2376287479972534,-0.14373998626688023
1658789944583281,0.4191348134584576,1.167193102922103,-0.11517509727626463
1658789944599281,0.4484321355001146,1.2429999237048905,-0.1022354467078661
1658789944615281,0.4452582589456018,1.256549935149157,-0.10577553978789966
1658789944631281,0.44538033112077535,1.1220263981078809,-0.11419851987487606
1658789944647280,0.46088349736781886,1.0110627908751049,-0.10553139543755252
1658789944663280,0.4994583047226673,1.0417029068436712,-0.06659037155718339
1658789944679280,0.49115739681086446,1.0453650720988783,-0.05169756618600729
1658789944695280,0.45416952773327246,0.9568627450980394,-0.09308003356984829
1658789944711279,0.4599069199664303,0.8623788815136946,-0.11676203555352105
1658789944727279,0.5050736247806515,0.8799572747386897,-0.0733043411917298
1658789944743279,0.5194781414511329,0.8325932707713433,-0.03790341039139378
1658789944759279,0.5230182345311665,0.7709468223086899,-0.02545204852368954
1658789944775279,0.5123979552910658,0.7067368581673916,-0.030212863355458808
1658789944791290,0.5418173495078964,0.720286869611658,-0.0327763790341038
1658789944807290,0.610788128480964,0.7528801403830014,-0.01898222323949028
1658789944823289,0.6350804913405055,0.6248264286259246,0.028503852903028815
1658789944839289,0.6367895017929355,0.5658655680170899,0.0680552376592658
1658789944855289,0.6250705729762727,0.5480430304417485,0.07891966124971361
1658789944871289,0.6511940184634168,0.5846646829938198,0.07061875333791079
1658789944887289,0.7055161364156559,0.5691615167467763,0.06659037155718295
1658789944903288,0.7060044251163502,0.43073167009994684,0.10357824063477494
1658789944919288,0.7114976729991609,0.31317616540779714,0.15350576028076635
1658789944935288,0.6962386511024645,0.3695735103379869,0.167544060425727
1658789944951288,0.6796368352788589,0.41681544213015975,0.13507286182955713
1658789944967288,0.6996566720073245,0.3397878995956356,0.12860303654535787
1658789944983287,0.7412832837415122,0.22540627145799963,0.15179674982833635
1658789944999287,0.7501945525291829,0.1734035248340584,0.21698329137102323
1658789945015287,0.7316395819028001,0.2086823834592204,0.1978179598687726
1658789945031287,0.7088120851453423,0.1654688334477763,0.16571297779812344
1658789945047287,0.778027008468757,0.133974212252995,0.1625391012436106
1658789945063286,0.8202639810788126,0.13995574883649997,0.2267490653849089
1658789945079286,0.8253910124361026,0.04888990615701516,0.25397116044861523
1658789945095286,0.790844586861982,-0.09491111619745185,0.2658121614404516
1658789945111267,0.8008545052262148,-0.07049668116273766,0.2566567483024338
1658789945127267,0.8595712214847024,0.13458457312886285,0.25592431525139236
1658789945143266,0.8500495918211639,0.06829938200961294,0.24640268558785383
1658789945159266,0.8240482185091933,-0.14496070801861594,0.28168154421301583
1658789945175266,0.8349126420996411,-0.23382925154497602,0.31732661936369855
1658789945191266,0.8535896849011975,-0.13055619134813456,0.32367437247272424
1658789945207265,0.8496833752956432,-0.07086289768825837,0.29669642175936506
1658789945223265,0.855420767528801,-0.1973296711680783,0.31134508278019357
1658789945239265,0.8506599526970318,-0.29547570000762935,0.3528496223392077
1658789945255265,0.8504158083466846,-0.2171053635461968,0.41351949340047334
1658789945271265,0.8391851682307161,-0.13958953231097881,0.44953078507667676
1658789945287264,0.8246585793850612,-0.28497749294270225,0.4547798886091403
1658789945303264,0.8299076829175247,-0.38727397573815514,0.4757763027389945
1658789945319264,0.8379644464789804,-0.3613946746013581,0.4791943236438545
1658789945335264,0.8292973220416568,-0.3798275730525673,0.48273441672388806
1658789945351264,0.8050049591821162,-0.41412985427634075,0.4976272220950637
1658789945367263,0.778881513694972,-0.47614251926451523,0.510078583962768
1658789945383263,0.7417715724422065,-0.5337605859464407,0.5254596780346379
1658789945399263,0.7500724803540093,-0.510933089188983,0.5403524834058135
1658789945415263,0.7714351110093842,-0.4729686427100024,0.5586633096818492
1658789945431274,0.7954833295185777,-0.5128862439917601,0.5689173723964291
1658789945447274,0.790844586861982,-0.5163042648966201,0.5414511329823757
1658789945463274,0.796826123445487,-0.5199664301518272,0.5548790722514685
1658789945479273,0.8180666819256883,-0.41962310215915144,0.5625696192874035
1658789945495273,0.8075684748607612,-0.38641947051194014,0.54193942168307
1658789945511273,0.7997558556496527,-0.43549248493171566,0.5061722743572137
1658789945527273,0.8108644235904476,-0.4721141374837874,0.5045853360799573
1658789945543273,0.7998779278248263,-0.3891050583657587,0.4843213550011445
1658789945559272,0.7825436789501792,-0.3849546044098573,0.4484321355001146
1658789945575272,0.7645990691996642,-0.3877622644388494,0.4287785152971697
1658789945591272,0.7669184405279621,-0.32709239337758467,0.424994277866789
1658789945607272,0.7705806057831692,-0.24029907682917528,0.3950865949492641
1658789945623272,0.7819333180743113,-0.20184634164950044,0.3778744182497906
1658789945639271,0.801953154802777,-0.22821393148699176,0.37738612954909634
1658789945655271,0.7971923399710077,-0.18878461890592835,0.4003356984817277
1658789945671271,0.7842526894026092,-0.09198138399328615,0.3967956054016941
1658789945687271,0.7981689173723963,-0.09246967269398043,0.3833676661326013
1658789945703271,0.8073243305104141,-0.08575570305943403,0.3561455710688941
1658789945719270,0.7782711528191042,-0.03985656519417091,0.343083848325322
1658789945735270,0.75898374914168,0.09552147707331926,0.32697032120241065
1658789945751281,0.7449454489967193,0.11029221026932134,0.32355230029755067
1658789945767281,0.7566643778133821,0.13995574883649997,0.28534370946822296
1658789945783281,0.756420233463035,0.1797512779430841,0.26446936751354233
1658789945799281,0.7539787899595636,0.24762340733958954,0.2394445716029603
1658789945815281,0.7737544823376821,0.25763332570382236,0.21857022964827966
1658789945831280,0.7486076142519265,0.28632028686961153,0.20465400167849257
1658789945847280,0.7462882429236286,0.3318532082093535,0.17364766918440555
1658789945863280,0.723704890516518,0.3545586327916377,0.1372701609826814
1658789945879280,0.7289539940489815,0.41547264820325047,0.08795300221255786
1658789945895280,0.7255359731441215,0.45551232166018174,0.0844129091325243
1658789945911279,0.7090562294956895,0.4464789806973375,0.05633630884260299
1658789945927279,0.7020981155107959,0.5059281300068665,0.03692683299000521
1658789945943279,0.6869611657892731,0.5296101319905393,0.01617456321049815
1658789945959279,0.7230945296406501,0.616769665064469,-0.012878614480811734
1658789945975278,0.7229724574654766,0.6249485008010982,-0.04632639047837017
1658789945991278,0.7243152513923858,0.6330052643625548,-0.08392462043183047
1658789946007278,0.7023422598611431,0.6546120393682768,-0.11554131380178534
1658789946023278,0.686717021438926,0.7103990234225988,-0.13409628442816812
1658789946039278,0.6634012359807739,0.8074464026855876,-0.19928282597085545
1658789946055277,0.6668192568856339,0.7659418631265735,-0.22333104448004892
1658789946071258,0.654856183718624,0.7038071259632259,-0.20123598077363258
1658789946087258,0.6561989776455333,0.7527580682078279,-0.1732814526588844
1658789946103258,0.5829556725413898,0.8465094987411304,-0.1973296711680783
1658789946119258,0.5571984435797663,0.9033951323720153,-0.269962615396353
1658789946135257,0.5388876173037307,0.8340581368734261,-0.2990157930876629
1658789946151257,0.5705043106736856,0.8090333409628441,-0.2822919050888837
1658789946167257,0.5510948348210878,0.8529793240253296,-0.22149996185244536
1658789946183257,0.4968947890440223,0.9263447013046466,-0.2196688792248418
1658789946199257,0.47858396276798665,0.9856717784390021,-0.31671625848783114
1658789946215256,0.4673533226520181,0.9270771343556881,-0.34515907530327317
1658789946231256,0.4943312733653773,0.9301289387350273,-0.2936446173800258
1658789946247256,0.5449912260624092,0.99140917067216,-0.23846799420157172
1658789946263256,0.4788281071183338,0.9767605096513314,-0.2276035706111239
1658789946279255,0.4804150453955902,1.0700236514839396,-0.2647135118638895
1658789946295255,0.4889600976577402,1.0865033951323717,-0.2540932326237888
1658789946311255,0.48786144808117804,1.0874799725337603,-0.25348287174792095
1658789946327255,0.46845197222858026,1.084428168154421,-0.2868085755703058
1658789946343255,0.44538033112077535,1.1328908216983296,-0.33307392996108964
1658789946359254,0.4627145799954224,1.2091859311818114,-0.3600518806744488
1658789946375254,0.5043411917296101,1.2513008316166934,-0.30731670099946573
1658789946391265,0.5102006561379415,1.2637521934843976,-0.2852216372930494
1658789946407265,0.4599069199664303,1.2637521934843976,-0.30389868009460574
1658789946423265,0.47895017929350736,1.2663157091630426,-0.3032883192187379
1658789946439265,0.48957045853360803,1.3524986648355837,-0.29291218432898436
1658789946455265,0.47602044708934166,1.3335774776836802,-0.2730144197756923
1658789946471264,0.4784618905928131,1.2569161516746776,-0.2473792629892424
1658789946487264,0.4822461280231938,1.2532539864194705,-0.24420538643472955
1658789946503264,0.5022659647516594,1.2941481651026168,-0.22992294193942175
1658789946519264,0.4845654993514916,1.2804760814831768,-0.20697337300679042
1658789946535264,0.4741893644617381,1.1967345693141072,-0.1841458762493322
1658789946551263,0.4712596322575724,1.1459525444419016,-0.15948729686427088
1658789946567263,0.49323262378881516,1.1354543373769745,-0.1350728618295567
1658789946583263,0.49835965514610514,1.1442435339894717,-0.12542915999084459
1658789946599263,0.47724116884107737,1.1170214389257644,-0.15326161593041876
1658789946615263,0.47357900358587024,1.0338902876325626,-0.15448233768215447
1658789946631262,0.4867627985046159,1.035477225909819,-0.1409323262378881
1658789946647262,0.510933089188983,1.0071564812695506,-0.13568322270542454
1658789946663262,0.5086137178606851,0.933913176165408,-0.09625391012436113
1658789946679262,0.5045853360799573,0.9137712672617688,-0.09356832227054257
1658789946695262,0.541084916456855,0.8972915236133368,-0.10418860151064324
1658789946711273,0.5960173952849619,0.9075455863279167,-0.08404669260700404
1658789946727273,0.6126192111085675,0.8498054474708168,-0.07928587777523477
1658789946743272,0.5866178377965969,0.8083009079118026,-0.04974441138323016
1658789946759272,0.5877164873731591,0.8030518043793391,-0.027038986800945963
1658789946775272,0.6032196536202026,0.7283436331731137,-0.019348439765010994
1658789946791272,0.6083466849774926,0.6728007934691389,-0.009338521400778177
1658789946807272,0.6198214694438082,0.6594949263752197,-0.013000686655985305
1658789946823271,0.6196993972686347,0.626413366903182,0.023010605020218122
1658789946839271,0.6560769054703597,0.5929655909056226,0.06146334019989297
1658789946855271,0.6752422369726103,0.6067597467002361,0.08160524910353217
1658789946871271,0.6682841229877168,0.5408407721065078,0.09112687876707071
1658789946887271,0.6973373006790267,0.467963683527886,0.09210345616845927
1658789946903270,0.7324940871290151,0.41596093690394476,0.10199130235751852
1658789946919270,0.7406729228656443,0.39325551232166056,0.13702601663233427
1658789946935270,0.7298084992751965,0.42609292744335114,0.14837872892347637
1658789946951270,0.6870832379644467,0.3390554665445942,0.13006790264744073
1658789946967270,0.7243152513923858,0.27191577019913016,0.12359807736324058
1658789946983269,0.7766842145418478,0.2764324406805523,0.16485847257190844
1658789946999269,0.7920653086137177,0.19476615548943332,0.21637293049515538
1658789947015269,0.76240177004654,0.11590753032730561,0.2293125810635539
1658789947031250,0.7716792553597314,0.15692378118562633,0.23334096284428174
1658789947047249,0.778027008468757,0.2938887617303729,0.21600671396963467
1658789947063249,0.8216067750057219,0.2351720454718853,0.20001525902189687
1658789947079249,0.8382085908293275,0.026916914625772392,0.22992294193942175
1658789947095249,0.8394293125810632,-0.06756694895857196,0.2721599145494773
1658789947111249,0.8472419317921718,0.07757686732280433,0.2957198443579765
1658789947127248,0.8306401159685661,0.20172426947432687,0.24213015945677885
1658789947143248,0.854566262302586,0.10382238498512208,0.21747158007171752
1658789947159248,0.8909437705043111,-0.035217822537575216,0.2695963988708323
1658789947175248,0.8938735027084768,-0.046814679179064456,0.33490501258869276
1658789947191248,0.8531013962005032,-0.09112687876707115,0.3726253147173262
1658789947207247,0.8247806515602347,-0.09918364232852683,0.3676203555352098
1658789947223247,0.8375982299534597,0.04754711223010588,0.3157396810864421
1658789947239247,0.839795529106584,0.03436331731136022,0.3074387731746393
1658789947255247,0.8711680781261917,-0.0905165178912033,0.3759212634470135
1658789947271247,0.9141374837872895,-0.15533684290836947,0.4595407034409096
1658789947287246,0.8773937590600447,-0.07415884641794479,0.4724803540093081
1658789947303246,0.8416266117341875,-0.06683451590753053,0.44965285725185034
1658789947319246,0.8966811627374689,-0.0762340733958955,0.45673304341191745
1658789947335246,0.9248798352025638,-0.11017013809414822,0.4721141374837874
1658789947351257,0.9223163195239188,-0.2527504386968795,0.4994583047226673
1658789947367257,0.8633554589150831,-0.35101853971160457,0.5005569542992294
1658789947383257,0.7851071946288242,-0.23077744716563675,0.4831006332494088
1658789947399256,0.7396963454642558,-0.10553139543755252,0.49408712901503016
1658789947415256,0.7212634470130466,-0.16473640039673443,0.5187457084000915
1658789947431256,0.7434805828946365,-0.3135423819333183,0.5490196078431371
1658789947447256,0.7989013504234377,-0.34772259098191816,0.5590295262073699
1658789947463256,0.8362554360265504,-0.36200503547722596,0.5731898985275041
1658789947479255,0.8330815594720375,-0.3390554665445946,0.5653772793163956
1658789947495255,0.8382085908293275,-0.30389868009460574,0.5512169069962614
1658789947511255,0.8483405813687339,-0.25226214999618524,0.5757534142061491
1658789947527255,0.8544441901274125,-0.20721751735713756,0.5766079194323641
1658789947543254,0.8526131074998089,-0.2305333028152896,0.5680628671702141
1658789947559254,0.8369878690775918,-0.25128557259479667,0.5434042877851528
1658789947575254,0.8385748073548482,-0.2608072022583352,0.5064164187075608
1658789947591254,0.8322270542458226,-0.21844815747310609,0.4766308079652095
1658789947607254,0.818432898451209,-0.15960936903944445,0.47052719920653097
1658789947623253,0.8112306401159683,-0.13995574883649953,0.45001907377737105
1658789947639253,0.8072022583352405,-0.14459449149309522,0.4320744640268561
1658789947655253,0.8106202792401005,-0.1047989623865111,0.41144426642252263
1658789947671264,0.8283207446402683,-0.08050659952697048,0.40961318379491907
1658789947687264,0.8415045395590139,-0.03595025558861664,0.40717174029144765
1658789947703264,0.8332036316472111,-0.011169604028381741,0.3977721828030827
1658789947719264,0.8468757152666511,-0.046692607003890885,0.3969176775768677
1658789947735263,0.8260013733119704,0.03680476081483164,0.3545586327916377
1658789947751263,0.8275883115892269,0.10577553978789922,0.31024643320363143
1658789947767263,0.8366216525520711,0.05938811322194226,0.3218432898451207
1658789947783263,0.8256351567864497,0.10406652933546923,0.32697032120241065
1658789947799263,0.8072022583352405,0.1604638742656599,0.30353246356908503
1658789947815262,0.8117189288166626,0.20086976424811187,0.27191577019913016
1658789947831262,0.8147707331960019,0.21136797131303897,0.23370717936980245
1658789947847262,0.8173342488746469,0.22076752880140393,0.2033112077515833
1658789947863262,0.830395971618219,0.22113374532692465,0.21954680704966822
1658789947879262,0.8102540627145798,0.2986495765621422,0.21905851834897394
1658789947895261,0.7895017929350727,0.3552910658426791,0.18805218585488692
1658789947911261,0.7710688944838635,0.35797665369649767,0.12860303654535787
1658789947927261,0.7837644007019149,0.3640802624551762,0.11895933470664488
1658789947943261,0.7855954833295185,0.3864194705119406,0.14044403753719426
1658789947959261,0.7791256580453192,0.42475013351644186,0.12445258258945557
1658789947975260,0.7409170672159915,0.45136186770428033,0.0701304646372165
1658789947991272,0.7492179751277943,0.48151369497215235,0.0020141908903639205
1658789948007271,0.7619134813458457,0.5598840314335849,0.017151140611886717
1658789948023271,0.7645990691996642,0.5830777447165634,0.047913328755626594
1658789948039271,0.7395742732890822,0.5973601892118712,0.03961242084382377
1658789948055271,0.7017318989852752,0.5932097352559698,-0.00457770656900891
1658789948071271,0.6830548561837189,0.6439917601281762,-0.05352864881361086
1658789948087270,0.7005111772335395,0.6775616083009082,-0.10089265278095683
1658789948103270,0.7138170443274587,0.6508278019378961,-0.07891966124971406
1658789948119270,0.7013656824597545,0.692698558022431,-0.06805523765926624
1658789948135270,0.646311131456474,0.783154039826047,-0.11187914854657821
1658789948151270,0.636057068741894,0.7903562981612877,-0.1447165636682688
1658789948167269,0.6467994201571683,0.7129625391012437,-0.12542915999084459
1658789948183269,0.6398413061722747,0.7403067063401236,-0.07672236209658978
1658789948199269,0.5888151369497212,0.8456549935149154,-0.08404669260700404
1658789948215269,0.5574425879301135,0.8721446555275802,-0.16058594644083302
1658789948231269,0.5589074540321963,0.8062256809338519,-0.19134813458457334
1658789948247268,0.5799038681620505,0.8069581139848934,-0.14740215152208735
1658789948263268,0.561837186236362,0.8913099870298318,-0.1228656443121996
1658789948279268,0.4914015411612116,0.9149919890135045,-0.1375143053330281
1658789948295268,0.48859388113221947,0.8906996261539639,-0.19769588769359903
1658789948311279,0.49701686121919586,0.8606698710612646,-0.21149004348821254
1658789948327279,0.5081254291599908,0.8556649118791482,-0.16009765774013873
1658789948343279,0.4793163958190281,0.9478294041351951,-0.14728007934691378
1658789948359278,0.4093690394445719,0.9842069123369193,-0.17022964827954512
1658789948375278,0.40302128633554624,0.9177996490424967,-0.19977111467154973
1658789948391278,0.4112001220721755,0.8798352025635161,-0.19842832074464045
1658789948407278,0.45172808422980104,1.0424353398947126,-0.19098191805905262
1658789948423277,0.4287785152971697,1.079301136797131,-0.20526436255436042
1658789948439277,0.42011139085984617,1.0624551766231782,-0.23382925154497602
1658789948455277,0.42145418478675545,0.9838406958113985,-0.2150301365682461
1658789948471277,0.43402761882963325,1.026932173647669,-0.19342336156252404
1658789948487277,0.4036316472114141,1.1065232318608373,-0.2267490653849089
1658789948503276,0.37482261387045046,1.1635309376668959,-0.2630045014114595
1658789948519276,0.39374380102235484,1.1570611123826966,-0.28363469901579297
1658789948535276,0.4265812161440454,1.19819943541619,-0.2565346761272602
1658789948551276,0.4213321126115819,1.245441367208362,-0.22504005493247892
1658789948567276,0.39411001754787556,1.217242694743267,-0.2339513237201496
1658789948583275,0.3986266880292977,1.2143129625391014,-0.23651483939879459
1658789948599275,0.4430609597924775,1.308308537422751,-0.2293125810635539
1658789948615275,0.4442816815442132,1.3883878843366144,-0.23358510719462888
1658789948631286,0.430975814450294,1.3019607843137253,-0.2146639200427254
1658789948647286,0.4043640802624555,1.1614557106889452,-0.18597695887693577
1658789948663286,0.3952086671244377,1.1866025787747008,-0.18048371099412508
1658789948679286,0.38947127489127986,1.3009842069123367,-0.18146028839551365
1658789948695285,0.38153658350499775,1.2646066987106126,-0.20843823910887327
1658789948711285,0.3817807278553449,1.1627985046158544,-0.2121004043640804
1658789948727285,0.40045777065690125,1.1457084000915545,-0.18219272144655507
1658789948743285,0.4242618448157476,1.139604791332876,-0.1547264820325016
1658789948759285,0.4368352788586254,1.1377737087052724,-0.13226520180056456
1658789948775284,0.4271915770199133,1.1300831616693374,-0.14435034714274808
1658789948791284,0.4356145571068897,1.0641641870756082,-0.1354390783550774
1658789948807284,0.4893263141832609,1.0745403219653618,-0.11944762340733961
1658789948823284,0.5260700389105057,1.065384908827344,-0.09149309529259186
1658789948839284,0.5175249866483558,1.003616388189517,-0.07928587777523477
1658789948855283,0.4901808194094759,0.9159685664148931,-0.08441290913252475
1658789948871283,0.5141069657434958,0.9312275883115895,-0.10431067368581681
1658789948887283,0.5407186999313343,0.9754177157244222,-0.09600976577401399
1658789948903283,0.5363241016250857,0.9224383916990924,-0.08307011520561547
1658789948919283,0.5089799343862058,0.7799801632715342,-0.07806515602349906
1658789948935282,0.5161821927214465,0.7511711299305714,-0.08160524910353262
1658789948951263,0.5457236591134507,0.817578393224994,-0.06024261844815726
1658789948967263,0.5952849622339205,0.8250247959105819,-0.03533989471274879
1658789948983263,0.5983367666132597,0.7741206988632028,-0.02545204852368954
1658789948999262,0.5946746013580526,0.6111543450064847,-0.008606088349736751
1658789949015262,0.6444800488288704,0.6314183260852984,0.021911955443655984
1658789949031262,0.7069810025177388,0.7186999313344016,0.03704890516517878
1658789949047262,0.7233386739909973,0.6959945067521174,0.04876783398184159
1658789949063262,0.6759746700236517,0.5864957656214234,0.06756694895857152
1658789949079261,0.6896467536430917,0.4976272220950637,0.05767910276951227
1658789949095261,0.7157701991302359,0.4547798886091403,0.06573586633096795
1658789949111261,0.7360341802090486,0.48029297322041664,0.09039444571602928
1658789949127261,0.7376211184863051,0.48957045853360803,0.11639581902799989
1658789949143261,0.6966048676279852,0.41547264820325047,0.11834897383077703
1658789949159260,0.6873273823147938,0.2578774700541695,0.11602960250247918
1658789949175260,0.719432364385443,0.2533607995727474,0.11236743724727205
1658789949191260,0.7686274509803921,0.2947432669565879,0.13922331578545855
1658789949207260,0.7841306172274356,0.23956664377813386,0.17950713359273696
1658789949223260,0.76240177004654,0.12323186083771986,0.17926298924238981
1658789949239259,0.7722896162355992,0.15252918287937778,0.2112458991378654
1658789949255259,0.793408102540627,0.2953536278324558,0.1911039902342262
1658789949271270,0.7912108033875027,0.22076752880140393,0.22870222018768604
1658789949287270,0.8563973449301896,0.06732280460822437,0.24261844815747313
1658789949303270,0.8523689631494618,-0.010315098802166744,0.29340047302967864
1658789949319270,0.8416266117341875,0.05426108186465228,0.28705271992065295
1658789949335270,0.8435797665369646,0.13934538796063212,0.2721599145494773
1658789949351269,0.8472419317921718,0.10907148851758564,0.26068513008316163
1658789949367269,0.8885023270008396,-0.05523765926604085,0.2965743495841915
1658789949383269,0.8756847486076147,-0.09564354924849328,0.3284351873044935
1658789949399269,0.8318608377203018,-0.04180971999694805,0.30682841229877145
1658789949415269,0.8333257038223847,-0.02679484245059882,0.2843671320668344
1658789949431268,0.8695811398489353,-0.017761501487754572,0.29706263828488577
1658789949447268,0.8748302433813988,-0.08856336308842616,0.33575951781490776
1658789949463268,0.8684824902723731,-0.1906157015335319,0.3767757686732285
1658789949479268,0.857129777981231,-0.16998550392919798,0.3964293888761734
1658789949495267,0.8792248416876483,-0.10077058060578326,0.3770199130235756
1658789949511267,0.8939955748836503,-0.1497215228503852,0.36639963378347407
1658789949527267,0.904615854123751,-0.24078736552986957,0.39423208972304913
1658789949543267,0.9101091020065617,-0.2746013580529487,0.43622491798275753
1658789949559267,0.8633554589150831,-0.24090943770504314,0.49152361333638517
1658789949575266,0.8300297550926983,-0.19269092851148262,0.48859388113221947
1658789949591278,0.8126955062180512,-0.24432745860990313,0.4724803540093081
1658789949607277,0.8336919203479054,-0.2932784008545051,0.48407721065079734
1658789949623277,0.8617685206378267,-0.31232166018158214,0.5219195849546043
1658789949639277,0.8446784161135268,-0.3648126955062181,0.5485313191424428
1658789949655277,0.8095216296635384,-0.3966735332265201,0.5287556267643243
1658789949671277,0.8034180209048598,-0.35077439536125743,0.5093461509117265
1658789949687276,0.8050049591821162,-0.2654459449149309,0.5547570000762949
1658789949703276,0.7847409781033035,-0.32928969253070894,0.5719691767757684
1658789949719276,0.7713130388342107,-0.37885099565117875,0.571236743724727
1658789949735276,0.7935301747158006,-0.33942168307011533,0.5425497825589378
1658789949751276,0.8197756923781183,-0.2976729991607536,0.52997634851606
1658789949767275,0.8323491264209961,-0.27240405889982444,0.53852140077821
1658789949783275,0.8074464026855876,-0.22565041580834677,0.5204547188525215
1658789949799275,0.8007324330510412,-0.270817120622568,0.5176470588235293
1658789949815275,0.825268940260929,-0.2599526970321202,0.5216754406042572
1658789949831275,0.8222171358815897,-0.21100175478751826,0.4950637064164187
1658789949847274,0.8264896620126647,-0.16339360646982515,0.48187991149767306
1658789949863274,0.8120851453421833,-0.17645532921339724,0.4545357442587932
1658789949879274,0.8054932478828105,-0.1380025940337224,0.42145418478675545
1658789949895274,0.8206301976043333,-0.0888075074387733,0.40631723506523265
1658789949911255,0.8168459601739526,-0.03790341039139378,0.41266498817425834
1658789949927254,0.8040283817807277,-0.025818265049210254,0.39618524452582626
1658789949943254,0.7956054016937513,-0.029846646829938095,0.3548027771419848
1658789949959254,0.8025635156786448,0.059754329747462975,0.29376668955519936
1658789949975254,0.824414435034714,0.0709849698634315,0.2885175860227358
1658789949991253,0.8097657740138855,0.08270389868009431,0.3170824750133514
1658789950007253,0.8075684748607612,0.1511863889524685,0.28925001907377723
1658789950023253,0.7705806057831692,0.13739223315785498,0.242374303807126
1658789950039253,0.7869382772564277,0.2150301365682461,0.1961089494163426
1658789950055253,0.8223392080567633,0.32660410467688994,0.21722743572137038
1658789950071252,0.7879148546578163,0.272526131074998,0.20758373388265827
1658789950087252,0.7810788128480963,0.19354543373769761,0.1919584954604412
1658789950103252,0.7771725032425421,0.2880292973220415,0.12982375829709358
1658789950119252,0.7702143892576485,0.44953078507667676,0.08245975432974717
1658789950135252,0.7677729457541771,0.47907225146868093,0.06622415503166224
1658789950151251,0.7855954833295185,0.44000915541313823,0.06317235065232296
1658789950167251,0.7902342259861141,0.3645685511558705,0.07354848554207649
1658789950183251,0.763256275272755,0.3921568627450984,0.07452506294346506
1658789950199251,0.7218738078889144,0.5722133211261156,0.006775005722133187
1658789950215251,0.6874494544899674,0.595407034409094,-0.04986648355840373
1658789950231262,0.7127183947508966,0.5968719005111769,-0.07843137254901977
1658789950247262,0.7295643549248494,0.611642633707179,-0.05767910276951227
1658789950263261,0.7028305485618374,0.6019989318684669,-0.06744487678339839
1658789950279261,0.6620584420538647,0.5687953002212556,-0.06927595941100195
1658789950295261,0.6330052643625548,0.6735332265201803,-0.1135881589990082
1658789950311261,0.6503395132372018,0.8222171358815897,-0.12347600518806745
1658789950327261,0.6515602349889376,0.8368657969024182,-0.13324177920195313
1658789950343260,0.6350804913405055,0.7221179522392616,-0.14581521324483093
1658789950359260,0.5951628900587469,0.6842755779354546,-0.16046387426565945
1658789950375260,0.580636301213092,0.8318608377203018,-0.16266117341878372
1658789950391260,0.5659876401922634,0.9085221637293053,-0.20099183642328544
1658789950407260,0.5675745784695199,0.8539559014267182,-0.2494544899671931
1658789950423259,0.5504844739452199,0.827832455939574,-0.2091706721599147
1658789950439259,0.5047074082551308,0.9270771343556881,-0.1837796597238115
1658789950455259,0.5099565117875944,0.9456321049820708,-0.2074616617074847
1658789950471259,0.5078812848096437,0.9068131532768753,-0.22906843671320676
1658789950487259,0.4845654993514916,0.8524910353246353,-0.2276035706111239
1658789950503258,0.44916456855115605,0.939040207522698,-0.22601663233386748
1658789950519258,0.4435492484931718,1.0253452353704127,-0.23443961242084388
1658789950535258,0.4320744640268561,1.0163118944075684,-0.2549477378500038
1658789950551269,0.41132219424734906,0.8364995803768975,-0.23199816891737246
1658789950567269,0.4208438239108876,0.8909437705043111,-0.18487830930037363
1658789950583269,0.3826352330815599,1.0550087739375904,-0.2167391470206761
1658789950599269,0.36359197375448193,1.0855268177309831,-0.273380636301213
1658789950615268,0.36517891203173836,0.9875028610666057,-0.3002365148393986
1658789950631268,0.40387579156176123,1.0829633020523382,-0.2612954909590295
1658789950647268,0.3909361409933627,1.1855039291981386,-0.23163195239185175
1658789950663268,0.3728694590676733,1.1997863736934464,-0.28033875028610655
1658789950679268,0.34467078660257844,1.096391241321431,-0.29584191653315006
1658789950695267,0.424139772640574,1.2063782711528193,-0.2633707179369802
1658789950711267,0.4455024032959489,1.3565270466163115,-0.2561684596017395
1658789950727267,0.3947203784237434,1.3671473258564122,-0.28070496681162727
1658789950743267,0.39337758449683413,1.2691233691920347,-0.27533379110399014
1658789950759266,0.4094911116197455,1.2521553368429084,-0.24078736552986957
1658789950775266,0.4005798428320748,1.3394369420920116,-0.23321889066910817
1658789950791266,0.37640955214770777,1.3116044861524374,-0.24139772640573742
1658789950807266,0.34259555962462773,1.1647516594186316,-0.2289463645380332
1658789950823266,0.3809262226291299,1.2216372930495156,-0.21600671396963467
1658789950839265,0.3881284809643706,1.262775616083009,-0.20880445563439398
1658789950855265,0.3650568398565648,1.2167544060425728,-0.1779201953154801
1658789950871246,0.37274738689249975,1.1709773403524837,-0.19244678416113548
1658789950887246,0.3892271305409327,1.108598458838788,-0.17779812314030652
1658789950903246,0.41547264820325047,1.1192187380788887,-0.16510261692225514
1658789950919245,0.41974517433432545,1.1055466544594488,-0.13482871747920955
1658789950935245,0.4090028229190512,1.0899214160372317,-0.13653772793163954
1658789950951245,0.4098573281452662,1.026688029297322,-0.1593652246890973
1658789950967245,0.4557564660105289,1.0562294956893261,-0.15423819333180733
1658789950983245,0.47687495231555665,1.059647516594186,-0.1581445029373616
1658789950999244,0.4564888990615703,0.9512474250400551,-0.13910124361028453
1658789951015244,0.4686961165789274,0.8789806973373011,-0.11798275730525676
1658789951031244,0.47528801403830023,0.8968032349126425,-0.1144426642252232
1658789951047244,0.48957045853360803,0.9290302891584652,-0.12225528343633174
1658789951063243,0.49921416037232014,0.9169451438162817,-0.11920347905699247
1658789951079243,0.501533531700618,0.8250247959105819,-0.1115129320210575
1658789951095243,0.5374227512016478,0.8039063096055541,-0.08819714656290545
1658789951111243,0.5608606088349735,0.7744869153887235,-0.041565575646600905
1658789951127243,0.5741664759288927,0.7699702449073014,-0.015442130159456724
1658789951143242,0.5717250324254213,0.7318837262531472,-0.015564202334630295
1658789951159242,0.5921110856794076,0.7318837262531472,-0.02679484245059882
1658789951175242,0.6577859159227897,0.8018310826276034,-0.041565575646600905
1658789951191253,0.670481422140841,0.7284657053482873,0.009460593575951748
1658789951207253,0.6852521553368431,0.6312962539101248,0.0680552376592658
1658789951223253,0.6791485465781646,0.5432822156099792,0.06036469062333083
1658789951239253,0.6874494544899674,0.5724574654764627,0.024841687647821686
1658789951255252,0.7385976958876936,0.6347142748149848,0.022400244144350268
1658789951271252,0.7335927367055772,0.6199435416189818,0.037659266041046635
1658789951287252,0.6812237735561153,0.44586861982146964,0.08477912565804502
1658789951303252,0.6840314335851074,0.3537041275654227,0.10431067368581637
1658789951319252,0.7111314564736402,0.4026550698100255,0.0747692072938122
1658789951335251,0.7324940871290151,0.4774853131914245,0.07708857862211005
1658789951351251,0.7833981841763942,0.4816357671473259,0.10406652933546923
1658789951367251,0.7776607919432363,0.35724422064545625,0.1372701609826814
1658789951383251,0.7775387197680628,0.20050354772259116,0.1642481116960406
1658789951399251,0.814160372320134,0.2410315098802167,0.17560082398718269
1658789951415250,0.8448004882887004,0.432684824902724,0.1532616159304192
1658789951431250,0.8361333638513768,0.31122301060502,0.1620508125429163
1658789951447250,0.827832455939574,0.09002822919050857,0.19806210421911974
1658789951463250,0.8354009308003354,0.006775005722133187,0.24005493247882814
1658789951479250,0.8300297550926983,0.16510261692225559,0.24213015945677885
1658789951495249,0.8301518272678718,0.24957656214236668,0.22333104448004892
1658789951511261,0.8391851682307161,0.17413595788509983,0.241519798580911
1658789951527260,0.8556649118791482,0.03204394598306237,0.2637369344625009
1658789951543260,0.8471198596169982,-0.011291676203555312,0.3203784237430378
1658789951559260,0.8548104066529332,0.013000686655985305,0.33917753871976775
1658789951575260,0.8529793240253296,-0.00579842832074462,0.3323414969100478
1658789951591260,0.8395513847562368,-0.02911421377889667,0.3217212176699471
1658789951607259,0.8369878690775918,-0.028503852903028815,0.33990997177080917
1658789951623259,0.8565194171053632,-0.053772793163958,0.3729915312428469
1658789951639259,0.8640878919661246,-0.10333409628442825,0.39496452277409055
1658789951655259,0.860547798886091,-0.17608911268787653,0.40119020370794267
1658789951671259,0.8610360875867853,-0.1870756084534979,0.4406195162890061
1658789951687258,0.8727550164034481,-0.14056610971236738,0.44867627985046177
1658789951703258,0.8782482642862597,-0.16351567864499872,0.4733348592355231
1658789951719258,0.8732433051041424,-0.2112458991378654,0.46894026092927454
1658789951735258,0.8454108491645682,-0.26446936751354233,0.4881055924315252
1658789951751258,0.8311284046692604,-0.2818036163881894,0.5056839856565194
1658789951767257,0.813305867093919,-0.2752117189288166,0.5443808651865414
1658789951783257,0.787426565957122,-0.30182345311665504,0.5120317387655451
1658789951799257,0.7896238651102463,-0.380193789578088,0.5249713893339436
1658789951815257,0.8108644235904476,-0.3361257343404289,0.5603723201342792
1658789951831237,0.8021972991531241,-0.36029602502479596,0.5728236820019834
1658789951847237,0.8023193713282977,-0.42584878309300356,0.5670862897688256
1658789951863237,0.802807660028992,-0.3915465018692301,0.5617151140611885
1658789951879237,0.8064698252841991,-0.33051041428244465,0.5399862668802928
1658789951895237,0.7979247730220491,-0.3125658045319297,0.5386434729533836
1658789951911236,0.7975585564965284,-0.3031662470435643,0.5363241016250857
1658789951927236,0.8003662165255205,-0.33978789959563604,0.5371786068513007
1658789951943236,0.8101319905394062,-0.34222934309910746,0.5219195849546043
1658789951959236,0.8155031662470433,-0.278507667658503,0.4837109941252766
1658789951975236,0.8065918974593727,-0.25299458304722666,0.4442816815442132
1658789951991235,0.7998779278248263,-0.21564049744411395,0.44367132066834536
1658789952007235,0.816723887998779,-0.1787747005416951,0.43402761882963325
1658789952023235,0.8271000228885326,-0.15667963683527875,0.45416952773327246
1658789952039235,0.8151369497215226,-0.13482871747920955,0.43732356755931967
1658789952055235,0.8095216296635384,-0.11712825207904176,0.40338750286106695
1658789952071234,0.8073243305104141,-0.009338521400778177,0.3414969100480656
1658789952087234,0.8498054474708168,0.0289921416037231,0.3259937438010221
1658789952103234,0.8300297550926983,0.04486152437628732,0.31854734111543426
1658789952119234,0.8159914549477376,0.06280613412680225,0.3289234760051878
1658789952135234,0.7860837720302127,0.13360799572747428,0.31061264972915215
1658789952151245,0.8078126192111084,0.19085984588387905,0.2540932326237888
1658789952167245,0.8195315480277712,0.18707560845349835,0.21368734264133682
1658789952183244,0.8113527122911419,0.2200350957503625,0.21661707484550252
1658789952199244,0.8003662165255205,0.27020675974670016,0.1990386816205083
1658789952215244,0.7753414206149385,0.2952315556572822,0.16070801861600703
1658789952231244,0.7906004425116349,0.2907148851758601,0.11407644769970204
1658789952247244,0.7984130617227434,0.3938658731975284,0.08221560997940003
1658789952263243,0.8314946211947811,0.5263141832608529,0.08282597085526788
1658789952279243,0.8238040741588462,0.4641794460975053,0.04840161745632088
1658789952295243,0.8074464026855876,0.4425726710917832,0.04486152437628732
1658789952311243,0.8313725490196076,0.6372777904936298,0.026062409399557396
1658789952327242,0.7912108033875027,0.5647669184405277,-0.004699778744182481
1658789952343242,0.7921873807888913,0.4204776073853669,-0.04962233920805659
1658789952359242,0.814160372320134,0.546211947814145,-0.06170748455024011
1658789952375242,0.7763179980163271,0.7283436331731137,-0.06671244373235696
1658789952391242,0.7464103150988022,0.6543678950179297,-0.07147325856412623
1658789952407241,0.7241931792172123,0.5512169069962614,-0.05267414358739586
1658789952423241,0.7299305714503701,0.5631799801632713,0.020691233691920274
1658789952439241,0.7050278477149616,0.6372777904936298,0.04071107042038591
1658789952455241,0.6508278019378961,0.7603265430685893,-0.017639429312581
1658789952471252,0.6066376745250626,0.7007553215838866,-0.06292820630197626
1658789952487252,0.6117647058823525,0.6295872434576948,-0.053040360112916574
1658789952503252,0.6366674296177619,0.7029526207370109,0.01483176928358887
1658789952519251,0.6154268711375597,0.7508049134050507,0.03826962691691449
1658789952535251,0.5507286182955671,0.7913328755626763,-0.04095521477073305
1658789952551251,0.566109712367437,0.6792706187533382,-0.08599984740978117
1658789952567251,0.5810025177386127,0.7808346684977492,-0.04461738002594018
1658789952583251,0.5748989089799341,0.8854505226215004,-0.023498893720912406
1658789952599250,0.5332722972457464,0.8623788815136946,-0.05914396887159512
1658789952615250,0.5188677805752651,0.7982909895475698,-0.11676203555352105
1658789952631250,0.5401083390554664,0.7757076371404592,-0.09515526054779899
1658789952647250,0.5255817502098115,0.8272220950637061,-0.07061875333791123
1658789952663250,0.4872510872053102,1.0028839551384756,-0.09820706492713827
1658789952679249,0.42487220569161543,0.9623559929808501,-0.1283588921950103
1658789952695249,0.4469672693980318,0.8491950865949489,-0.13177691309987027
1658789952711249,0.48151369497215235,0.9087663080796524,-0.09185931181811258
1658789952727249,0.45673304341191745,1.0468299382009612,-0.11944762340733961
1658789952743249,0.4501411459525446,1.0824750133516439,-0.14325169756618594
1658789952759248,0.43903257801174966,1.011306935225452,-0.1531395437552452
1658789952775248,0.4422064545662625,0.9705348287174793,-0.1328755626764324
1658789952791229,0.42987716487373184,1.0347447928587776,-0.10809491111619751
1658789952807229,0.4079041733424891,1.227496757457847,-0.15167467765316234
1658789952823228,0.38446631570916345,1.1864805065995272,-0.24835584039063097
1658789952839228,0.38532082093537845,1.1149462119478137,-0.23175402456702532
1658789952855228,0.39960326543068625,1.1739070725566494,-0.20379949645227757
1658789952871228,0.3833676661326013,1.259967956054017,-0.24835584039063097
1658789952887228,0.34845502403295914,1.1936827649347679,-0.277653162432288
1658789952903227,0.37238117036697904,1.1752498664835587,-0.28119325551232155
1658789952919227,0.4091248950942248,1.317952239261463,-0.22796978713664462
1658789952935227,0.3898374914168006,1.398764019226368,-0.23492790112153816
1658789952951227,0.3344167238879985,1.2596017395284962,-0.22198825055313964
1658789952967227,0.3778744182497906,1.244586861982147,-0.18976119630731692
1658789952983226,0.4170595864805069,1.388509956511788,-0.18011749446860437
1658789952999226,0.4098573281452662,1.3650720988784615,-0.1841458762493322
1658789953015226,0.39081406881818914,1.2796215762569618,-0.18048371099412508
1658789953031226,0.3712825207904169,1.229205767910277,-0.163149462119478
1658789953047226,0.4107118333714812,1.2864576180666818,-0.13482871747920955
1658789953063225,0.3883726253147177,1.2543526359960326,-0.11761654077973605
1658789953079225,0.3792172121766999,1.158648050659953,-0.08245975432974761
1658789953095225,0.3876401922636763,1.1436331731136038,-0.10174715800717182
1658789953111236,0.4165712977798126,1.2141908903639278,-0.10284580758373396
1658789953127236,0.4291447318226904,1.1665827420462351,-0.08514534218356618
1658789953143236,0.4409857328145268,1.0298619058518348,-0.07489127946898622
1658789953159236,0.44415960936903964,0.931349660486763,-0.05218585488670158
1658789953175235,0.4901808194094759,1.0268101014724955,-0.04583810177767589
1658789953191235,0.5031204699778744,1.137285420004578,-0.0791638056000612
1658789953207235,0.48822766460669875,1.0280308232242312,-0.07147325856412623
1658789953223235,0.5130083161669337,0.8424811169604025,-0.027527275501640247
1658789953239235,0.5319295033188371,0.753002212558175,0.022278171969176697
1658789953255234,0.5537804226749063,0.8324711985961697,0.03973449301899734
1658789953271234,0.5501182574196992,0.9021744106202796,0.010193026626993174
1658789953287234,0.5360799572747386,0.7464103150988022,0.007263294422827471
1658789953303234,0.567818722819867,0.6564431219958804,0.01361104753185316
1658789953319234,0.6045624475471119,0.7229724574654766,0.03826962691691449
1658789953335233,0.6140840772106504,0.6391088731212333,0.07428091859311792
1658789953351233,0.5989471274891276,0.5807583733882655,0.1041886015106428
1658789953367233,0.5836881055924312,0.5373006790264743,0.11969176775768631
1658789953383233,0.6134737163347825,0.4822461280231938,0.11700617990386775
1658789953399232,0.6641336690318154,0.5093461509117265,0.10260166323338638
1658789953415232,0.7013656824597545,0.4784618905928131,0.10785076676584993
1658789953431244,0.6898908979934388,0.3745784695201033,0.17401388570992626
1658789953447243,0.7033188372625316,0.27826352330815585,0.1906157015335319
1658789953463243,0.7016098268101016,0.23370717936980245,0.18451209277485336
1658789953479243,0.7310292210269322,0.25262836652170595,0.1734035248340584
1658789953495243,0.7827878233005263,0.3058518348973829,0.2284580758373389
1658789953511242,0.7691157396810864,0.23797970550087744,0.2510414282444495
1658789953527242,0.7294422827496758,0.07367055771725006,0.23797970550087744
1658789953543242,0.756420233463035,-0.023132677195391693,0.2600747692072938
1658789953559242,0.8234378576333254,0.13665980010681356,0.26520180056458376
1658789953575242,0.8419928282597082,0.23065537499046318,0.278507667658503
1658789953591241,0.8148928053711755,0.07220569161516721,0.25519188220035094
1658789953607241,0.8034180209048598,-0.13739223315785454,0.2859540703440908
1658789953623241,0.8301518272678718,-0.006286717021438903,0.3205004959182114
1658789953639241,0.8758068207827883,0.15301747158007206,0.3082932784008543
1658789953655241,0.8646982528419924,0.07318226901655578,0.3183031967650871
1658789953671240,0.8572518501564046,-0.05389486533913157,0.2902265964751658
1658789953687240,0.8788586251621275,-0.14459449149309522,0.3233081559472035
1658789953703240,0.9141374837872895,-0.0319218738078888,0.35773250934615053
1658789953719240,0.8993667505912875,0.03070115205615309,0.3595635919737541
1658789953735240,0.8855725947966739,-0.10821698329137108,0.3783627069504849
1658789953751220,0.8777599755855654,-0.14068818188754095,0.39069199664301557
1658789953767220,0.862256809338521,-0.10846112764171822,0.38483253223468417
1658789953783220,0.8516365300984203,-0.23212024109254603,0.3993591210803391
1658789953799220,0.8797131303883425,-0.26935225452048517,0.4140077821011676
1658789953815220,0.8760509651331354,-0.23785763332570387,0.4282902265964754
1658789953831219,0.8522468909742882,-0.22772564278629748,0.4586861982146946
1658789953847219,0.8350347142748147,-0.2633707179369802,0.5050736247806515
1658789953863219,0.8148928053711755,-0.26569008926527804,0.5332722972457464
1658789953879219,0.8015869382772562,-0.31915770199130256,0.5506065461203935
1658789953895218,0.8101319905394062,-0.3610284580758374,0.52997634851606
1658789953911218,0.8340581368734261,-0.38226901655603873,0.5072709239337758
1658789953927218,0.8609140154116117,-0.4025329976348515,0.4967727168688487
1658789953943218,0.8573739223315782,-0.39777218280308224,0.5009231708247501
1658789953959218,0.8316166933699547,-0.34064240482185104,0.5031204699778744
1658789953975217,0.8214847028305483,-0.281071183337148,0.49494163424124515
1658789953991217,0.8324711985961697,-0.29291218432898436,0.4707713435568781
1658789954007217,0.8429694056610968,-0.3261158159761961,0.44196231021591537
1658789954023217,0.851148241397726,-0.3081712062256807,0.4271915770199133
1658789954039217,0.8378423743038068,-0.2540932326237888,0.42194247348744973
1658789954055216,0.8327153429465168,-0.22479591058213177,0.4124208438239112
1658789954071228,0.8440680552376589,-0.22320897230487535,0.38825055313954415
1658789954087227,0.8465094987411304,-0.18353551537346435,0.35211718928816627
1658789954103227,0.8610360875867853,-0.10357824063477539,0.3511406118867777
1658789954119227,0.8544441901274125,-0.0963759822995347,0.36945143816281334
1658789954135227,0.8330815594720375,-0.07721065079728406,0.34711223010604986
1658789954151227,0.8305180437933926,-0.07342641336690336,0.2985275043869686
1658789954167226,0.8307621881437397,-0.05523765926604085,0.3081712062256807
1658789954183226,0.8238040741588462,0.06488136110475295,0.28497749294270225
1658789954199226,0.802807660028992,0.13751430533302855,0.24420538643472955
1658789954215226,0.8032959487296862,0.08392462043183002,0.21173418783855968
1658789954231226,0.8194094758525976,0.0995498588540471,0.19842832074464045
1658789954247225,0.8421149004348818,0.1893949797817962,0.21734950789654395
1658789954263225,0.8159914549477376,0.25348287174792095,0.19598687724116903
1658789954279225,0.7919432364385441,0.24029907682917528,0.1486228732738235
1658789954295225,0.7996337834744791,0.2121004043640804,0.1205462729839013
1658789954311225,0.8042725261310748,0.35053025101090984,0.10589761196307279
1658789954327224,0.7853513389791713,0.3495536736095213,0.10870527199206492
1658789954343224,0.7687495231555657,0.34589150835431415,0.09185931181811213
1658789954359224,0.7466544594491493,0.32404058899824495,0.039002059967955915
1658789954375224,0.7362783245593958,0.3938658731975284,0.027527275501640247
1658789954391235,0.7368886854352636,0.5088578622110322,0.03326466773479808
1658789954407235,0.7127183947508966,0.6023651483939876,0.027405203326466676
1658789954423235,0.6966048676279852,0.5790493629358355,-0.01239032578011745
1658789954439234,0.689280537117571,0.4745555809872588,-0.018127718013275285
1658789954455234,0.6999008163576717,0.5518272678721292,-0.005188067444876765
1658789954471234,0.696971084153506,0.6301976043335626,-0.021789883268482413
1658789954487234,0.6785381857022967,0.6452124818799119,-0.054383154039825854
1658789954503234,0.6502174410620283,0.6830548561837189,-0.10272373540856039
1658789954519233,0.6305638208590834,0.7570305943389029,-0.0955214770733197
1658789954535233,0.6215304798962382,0.8395513847562368,-0.10064850843060968
1658789954551233,0.6072480354009304,0.7260242618448158,-0.06463721675440626
1658789954567233,0.6220187685969325,0.6942854962996874,-0.07464713511863907
1658789954583233,0.5574425879301135,0.7737544823376821,-0.12603952086671244
1658789954599232,0.5272907606622415,0.7952391851682306,-0.16168459601739515
1658789954615232,0.5358358129243914,0.9232928969253074,-0.18597695887693577
1658789954631232,0.5054398413061723,0.8887464713511868,-0.19012741283283763
1658789954647232,0.4699168383306631,0.7532463569085222,-0.13910124361028453
1658789954663231,0.44403753719386607,0.8861829556725418,-0.16461432822156086
1658789954679231,0.42145418478675545,0.9489280537117573,-0.19720759899290474
1658789954695231,0.44757763027389963,0.9446555275806823,-0.22955672541390104
1658789954711212,0.44745555809872606,0.9190203707942324,-0.22406347753109035
1658789954727212,0.4254825665674833,0.9374532692454416,-0.19745174334325188
1658789954743211,0.41217669947356406,0.9969024185549706,-0.22320897230487535
1658789954759211,0.3855649652857256,0.9688258182650493,-0.23956664377813386
1658789954775211,0.3778744182497906,1.0686808575570304,-0.20477607385366614
1658789954791211,0.3759212634470135,1.144121461814298,-0.19977111467154973
1658789954807211,0.3585870145723655,1.0943160143434802,-0.237247272449836
1658789954823210,0.3262378881513692,1.089555199511711,-0.27106126497291516
1658789954839210,0.3125658045319293,1.1675593194476237,-0.271671625848783
1658789954855210,0.36176089112687837,1.289509422446021,-0.28827344167238866
1658789954871210,0.33881132219424703,1.3058670939192796,-0.306950484473945
1658789954887210,0.3145189593347064,1.1488822766460673,-0.2893720912489508
1658789954903209,0.3363698786907756,1.2749828336003661,-0.2625162127107652
1658789954919209,0.3743343251697562,1.432578011749447,-0.275089646753643
1658789954935209,0.3624933241779198,1.4461280231937135,-0.2713054093232623
1658789954951209,0.3145189593347064,1.290363927672236,-0.2721599145494773
1658789954967208,0.34381628137636344,1.3024490730144196,-0.25214007782101167
1658789954983208,0.3737239642938883,1.478110933089189,-0.25470359349965666
1658789954999208,0.3495536736095213,1.4429541466392006,-0.26361486228732733
1658789955015208,0.3384451056687263,1.2676585030899519,-0.26019684138246735
1658789955031219,0.34845502403295914,1.2589913786526283,-0.20550850690470757
1658789955047219,0.3457694361791406,1.3389486533913173,-0.20514229037918685
1658789955063219,0.32281986724650924,1.2816968032349125,-0.18133821622034008
1658789955079218,0.31891355764095497,1.1587701228351266,-0.1774319066147858
1658789955095218,0.33160906385900635,1.1371633478294045,-0.17633325703822367
1658789955111218,0.35309376668955483,1.2045471885252157,-0.1724269474326694
1658789955127218,0.3423514152742806,1.1790341039139394,-0.15887693598840302
1658789955143218,0.3444266422522313,1.0738078889143203,-0.1412985427634088
1658789955159217,0.36981765468833405,0.99140917067216,-0.12018005645838103
1658789955175217,0.41547264820325047,1.038895246814679,-0.1182269016556039
1658789955191217,0.4606393530174717,1.0446326390478369,-0.10650797283894109
1658789955207217,0.4627145799954224,0.9578393224994279,-0.08734264133669045
1658789955223217,0.4829785610742352,0.872510872053101,-0.06744487678339839
1658789955239216,0.5061722743572137,0.909742885481041,-0.05780117494468584
1658789955255216,0.4881055924315252,0.8887464713511868,-0.06878767071030767
1658789955271216,0.5112993057145037,0.8074464026855876,-0.07562371252002764
1658789955287216,0.5300984206912336,0.758129243915465,-0.06195162890058725
1658789955303216,0.5617151140611885,0.7208972304875259,-0.049500267032883016
1658789955319215,0.6012664988174254,0.7139391165026323,-0.049134050507362304
1658789955335215,0.5846646829938198,0.6869611657892731,-0.03680476081483164
1658789955351226,0.5882047760738534,0.6663309681849396,-0.0036011291676203427
1658789955367226,0.6204318303196761,0.6049286640726326,0.01739528496223386
1658789955383226,0.6493629358358133,0.5784390020599677,0.034851606012054503
1658789955399226,0.6648661020828568,0.5885709925993741,0.028137636377508102
1658789955415226,0.660837720302129,0.4901808194094759,0.015808346684977437
1658789955431225,0.7223620965896087,0.46466773479819956,0.024841687647821686
1658789955447225,0.7457999542229343,0.4750438696879531,0.06561379415579438
1658789955463225,0.7299305714503701,0.43231860837720326,0.09478904402227784
1658789955479225,0.7099107347219045,0.38410009918364274,0.1062638284885935
1658789955495225,0.730540932326238,0.3191577019913021,0.08563363088426001
1658789955511224,0.7915770199130234,0.31061264972915215,0.10687418936446136
1658789955527224,0.8550545510032803,0.35883115892271267,0.1520408941786835
1658789955543224,0.8065918974593727,0.25091935606927596,0.1734035248340584
1658789955559224,0.7403067063401236,0.12628366521706003,0.19598687724116903
1658789955575224,0.7371328297856108,0.1608300907911806,0.17169451438162842
1658789955591223,0.789135576409552,0.2343175402456703,0.13641565575646641
1658789955607223,0.8375982299534597,0.12396429388876129,0.13617151140611927
1658789955623223,0.8573739223315782,-0.009216449225604606,0.21356527046616325
1658789955639223,0.869092851148241,0.013244831006332447,0.24884412909132525
1658789955655223,0.8302738994430454,0.007873655298695326,0.24164187075608456
1658789955671203,0.8349126420996411,-0.012146181429770309,0.23834592202639815
1658789955687203,0.8917982757305261,-0.019348439765010994,0.2465247577630274
1658789955703203,0.8853284504463268,-0.08709849698634331,0.2721599145494773
1658789955719203,0.8872816052491039,-0.21490806439307253,0.29217975127794293
1658789955735202,0.8693369954985881,-0.23260852979324032,0.3397878995956356
1658789955751202,0.8769054703593504,-0.08624399176012831,0.3241626611734185
1658789955767202,0.880445563439384,-0.10931563286793322,0.3250171663996335
1658789955783202,0.9041275654230567,-0.21258869306477468,0.36774242771038335
1658789955799202,0.918287937743191,-0.30426489662012646,0.41181048294804334
1658789955815201,0.9175555046921495,-0.3403982604715039,0.4270695048447397
1658789955831201,0.8832532234683761,-0.33344014648661036,0.4221866178377969
1658789955847201,0.8524910353246353,-0.30719462882429216,0.40717174029144765
1658789955863201,0.8306401159685661,-0.31024643320363143,0.40375371938658766
1658789955879201,0.8208743419546805,-0.3484550240329596,0.43146410315098827
1658789955895200,0.8223392080567633,-0.3999694819562065,0.4447699702449075
1658789955911200,0.8262455176623176,-0.44831006332494105,0.424994277866789
1658789955927200,0.8288090333409626,-0.4245059891660943,0.3926451514457927
1658789955943200,0.8236820019836726,-0.3600518806744488,0.3676203555352098
1658789955959200,0.851148241397726,-0.3253833829251547,0.37689784084840205
1658789955975199,0.8694590676737617,-0.32721446555275824,0.38568703746089916
1658789955991211,0.8657969024185546,-0.34857709620813315,0.38031586175326204
1658789956007210,0.8582284275577932,-0.3428397039749753,0.3602960250247955
1658789956023210,0.859693293659876,-0.28082703898680084,0.3255054551003278
1658789956039210,0.8584725719081403,-0.270817120622568,0.3082932784008543
1658789956055210,0.8560311284046689,-0.22943465323872747,0.30926985580224287
1658789956071210,0.8455329213397418,-0.15497062638284875,0.3024338139925229
1658789956087209,0.8231937132829783,-0.07428091859311836,0.275944151979858
1658789956103209,0.8480964370183868,-0.060852979324025114,0.2578774700541695
1658789956119209,0.8457770656900889,-0.03448538948653379,0.24786755168993668
1658789956135209,0.857129777981231,0.04058899824521234,0.26105134660868234
1658789956151209,0.8339360646982525,0.07379262989242363,0.23175402456702532
1658789956167208,0.8222171358815897,0.10455481803616351,0.17938506141756339
1658789956183208,0.8230716411078047,0.17022964827954556,0.14850080109864994
1658789956199208,0.8187991149767297,0.32111085679407925,0.13458457312886285
1658789956215208,0.826123445487144,0.25641260395208665,0.14605935759517852
1658789956231207,0.8052491035324634,0.19256885633630905,0.10589761196307279
1658789956247207,0.7965819790951398,0.19427786678873904,0.09100480659189714
1658789956263207,0.7685053788052185,0.32269779507133567,0.0869764248111693
1658789956279207,0.7544670786602579,0.4758983749141681,0.07574578469520077
1658789956295207,0.7558098725871671,0.5077592126344701,0.052918287937743
1658789956311218,0.7711909666590371,0.3964293888761734,0.03729304951552592
1658789956327218,0.7772945754177156,0.35382619974059626,0.04583810177767589
1658789956343217,0.7670405127031357,0.5300984206912336,0.025940337224383825
1658789956359217,0.7359121080338751,0.6182345311665518,-0.007629510948348184
1658789956375217,0.7307850766765851,0.5622034027618827,-0.0838025482566569
1658789956391217,0.7508049134050507,0.5232623788815136,-0.08917372396429402
1658789956407217,0.7268787670710308,0.5900358587014569,-0.0707408255130848
1658789956423216,0.714305333028153,0.7382314793621729,-0.07013046463721695
1658789956439216,0.688426031891356,0.7149156939040209,-0.12323186083772031
1658789956455216,0.6813458457312889,0.578927290760662,-0.14837872892347592
1658789956471216,0.6923323414969103,0.726268406195163,-0.10711833371480894
1658789956487216,0.6549782558937975,0.789135576409552,-0.11383230334935535
1658789956503215,0.6300755321583891,0.7368886854352636,-0.16839856565194156
1658789956519215,0.6038300144960704,0.7498283360036622,-0.21051346608682397
1658789956535215,0.5766079194323641,0.7761959258411535,-0.15948729686427088
1658789956551215,0.5642786297398334,0.8563973449301896,-0.16791027695124727
1658789956567215,0.5217975127794308,0.8524910353246353,-0.21844815747310609
1658789956583214,0.5298542763408864,0.7580071717402914,-0.23529411764705888
1658789956599214,0.5642786297398334,0.7821774624246585,-0.18023956664377794
1658789956615214,0.5304646372167543,0.8924086366063939,-0.1741359578850994
1658789956631195,0.49420920119020373,0.9365987640192266,-0.20794995040817899
1658789956647194,0.46979476615548954,0.8559090562294953,-0.20587472343022828
1658789956663194,0.4871290150301366,0.8634775310902567,-0.15045395590142663
1658789956679194,0.46967269398031597,1.0065461203936827,-0.17682154573891795
1658789956695194,0.44403753719386607,0.9973907072556649,-0.22955672541390104
1658789956711194,0.45172808422980104,0.9380636301213094,-0.24676890211337454
1658789956727193,0.44208438239108894,0.987136644541085,-0.21820401312275894
1658789956743193,0.42401770046540044,1.075028610666056,-0.25555809872587165
1658789956759193,0.429266803997864,1.1366750591287103,-0.2931563286793315
1658789956775193,0.4174258030060276,1.1227588311589223,-0.27655451285572585
1658789956791193,0.4461127641718168,1.2312809948882277,-0.2650797283894102
1658789956807192,0.4464789806973375,1.2915846494239718,-0.2612954909590295
1658789956823192,0.43573662928206325,1.2259098191805906,-0.2549477378500038
1658789956839192,0.4623483634699017,1.2547188525215534,-0.25177386129549095
1658789956855192,0.497261005569543,1.3788662546730759,-0.26349279011215376
1658789956871192,0.49665064469367515,1.4335545891508357,-0.2976729991607536
1658789956887191,0.4896925307087816,1.3354085603112837,-0.29510948348210864
1658789956903191,0.46210421911955457,1.253376058594644,-0.2730144197756923
1658789956919191,0.4522163729304953,1.3175860227359424,-0.2587319752803845
1658789956935191,0.4287785152971697,1.3389486533913173,-0.23504997329671173
1658789956951202,0.4169375143053333,1.2985427634088653,-0.22870222018768604
1658789956967202,0.41852445258258975,1.1613336385137716,-0.21405355916685753
1658789956983202,0.4363469901579311,1.17427328908217,-0.17547875181200867
1658789956999201,0.4262149996185247,1.2267643244068056,-0.17901884489204223
1658789957015201,0.42267490653849116,1.1969787136644543,-0.17682154573891795
1658789957031201,0.44110780498970037,1.0965133134966045,-0.15619134813458446
1658789957047201,0.47809567406729236,1.1159227893492023,-0.12884718089570457
1658789957063201,0.49835965514610514,1.0956588082703895,-0.10931563286793322
1658789957079200,0.48700694285496304,1.0291294728007934,-0.09381246662088971
1658789957095200,0.5010452429999237,0.9521019302662701,-0.07013046463721695
1658789957111200,0.5319295033188371,0.9976348516060121,-0.0762340733958955
1658789957127200,0.5501182574196992,1.0072785534447242,-0.07660028992141621
1658789957143200,0.5868619821469441,0.9386739909971773,-0.059876401922636546
1658789957159199,0.591989013504234,0.8551766231784539,-0.050476844434271584
1658789957175199,0.5694056610971234,0.816723887998779,-0.032288090333409514
1658789957191199,0.6204318303196761,0.8052491035324634,-0.052918287937743
1658789957207199,0.6024872205691612,0.7746089875638971,-0.07855344472419334
1658789957223199,0.5913786526283662,0.652292668039979,-0.05889982452124798
1658789957239198,0.6032196536202026,0.6275120164797441,-0.012756542305638163
1658789957255198,0.6405737392233162,0.7150377660791944,-0.02252231631952384
1658789957271209,0.6089570458533604,0.5783169298847941,-0.03216601815823594
1658789957287209,0.6516823071641111,0.3977721828030827,0.02130159456778813
1658789957303209,0.6928206301976045,0.4291447318226904,0.06793316548409223
1658789957319209,0.6757305256733046,0.4824902723735409,0.07281605249103507
1658789957335209,0.682444495307851,0.4776073853665981,0.06353856717784367
1658789957351208,0.6880598153658353,0.36444647898069693,0.06768902113374509
1658789957367208,0.7163805600061037,0.1943999389639126,0.10955977721827992
1658789957383208,0.7742427710383764,0.1524071107042042,0.1604638742656599
1658789957399208,0.815869382772564,0.2737468528267337,0.18402380407415908
1658789957415207,0.7864499885557334,0.3213550011444264,0.1474021515220878
1658789957431207,0.7532463569085222,0.15228503852903064,0.15350576028076635
1658789957447207,0.7559319447623407,0.0974746318760964,0.1906157015335319
1658789957463207,0.7967040512703134,0.13885709925993783,0.2213778896772718
1658789957479207,0.8107423514152741,0.019836728465705278,0.24225223163195242
1658789957495206,0.822705424582284,-0.04571602960250232,0.22540627145799963
1658789957511206,0.8241702906843669,-0.06439307240405912,0.20001525902189687
1658789957527206,0.831250476844434,-0.016784924086366004,0.23199816891737246
1658789957543206,0.8611581597619589,0.05108720531013944,0.2666666666666666
1658789957559206,0.8592050049591817,-0.059632257572289404,0.27106126497291516
1658789957575205,0.8666514076447696,-0.24225223163195242,0.2948653391317615
1658789957591186,0.9008316166933703,-0.23504997329671173,0.32281986724650924
1658789957607186,0.9258564126039524,-0.12677195391775387,0.3361257343404285
1658789957623186,0.9070572976272224,-0.15655756466010518,0.34796673533226485
1658789957639186,0.883863584344244,-0.2238193331807432,0.3602960250247955
1658789957655185,0.9035172045471889,-0.2813153276874951,0.3960631723506527
1658789957671185,0.9102311741817353,-0.281925688563363,0.424994277866789
1658789957687185,0.8946059357595182,-0.2886396581979094,0.420721751735714
1658789957703185,0.8612802319371324,-0.33087663080796537,0.41437399862668833
1658789957719185,0.8290531776913097,-0.34393835355153746,0.4220645456626233
1658789957735184,0.8177004654001676,-0.31573968108644257,0.42475013351644186
1658789957751184,0.8013427939269091,-0.34442664225223174,0.4204776073853669
1658789957767184,0.7907225146868084,-0.3978942549782558,0.39716182192721483
1658789957783184,0.8126955062180512,-0.4303654535744257,0.37274738689249975
1658789957799183,0.8527351796749825,-0.3580987258716717,0.3574883649958034
1658789957815183,0.8667734798199431,-0.3010910200656136,0.3392996108949413
1658789957831183,0.866529335469596,-0.31451895933470686,0.33966582742046203
1658789957847183,0.8655527580682074,-0.305241474021515,0.3540703440909434
1658789957863183,0.876173037308309,-0.24921034561684596,0.3402761882963299
1658789957879182,0.8869153887235832,-0.25897611963073164,0.31317616540779714
1658789957895182,0.878736552986954,-0.2171053635461968,0.2923018234531165
1658789957911193,0.863965819790951,-0.11456473640039677,0.2687418936446173
1658789957927193,0.8437018387121382,-0.09759670405127041,0.25555809872587165
1658789957943193,0.836377508201724,-0.09185931181811258,0.2603189135576409
1658789957959193,0.8444342717631796,0.003112840466926059,0.22223239490348679
1658789957975193,0.8493171587701225,0.04962233920805659,0.17108415350576056
1658789957991192,0.8642099641412981,0.08050659952697004,0.15423819333180777
1658789958007192,0.8635996032654303,0.202822919050889,0.169253070878157
1658789958023192,0.857984283207446,0.1738918135347527,0.1499656672007328
1658789958039192,0.8480964370183868,0.11102464332036277,0.14898908979934422
1658789958055192,0.8306401159685661,0.20123598077363258,0.11590753032730561
1658789958071191,0.8385748073548482,0.30841535057602787,0.10174715800717138
1658789958087191,0.8023193713282977,0.29925993743801005,0.08807507438773143
1658789958103191,0.7688715953307392,0.34418249790188415,0.04461738002594018
1658789958119191,0.7700923170824749,0.3926451514457927,0.023010605020218122
1658789958135191,0.7766842145418478,0.3115892271305407,0.040222781719691625
1658789958151190,0.7715571831845578,0.3859311818112463,0.061097123674372256
1658789958167190,0.75214770733196,0.44916456855115605,0.009338521400778177
1658789958183190,0.7216296635385673,0.46845197222858026,-0.038879987792782345
1658789958199190,0.7479972533760586,0.5116655222400244,-0.023376821545738835
1658789958215190,0.7300526436255437,0.6273899443045705,-0.02020294499122599
1658789958231201,0.6945296406500345,0.504951552605478,-0.02789349202716096
1658789958247201,0.6900129701686124,0.4821240558480202,-0.07855344472419334
1658789958263200,0.6782940413519496,0.5673304341191727,-0.08514534218356618
1658789958279200,0.6483863584344247,0.7042954146639202,-0.12274357213702602
1658789958295200,0.6009002822919047,0.7353017471580072,-0.13018997482261385
1658789958311200,0.6000457770656897,0.7005111772335395,-0.16717784390020585
1658789958327200,0.6032196536202026,0.581490806439307,-0.16412603952086657
1658789958343199,0.5967498283360033,0.6592507820248725,-0.13775844968337525
1658789958359199,0.5619592584115356,0.8281986724650947,-0.16253910124361015
1658789958375199,0.5330281528953993,0.8333257038223847,-0.24249637598229956
1658789958391199,0.5254596780346379,0.7777828641184099,-0.2680094605935759
1658789958407199,0.5546349279011213,0.8598153658350496,-0.21222247653925397
1658789958423198,0.5180132753490501,0.8924086366063939,-0.18475623712520006
1658789958439198,0.5217975127794308,0.9202410925459681,-0.21930266269932108
1658789958455198,0.5180132753490501,0.8942397192339975,-0.29547570000762935
1658789958471198,0.5086137178606851,0.8842298008697647,-0.2918135347524222
1658789958487198,0.4664988174258031,0.9981231403067063,-0.2860761425192644
1658789958503197,0.4296330205233847,1.0720988784618903,-0.3037766079194322
1658789958519197,0.3955748836499584,1.0055695429922942,-0.34943160143434815
1658789958535197,0.3884946974898913,0.9423361562523844,-0.32587167162584896
1658789958551178,0.3934996566720077,1.0442664225223162,-0.3159838254367897
1658789958567177,0.3671320668345155,1.1249561303120466,-0.3371023117418175
1658789958583177,0.3700617990386812,1.183672846570535,-0.3883726253147173
1658789958599177,0.3936217288471813,1.1184863050278473,-0.3787289234760052
1658789958615177,0.45831998168917387,1.2419012741283284,-0.3589532310978867
1658789958631177,0.47138170443274596,1.2846265354390782,-0.36408026245517666
1658789958647176,0.4401312275883118,1.2177309834439614,-0.36749828336003665
1658789958663176,0.393987945372702,1.257648584725719,-0.36786449988555736
1658789958679176,0.3910582131685363,1.36604867627985,-0.3711604486152438
1658789958695176,0.40509651331349694,1.393636987869078,-0.3476005188067446
1658789958711176,0.4032654306858934,1.2787670710307468,-0.3087815671015486
1658789958727175,0.4094911116197455,1.2549629968719005,-0.2936446173800258
1658789958743175,0.39716182192721483,1.2880445563439382,-0.2697184710460059
1658789958759175,0.4015564202334634,1.3061112382696267,-0.2595864805065995
1658789958775175,0.3612726024261841,1.1815976195925844,-0.22662699320973534
