Timestamp (microseconds),Gyro X (°/s),Gyro Y (°/s),Gyro Z (°/s)
1658789930845520,2.04470893415737,-0.5798428320745188,0.8850232700083325
1658789930861517,1.5564202334630863,0.15259021896690683,1.0070954451819034
1658789930877514,1.6174563210497581,-0.213626306553806,1.4953841458761872
1658789930893512,2.227817196917613,-0.5798428320745188,1.8005645838102282
1658789930909509,2.8992141603723667,-0.09155413138023505,1.8616006713969
1658789930925507,3.5095750362402214,-0.09155413138023505,1.8005645838102282
1658789930941504,2.166781109330941,-0.5798428320745188,1.983672846570471
1658789930957502,1.8005645838102282,-0.6408789196611906,2.3498893720911838
1658789930973499,1.0681315327688026,-0.45777065690094787,2.105745021744042
1658789930989496,-0.45777065690094787,-0.09155413138023505,1.8616006713969
1658789931005494,-1.0070954451819034,-0.45777065690094787,2.166781109330941
1658789931021491,-1.0070954451819034,-0.6408789196611906,1.739528496223329
1658789931037489,-1.6784924086366573,-0.9460593575952316,1.1902037079423735
1658789931053486,-1.1902037079423735,-1.5564202334630863,1.0070954451819034
1658789931069483,-0.45777065690094787,-2.105745021744042,0.5798428320745188
1658789931085481,-1.9226367589837992,-2.5940337224383256,0.3967345693140487
1658789931101478,-3.875791561760934,-2.5940337224383256,0.8239871824216607
1658789931117476,-5.2185854886702145,-2.5940337224383256,0.9460593575952316
1658789931133473,-7.598992904554734,-3.4485389486533222,1.2512397955290453
1658789931149470,-11.688410772869474,-6.317235065232353,1.3122758831159445
1658789931165466,-9.918364232852582,-6.256198977645454,1.6784924086366573
1658789931181463,-4.486152437628789,-4.791332875562603,2.4719615472647547
1658789931197461,1.1291676203554744,-3.814755474174035,2.7161058976118966
1658789931213458,4.058899824521177,-2.532997634851654,2.227817196917613
1658789931229456,4.9134050507361735,-1.4953841458761872,1.6784924086366573
1658789931245453,6.073090714885211,-1.2512397955290453,1.8616006713969
1658789931261450,6.927595941100208,-2.105745021744042,2.288853284504512
1658789931277448,7.476920729381163,-2.5940337224383256,1.8005645838102282
1658789931293445,6.439307240405924,-1.8616006713969,1.5564202334630863
1658789931309443,2.9602502479590385,-2.532997634851654,2.8381780727854675
1658789931325440,-1.739528496223329,-2.7771419851987957,3.2043945983061803
1658789931341437,-4.974441138323073,-1.8616006713969,2.7771419851987957
1658789931357435,-5.889982452124741,-1.4953841458761872,3.0823224231326094
1658789931373432,-5.523765926604028,-2.3498893720911838,3.2654306858930795
1658789931389430,-4.730296787975931,-1.6174563210497581,2.3498893720911838
1658789931405427,-1.739528496223329,-0.5188067444876197,1.3733119707026162
1658789931421424,2.8992141603723667,-1.1291676203554744,0.6408789196611906
1658789931437422,6.744487678339738,-2.166781109330941,0.6408789196611906
1658789931453419,7.476920729381163,-1.8616006713969,0.09155413138023505
1658789931469417,4.852368963149502,-1.1291676203554744,-0.7629510948347615
1658789931485382,2.4719615472647547,-1.1291676203554744,-0.5798428320745188
1658789931501379,2.166781109330941,-1.5564202334630863,-0.15259021896690683
1658789931517377,-0.15259021896690683,-0.9460593575952316,0.45777065690094787
1658789931533374,-3.3264667734797513,-0.09155413138023505,0.5798428320745188
1658789931549371,-3.0212863355459376,0.7629510948347615,0.45777065690094787
1658789931565369,0.03051804379333589,0.45777065690094787,0.3967345693140487
1658789931581366,0.9460593575952316,-0.15259021896690683,-0.213626306553806
1658789931597364,-0.8850232700083325,0.03051804379333589,-0.7629510948347615
1658789931613361,-0.7019150072480898,0.2746623941404778,-1.1291676203554744
1658789931629358,3.1433585107195086,0.5188067444876197,-1.3122758831159445
1658789931645356,5.279621576256886,-0.213626306553806,-1.3733119707026162
1658789931661353,3.0212863355459376,-1.4343480582895154,-2.166781109330941
1658789931677351,-0.45777065690094787,-0.7629510948347615,-1.983672846570471
1658789931693348,-0.2746623941404778,0.33569848172737693,-1.1902037079423735
1658789931709345,1.0070954451819034,0.15259021896690683,-0.9460593575952316
1658789931725343,1.0070954451819034,-0.09155413138023505,-1.1902037079423735
1658789931741340,-1.1902037079423735,0.213626306553806,-1.0681315327688026
1658789931757338,-2.105745021744042,0.33569848172737693,-1.1902037079423735
1658789931773335,-0.3967345693140487,0.33569848172737693,-0.8239871824216607
1658789931789332,2.410925459678083,0.5798428320745188,-0.8850232700083325
1658789931805175,2.655069810025225,0.2746623941404778,-1.2512397955290453
1658789931821172,2.5940337224383256,0.5798428320745188,-0.7629510948347615
1658789931837168,0.7629510948347615,0.33569848172737693,-0.03051804379333589
1658789931853165,0.03051804379333589,1.4953841458761872,-0.15259021896690683
1658789931869161,1.1902037079423735,1.4953841458761872,0.09155413138023505
1658789931885158,0.8239871824216607,0.33569848172737693,0.03051804379333589
1658789931901154,-0.8239871824216607,0.5188067444876197,0.3967345693140487
1658789931917151,-1.3733119707026162,0.2746623941404778,0.7019150072480898
1658789931933147,0.09155413138023505,-0.7019150072480898,0.3967345693140487
1658789931949144,2.3498893720911838,-0.7019150072480898,-0.15259021896690683
1658789931965140,1.6174563210497581,-0.5188067444876197,-0.5798428320745188
1658789931981136,1.6784924086366573,-0.6408789196611906,-1.0070954451819034
1658789931997133,0.7019150072480898,-0.9460593575952316,-0.7019150072480898
1658789932013129,0.5188067444876197,-1.4343480582895154,-0.213626306553806
1658789932029126,0.45777065690094787,-1.0681315327688026,-0.5798428320745188
1658789932045122,0.6408789196611906,-1.1902037079423735,-1.6174563210497581
1658789932061119,3.0823224231326094,-1.6784924086366573,-1.9226367589837992
1658789932077115,3.0212863355459376,-1.983672846570471,-1.2512397955290453
1658789932093112,1.1902037079423735,-1.3733119707026162,-1.0681315327688026
1658789932109108,0.213626306553806,-0.7019150072480898,-1.8616006713969
1658789932124939,1.4953841458761872,-0.7629510948347615,-1.9226367589837992
1658789932140935,2.410925459678083,-0.6408789196611906,-1.1291676203554744
1658789932156931,1.5564202334630863,-0.5798428320745188,-1.6784924086366573
1658789932172927,1.6174563210497581,-0.8239871824216607,-2.7771419851987957
1658789932188923,2.227817196917613,-0.8850232700083325,-2.5940337224383256
1658789932204918,2.410925459678083,-1.4953841458761872,-1.5564202334630863
1658789932220914,1.4953841458761872,-1.8005645838102282,-1.2512397955290453
1658789932236910,-0.45777065690094787,-1.6174563210497581,-1.3733119707026162
1658789932252906,0.3967345693140487,-1.6174563210497581,-1.6784924086366573
1658789932268902,1.6174563210497581,-1.6174563210497581,-1.8616006713969
1658789932284898,1.3122758831159445,-1.3122758831159445,-1.983672846570471
1658789932300894,0.6408789196611906,-1.3733119707026162,-2.04470893415737
1658789932316890,-0.33569848172737693,-1.739528496223329,-2.288853284504512
1658789932332886,0.15259021896690683,-0.8850232700083325,-1.983672846570471
1658789932348882,1.739528496223329,-0.5798428320745188,-1.9226367589837992
1658789932364878,3.2654306858930795,-1.3733119707026162,-1.6784924086366573
1658789932380874,3.3264667734797513,-2.105745021744042,-1.6174563210497581
1658789932396870,1.739528496223329,-1.5564202334630863,-2.3498893720911838
1658789932412866,1.4953841458761872,-0.5188067444876197,-2.8992141603723667
1658789932428862,-0.3967345693140487,-1.0070954451819034,-2.288853284504512
1658789932444702,-0.8850232700083325,-1.0681315327688026,-1.5564202334630863
1658789932460697,-0.8239871824216607,-0.213626306553806,-1.0681315327688026
1658789932476693,1.0681315327688026,0.6408789196611906,-1.3733119707026162
1658789932492688,1.983672846570471,-0.15259021896690683,-1.4343480582895154
1658789932508684,2.3498893720911838,-0.6408789196611906,-0.7019150072480898
1658789932524679,1.5564202334630863,-0.03051804379333589,-0.7019150072480898
1658789932540675,1.1902037079423735,0.5798428320745188,-1.0681315327688026
1658789932556670,1.0070954451819034,0.15259021896690683,-0.5798428320745188
1658789932572666,0.5188067444876197,-0.8239871824216607,-0.213626306553806
1658789932588661,-1.0681315327688026,-0.5188067444876197,0.213626306553806
1658789932604657,-1.3733119707026162,0.9460593575952316,0.6408789196611906
1658789932620652,-1.0681315327688026,1.1291676203554744,0.9460593575952316
1658789932636648,1.5564202334630863,-0.15259021896690683,1.1902037079423735
1658789932652643,2.5940337224383256,-0.213626306553806,1.2512397955290453
1658789932668639,0.6408789196611906,-0.213626306553806,0.8239871824216607
1658789932684634,-1.5564202334630863,0.2746623941404778,0.5188067444876197
1658789932700630,-5.2185854886702145,0.03051804379333589,1.0681315327688026
1658789932716625,-4.547188525215461,-0.15259021896690683,1.4953841458761872
1658789932732621,-0.5798428320745188,0.7019150072480898,1.0070954451819034
1658789932748616,2.04470893415737,0.7019150072480898,0.213626306553806
1658789932764465,4.303044174868319,0.45777065690094787,-0.09155413138023505
1658789932780460,3.7537193865873633,-0.33569848172737693,-0.2746623941404778
1658789932796454,1.0070954451819034,0.5798428320745188,-0.45777065690094787
1658789932812449,-1.0070954451819034,1.2512397955290453,-0.7019150072480898
1658789932828443,-0.2746623941404778,1.2512397955290453,-0.33569848172737693
1658789932844438,0.2746623941404778,0.2746623941404778,0.213626306553806
1658789932860432,-0.2746623941404778,-0.15259021896690683,0.2746623941404778
1658789932876427,-0.15259021896690683,0.45777065690094787,0.09155413138023505
1658789932892421,-0.213626306553806,0.45777065690094787,-0.45777065690094787
1658789932908416,2.4719615472647547,0.5188067444876197,-0.5798428320745188
1658789932924410,3.2654306858930795,0.15259021896690683,-0.45777065690094787
1658789932940405,1.0070954451819034,0.15259021896690683,-0.8850232700083325
1658789932956400,-0.8239871824216607,0.6408789196611906,-0.6408789196611906
1658789932972394,1.2512397955290453,0.45777065690094787,-0.45777065690094787
1658789932988389,2.04470893415737,-0.213626306553806,-0.33569848172737693
1658789933004383,0.6408789196611906,-0.5798428320745188,-0.15259021896690683
1658789933020378,-0.33569848172737693,-0.6408789196611906,-0.5798428320745188
1658789933036372,1.8005645838102282,-0.03051804379333589,-0.8239871824216607
1658789933052367,1.4343480582895154,-0.8239871824216607,-0.3967345693140487
1658789933068361,1.2512397955290453,-1.1902037079423735,-0.2746623941404778
1658789933084228,-0.03051804379333589,-1.0681315327688026,-0.03051804379333589
1658789933100222,0.5188067444876197,-0.3967345693140487,-0.3967345693140487
1658789933116216,1.3122758831159445,-0.5188067444876197,-1.0681315327688026
1658789933132210,1.6784924086366573,-1.6174563210497581,-1.0070954451819034
1658789933148204,-1.1902037079423735,-2.7161058976118966,-0.45777065690094787
1658789933164199,-4.486152437628789,-2.9602502479590385,-0.09155413138023505
1658789933180193,-4.42511635004189,-3.1433585107195086,-0.03051804379333589
1658789933196187,-1.8005645838102282,-4.242008087281647,-0.09155413138023505
1658789933212181,0.5798428320745188,-4.974441138323073,0.15259021896690683
1658789933228175,-0.03051804379333589,-4.242008087281647,0.213626306553806
1658789933244169,-1.983672846570471,-3.0823224231326094,-0.5188067444876197
1658789933260163,0.33569848172737693,-1.739528496223329,-1.2512397955290453
1658789933276157,0.6408789196611906,-2.410925459678083,-1.5564202334630863
1658789933292151,-1.3122758831159445,-2.4719615472647547,-1.9226367589837992
1658789933308145,-3.3264667734797513,-1.0070954451819034,-1.0681315327688026
1658789933324139,-0.09155413138023505,-0.6408789196611906,-0.45777065690094787
1658789933340133,2.227817196917613,-1.2512397955290453,-0.15259021896690683
1658789933356127,2.105745021744042,-2.166781109330941,0.03051804379333589
1658789933372121,-0.213626306553806,-2.166781109330941,-0.213626306553806
1658789933388116,0.33569848172737693,-1.2512397955290453,0.33569848172737693
1658789933403961,0.3967345693140487,-1.0681315327688026,1.1902037079423735
1658789933419954,-0.7629510948347615,-0.2746623941404778,1.4343480582895154
1658789933435948,-1.8616006713969,-0.15259021896690683,1.4953841458761872
1658789933451942,1.4953841458761872,0.3967345693140487,0.45777065690094787
1658789933467935,2.166781109330941,0.7629510948347615,0.5188067444876197
1658789933483929,2.410925459678083,0.7019150072480898,0.15259021896690683
1658789933499922,2.5940337224383256,0.15259021896690683,-0.03051804379333589
1658789933515916,2.8381780727854675,-1.0070954451819034,0.03051804379333589
1658789933531910,1.9226367589837992,-1.1902037079423735,0.5188067444876197
1658789933547903,1.1291676203554744,-0.8239871824216607,0.45777065690094787
1658789933563897,1.6174563210497581,-0.213626306553806,-0.5188067444876197
1658789933579890,3.2043945983061803,-0.03051804379333589,-0.6408789196611906
1658789933595884,2.7161058976118966,0.5188067444876197,-0.3967345693140487
1658789933611878,0.15259021896690683,1.3733119707026162,-0.7019150072480898
1658789933627871,-1.4953841458761872,1.5564202334630863,-1.0070954451819034
1658789933643865,0.33569848172737693,0.8850232700083325,-1.3122758831159445
1658789933659858,2.227817196917613,0.33569848172737693,-1.6784924086366573
1658789933675852,3.0212863355459376,0.03051804379333589,-1.5564202334630863
1658789933691846,1.8005645838102282,-0.09155413138023505,-1.4343480582895154
1658789933707839,0.5798428320745188,-0.7629510948347615,-1.4343480582895154
1658789933723755,0.8239871824216607,-1.1902037079423735,-0.8850232700083325
1658789933739748,0.5188067444876197,-0.5188067444876197,-0.3967345693140487
1658789933755741,-0.3967345693140487,0.5188067444876197,-1.0681315327688026
1658789933771734,0.8239871824216607,0.8850232700083325,-1.4953841458761872
1658789933787727,2.655069810025225,0.45777065690094787,-1.4953841458761872
1658789933803720,0.8239871824216607,0.213626306553806,-1.3122758831159445
1658789933819713,0.3967345693140487,0.7019150072480898,-1.2512397955290453
1658789933835706,1.0070954451819034,0.45777065690094787,-1.5564202334630863
1658789933851699,2.532997634851654,-0.5188067444876197,-2.227817196917613
1658789933867693,2.9602502479590385,-0.6408789196611906,-1.9226367589837992
1658789933883686,1.739528496223329,-0.2746623941404778,-1.3733119707026162
1658789933899679,0.8239871824216607,0.2746623941404778,-1.1902037079423735
1658789933915672,1.3122758831159445,0.03051804379333589,-0.3967345693140487
1658789933931665,1.5564202334630863,-0.3967345693140487,-0.09155413138023505
1658789933947658,0.213626306553806,-0.09155413138023505,-0.6408789196611906
1658789933963651,-0.9460593575952316,-0.09155413138023505,-0.7629510948347615
1658789933979644,0.6408789196611906,-0.8850232700083325,-0.9460593575952316
1658789933995638,2.227817196917613,-0.8850232700083325,-1.1291676203554744
1658789934011631,1.2512397955290453,0.15259021896690683,-1.3122758831159445
1658789934027624,1.8005645838102282,-0.33569848172737693,-1.4343480582895154
1658789934043487,3.3875028610666504,-1.4343480582895154,-0.9460593575952316
1658789934059480,2.288853284504512,-1.8616006713969,-0.7019150072480898
1658789934075472,0.213626306553806,-0.7629510948347615,-0.7629510948347615
1658789934091465,-1.4343480582895154,-0.45777065690094787,-0.15259021896690683
1658789934107458,0.5188067444876197,-1.4343480582895154,-0.03051804379333589
1658789934123450,1.739528496223329,-1.8005645838102282,-0.15259021896690683
1658789934139443,0.03051804379333589,-0.5188067444876197,-0.5798428320745188
1658789934155436,0.15259021896690683,0.45777065690094787,-0.8850232700083325
1658789934171428,1.8005645838102282,-0.09155413138023505,-0.3967345693140487
1658789934187421,3.2654306858930795,-0.7019150072480898,-0.33569848172737693
1658789934203414,1.8005645838102282,-0.45777065690094787,-0.7629510948347615
1658789934219406,0.09155413138023505,-0.2746623941404778,-0.5798428320745188
1658789934235399,0.8239871824216607,-0.7019150072480898,-0.15259021896690683
1658789934251392,3.0823224231326094,-0.8239871824216607,0.15259021896690683
1658789934267384,3.997863736934505,-0.7019150072480898,-0.09155413138023505
1658789934283377,0.8239871824216607,-0.45777065690094787,0.09155413138023505
1658789934299369,-0.8239871824216607,-0.3967345693140487,0.213626306553806
1658789934315362,-0.09155413138023505,-0.33569848172737693,-0.03051804379333589
1658789934331355,1.8005645838102282,-0.33569848172737693,-0.03051804379333589
1658789934347347,2.3498893720911838,0.45777065690094787,-0.33569848172737693
1658789934363250,1.983672846570471,0.3967345693140487,-0.7019150072480898
1658789934379243,1.9226367589837992,-0.5188067444876197,-1.0681315327688026
1658789934395236,1.0070954451819034,-1.739528496223329,-1.4343480582895154
1658789934411228,0.03051804379333589,-1.6174563210497581,-0.7629510948347615
1658789934427221,0.5188067444876197,-0.45777065690094787,-0.6408789196611906
1658789934443214,1.6784924086366573,-0.213626306553806,-0.8239871824216607
1658789934459206,3.875791561760934,-0.5798428320745188,-1.1291676203554744
1658789934475199,3.3264667734797513,-0.33569848172737693,-1.3122758831159445
1658789934491191,1.983672846570471,-0.33569848172737693,-1.5564202334630863
1658789934507184,0.03051804379333589,-0.6408789196611906,-1.9226367589837992
1658789934523177,-1.4953841458761872,-1.4953841458761872,-1.8005645838102282
1658789934539169,-0.213626306553806,-1.4953841458761872,-1.4953841458761872
1658789934555162,1.6174563210497581,-1.8005645838102282,-1.1902037079423735
1658789934571155,2.3498893720911838,-2.04470893415737,-0.8850232700083325
1658789934587147,1.6784924086366573,-1.6174563210497581,-1.1291676203554744
1658789934603140,2.4719615472647547,-0.7019150072480898,-1.0070954451819034
1658789934619133,3.3875028610666504,-0.03051804379333589,-0.6408789196611906
1658789934635125,2.288853284504512,0.03051804379333589,-0.33569848172737693
1658789934651118,1.739528496223329,0.5798428320745188,-0.2746623941404778
1658789934667111,0.6408789196611906,-0.2746623941404778,-0.45777065690094787
1658789934682983,-0.15259021896690683,-1.0681315327688026,-1.0070954451819034
1658789934698975,0.2746623941404778,-0.7629510948347615,-1.3122758831159445
1658789934714967,0.7629510948347615,-0.5188067444876197,-0.3967345693140487
1658789934730960,0.7629510948347615,-0.9460593575952316,0.45777065690094787
1658789934746952,-0.3967345693140487,-1.3733119707026162,-0.03051804379333589
1658789934762944,0.09155413138023505,-1.3122758831159445,-0.33569848172737693
1658789934778936,1.3733119707026162,-0.6408789196611906,0.15259021896690683
1658789934794928,1.3733119707026162,-0.5798428320745188,0.213626306553806
1658789934810920,-0.3967345693140487,-0.7019150072480898,-0.2746623941404778
1658789934826913,-0.03051804379333589,-0.45777065690094787,-0.5798428320745188
1658789934842905,1.8005645838102282,-1.0070954451819034,-0.5188067444876197
1658789934858897,0.8850232700083325,-1.1902037079423735,-0.33569848172737693
1658789934874889,0.7019150072480898,-0.5798428320745188,-0.6408789196611906
1658789934890881,1.0070954451819034,-0.5188067444876197,-0.7629510948347615
1658789934906873,1.5564202334630863,-0.7019150072480898,-0.33569848172737693
1658789934922865,0.7629510948347615,-0.6408789196611906,0.6408789196611906
1658789934938858,-0.15259021896690683,-0.33569848172737693,0.7629510948347615
1658789934954850,-1.0070954451819034,-0.15259021896690683,0.213626306553806
1658789934970842,-0.15259021896690683,-0.7629510948347615,0.213626306553806
1658789934986834,1.5564202334630863,-1.3122758831159445,0.09155413138023505
1658789935002777,1.8005645838102282,-1.5564202334630863,-0.2746623941404778
1658789935018768,0.5798428320745188,-1.1902037079423735,-0.5798428320745188
1658789935034760,-1.3122758831159445,-1.1902037079423735,0.03051804379333589
1658789935050752,-2.3498893720911838,-1.1902037079423735,0.2746623941404778
1658789935066743,-1.1291676203554744,-0.7629510948347615,0.03051804379333589
1658789935082735,-3.7537193865873633,-0.213626306553806,0.213626306553806
1658789935098727,-1.2512397955290453,0.213626306553806,-0.7019150072480898
1658789935114719,0.7019150072480898,-0.213626306553806,-1.3122758831159445
1658789935130710,3.875791561760934,-0.09155413138023505,-1.5564202334630863
1658789935146702,2.4719615472647547,-0.6408789196611906,-1.1902037079423735
1658789935162694,1.4953841458761872,-0.2746623941404778,-1.1902037079423735
1658789935178685,1.8005645838102282,0.15259021896690683,-1.1902037079423735
1658789935194677,3.570611123826893,-0.6408789196611906,-1.3733119707026162
1658789935210669,3.7537193865873633,-0.5798428320745188,-1.5564202334630863
1658789935226660,1.3122758831159445,-0.03051804379333589,-1.2512397955290453
1658789935242652,-1.0681315327688026,-0.15259021896690683,-0.6408789196611906
1658789935258644,-1.0681315327688026,-0.2746623941404778,-0.3967345693140487
1658789935274635,0.5798428320745188,-0.09155413138023505,-0.6408789196611906
1658789935290627,1.8616006713969,-0.2746623941404778,-1.2512397955290453
1658789935306619,1.5564202334630863,-1.3122758831159445,-1.4343480582895154
1658789935322540,1.1902037079423735,-1.3122758831159445,-1.4953841458761872
1658789935338532,1.8005645838102282,-1.2512397955290453,-1.2512397955290453
1658789935354523,2.7161058976118966,-1.1902037079423735,-1.3122758831159445
1658789935370515,2.8992141603723667,-0.7629510948347615,-1.4953841458761872
1658789935386507,0.7019150072480898,-1.8616006713969,-1.4343480582895154
1658789935402498,-0.5798428320745188,-2.410925459678083,-1.1291676203554744
1658789935418490,-1.983672846570471,-1.5564202334630863,-0.8850232700083325
1658789935434482,-1.3733119707026162,-1.2512397955290453,-1.2512397955290453
1658789935450473,1.8005645838102282,-1.0681315327688026,-1.4343480582895154
1658789935466465,4.180971999694748,-1.3122758831159445,-1.1902037079423735
1658789935482457,3.570611123826893,-1.1902037079423735,-0.7019150072480898
1658789935498448,2.410925459678083,-0.7019150072480898,-0.6408789196611906
1658789935514440,0.8850232700083325,-1.1902037079423735,-1.1291676203554744
1658789935530432,1.1291676203554744,-1.6174563210497581,-1.3122758831159445
1658789935546424,1.2512397955290453,-0.8850232700083325,-0.8239871824216607
1658789935562415,-1.1291676203554744,0.03051804379333589,0.45777065690094787
1658789935578407,-0.2746623941404778,1.5564202334630863,1.0070954451819034
1658789935594399,3.3875028610666504,2.105745021744042,0.7019150072480898
1658789935610390,5.096513313496644,2.105745021744042,0.5798428320745188
1658789935626382,4.486152437628789,2.3498893720911838,0.6408789196611906
1658789935642273,1.1291676203554744,1.6174563210497581,1.0681315327688026
1658789935658264,-1.1902037079423735,1.1291676203554744,1.6174563210497581
1658789935674255,-1.739528496223329,0.6408789196611906,1.2512397955290453
1658789935690246,-1.2512397955290453,0.2746623941404778,0.7629510948347615
1658789935706237,1.1291676203554744,0.7019150072480898,-0.213626306553806
1658789935722229,2.7161058976118966,0.8239871824216607,0.03051804379333589
1658789935738220,4.242008087281647,0.8850232700083325,0.45777065690094787
1658789935754211,1.8616006713969,1.0070954451819034,-0.03051804379333589
1658789935770202,-1.0681315327688026,0.9460593575952316,-0.8850232700083325
1658789935786193,-1.1902037079423735,0.213626306553806,-0.5798428320745188
1658789935802185,-1.8005645838102282,-0.15259021896690683,0.03051804379333589
1658789935818176,-3.997863736934505,-0.03051804379333589,0.33569848172737693
1658789935834167,-4.303044174868319,1.2512397955290453,0.7019150072480898
1658789935850158,-2.105745021744042,1.3122758831159445,1.6174563210497581
1658789935866150,3.7537193865873633,1.2512397955290453,1.983672846570471
1658789935882141,6.439307240405924,1.983672846570471,2.655069810025225
1658789935898132,5.2185854886702145,2.8381780727854675,2.4719615472647547
1658789935914123,3.936827649347606,2.532997634851654,1.983672846570471
1658789935930114,0.213626306553806,1.8005645838102282,1.8005645838102282
1658789935946106,-2.105745021744042,1.4343480582895154,1.9226367589837992
1658789935962036,-1.4343480582895154,1.6174563210497581,2.3498893720911838
1658789935978026,-1.1291676203554744,1.0070954451819034,2.532997634851654
1658789935994017,-0.213626306553806,-0.213626306553806,2.166781109330941
1658789936010008,1.0070954451819034,0.09155413138023505,1.1902037079423735
1658789936025999,0.3967345693140487,-0.09155413138023505,0.8850232700083325
1658789936041989,0.33569848172737693,0.2746623941404778,0.9460593575952316
1658789936057980,0.7629510948347615,-0.09155413138023505,1.0070954451819034
1658789936073971,-0.6408789196611906,-1.4953841458761872,0.7019150072480898
1658789936089962,-3.997863736934505,-1.6174563210497581,0.7629510948347615
1658789936105952,-6.439307240405924,-1.3122758831159445,0.2746623941404778
1658789936121943,-3.2043945983061803,-1.8005645838102282,-0.33569848172737693
1658789936137934,0.8850232700083325,-2.3498893720911838,-0.5188067444876197
1658789936153925,0.03051804379333589,-2.410925459678083,-1.1291676203554744
1658789936169915,-0.6408789196611906,-0.03051804379333589,-1.9226367589837992
1658789936185906,1.3733119707026162,1.3122758831159445,-2.105745021744042
1658789936201897,2.532997634851654,0.45777065690094787,-1.739528496223329
1658789936217888,4.791332875562603,-0.03051804379333589,-1.4953841458761872
1658789936233878,3.814755474174035,0.9460593575952316,-1.739528496223329
1658789936249869,0.5188067444876197,0.45777065690094787,-1.5564202334630863
1658789936265860,0.45777065690094787,0.2746623941404778,-1.1291676203554744
1658789936281738,-0.213626306553806,-0.33569848172737693,-0.7629510948347615
1658789936297728,0.7019150072480898,0.213626306553806,-0.7019150072480898
1658789936313718,0.33569848172737693,0.3967345693140487,-0.3967345693140487
1658789936329709,0.2746623941404778,-0.7629510948347615,-0.5798428320745188
1658789936345699,1.4343480582895154,-1.3733119707026162,-0.5798428320745188
1658789936361689,0.213626306553806,-0.8850232700083325,-0.7629510948347615
1658789936377679,0.15259021896690683,0.3967345693140487,-1.2512397955290453
1658789936393670,0.9460593575952316,0.3967345693140487,-0.6408789196611906
1658789936409660,1.2512397955290453,-0.15259021896690683,-0.09155413138023505
1658789936425650,1.2512397955290453,0.3967345693140487,0.15259021896690683
1658789936441640,0.03051804379333589,0.2746623941404778,0.2746623941404778
1658789936457631,-1.0681315327688026,-0.33569848172737693,-0.09155413138023505
1658789936473621,-1.0070954451819034,-0.7629510948347615,0.15259021896690683
1658789936489611,-0.3967345693140487,-0.45777065690094787,0.7629510948347615
1658789936505602,1.0070954451819034,-0.09155413138023505,0.45777065690094787
1658789936521592,1.8005645838102282,-0.7019150072480898,0.213626306553806
1658789936537582,-1.1902037079423735,-1.2512397955290453,0.213626306553806
1658789936553572,-1.8616006713969,-0.3967345693140487,0.15259021896690683
1658789936569563,1.3733119707026162,0.7019150072480898,-0.213626306553806
1658789936585553,3.2043945983061803,-0.3967345693140487,-0.5188067444876197
1658789936601532,2.8381780727854675,-1.1291676203554744,-0.09155413138023505
1658789936617522,-0.7019150072480898,-1.1291676203554744,0.5798428320745188
1658789936633512,-1.4953841458761872,-1.1902037079423735,-0.33569848172737693
1658789936649502,1.3122758831159445,-1.0070954451819034,-0.8850232700083325
1658789936665493,3.2043945983061803,-1.3122758831159445,-0.213626306553806
1658789936681483,2.105745021744042,-1.739528496223329,0.33569848172737693
1658789936697473,-0.9460593575952316,-1.4953841458761872,-0.15259021896690683
1658789936713463,-0.8239871824216607,-1.4343480582895154,-0.5798428320745188
1658789936729454,0.2746623941404778,-2.227817196917613,-0.33569848172737693
1658789936745444,1.3122758831159445,-2.227817196917613,-0.7019150072480898
1658789936761434,2.288853284504512,-1.6174563210497581,-0.7629510948347615
1658789936777424,1.8616006713969,-1.5564202334630863,-0.9460593575952316
1658789936793415,0.8850232700083325,-1.3733119707026162,-1.0070954451819034
1658789936809405,0.2746623941404778,-1.1291676203554744,-0.33569848172737693
1658789936825395,1.3122758831159445,-1.2512397955290453,-0.5798428320745188
1658789936841385,2.166781109330941,-1.1291676203554744,-1.2512397955290453
1658789936857376,1.5564202334630863,-1.2512397955290453,-1.8616006713969
1658789936873366,-1.6174563210497581,-1.3733119707026162,-1.4343480582895154
1658789936889356,-2.04470893415737,-1.6784924086366573,-0.7629510948347615
1658789936905346,-0.9460593575952316,-1.6174563210497581,-1.0070954451819034
1658789936921264,1.6174563210497581,-0.33569848172737693,-0.6408789196611906
1658789936937254,4.364080262455218,0.6408789196611906,-0.3967345693140487
1658789936953244,6.317235065232353,0.2746623941404778,-1.1291676203554744
1658789936969234,5.096513313496644,-0.33569848172737693,-0.9460593575952316
1658789936985223,0.3967345693140487,-0.8239871824216607,-0.5798428320745188
1658789937001213,-1.983672846570471,-0.03051804379333589,-0.7019150072480898
1658789937017203,-1.1291676203554744,-0.45777065690094787,-0.9460593575952316
1658789937033193,0.9460593575952316,-1.0070954451819034,-0.6408789196611906
1658789937049183,-0.03051804379333589,-0.8239871824216607,-0.3967345693140487
1658789937065172,0.03051804379333589,0.03051804379333589,-0.8239871824216607
1658789937081162,1.8616006713969,0.15259021896690683,-0.7019150072480898
1658789937097152,3.5095750362402214,-0.6408789196611906,-0.15259021896690683
1658789937113142,1.983672846570471,-0.8850232700083325,0.15259021896690683
1658789937129131,0.2746623941404778,-0.213626306553806,-0.09155413138023505
1658789937145121,0.09155413138023505,-0.6408789196611906,-0.15259021896690683
1658789937161111,1.6784924086366573,-1.1291676203554744,-0.09155413138023505
1658789937177101,3.2654306858930795,-0.8850232700083325,-0.09155413138023505
1658789937193091,1.0681315327688026,-0.7629510948347615,-0.3967345693140487
1658789937209080,-1.983672846570471,-0.3967345693140487,-0.3967345693140487
1658789937225070,-2.04470893415737,-0.7019150072480898,0.213626306553806
1658789937241027,0.8850232700083325,-0.9460593575952316,0.45777065690094787
1658789937257017,1.8005645838102282,-1.1291676203554744,0.2746623941404778
1658789937273007,0.9460593575952316,-0.2746623941404778,-0.15259021896690683
1658789937288997,1.0070954451819034,-0.6408789196611906,-0.15259021896690683
1658789937304987,1.739528496223329,-1.1291676203554744,-0.03051804379333589
1658789937320976,1.3122758831159445,-1.0070954451819034,0.33569848172737693
1658789937336966,0.6408789196611906,-0.5188067444876197,-0.15259021896690683
1658789937352956,0.5188067444876197,-1.3122758831159445,-1.3122758831159445
1658789937368946,1.2512397955290453,-2.532997634851654,-1.5564202334630863
1658789937384935,-0.3967345693140487,-2.227817196917613,-0.7629510948347615
1658789937400925,-4.180971999694748,-1.0070954451819034,0.2746623941404778
1658789937416915,-3.875791561760934,-1.4343480582895154,0.15259021896690683
1658789937432905,-0.09155413138023505,-1.4343480582895154,-0.5798428320745188
1658789937448895,1.3122758831159445,-1.2512397955290453,-0.8239871824216607
1658789937464884,1.6174563210497581,-0.5798428320745188,-1.3122758831159445
1658789937480874,1.0681315327688026,0.2746623941404778,-1.3122758831159445
1658789937496864,0.9460593575952316,0.45777065690094787,-0.45777065690094787
1658789937512854,0.5798428320745188,0.09155413138023505,-0.09155413138023505
1658789937528844,0.7019150072480898,0.3967345693140487,-0.213626306553806
1658789937544833,-0.09155413138023505,-0.213626306553806,0.09155413138023505
1658789937560791,0.15259021896690683,-0.7019150072480898,-0.03051804379333589
1658789937576780,1.1902037079423735,-0.2746623941404778,-0.213626306553806
1658789937592770,1.1291676203554744,-0.5188067444876197,-0.213626306553806
1658789937608760,1.3733119707026162,-0.5188067444876197,-0.213626306553806
1658789937624750,1.1902037079423735,0.15259021896690683,-0.09155413138023505
1658789937640740,1.0070954451819034,-0.213626306553806,-0.7019150072480898
1658789937656729,1.6784924086366573,-1.0681315327688026,-1.1291676203554744
1658789937672719,-0.5798428320745188,-1.1291676203554744,-0.3967345693140487
1658789937688709,-1.2512397955290453,-0.7629510948347615,-0.03051804379333589
1658789937704699,0.09155413138023505,-0.5798428320745188,-0.03051804379333589
1658789937720688,2.655069810025225,-0.8239871824216607,-0.33569848172737693
1658789937736678,4.791332875562603,-0.8239871824216607,-0.8239871824216607
1658789937752668,3.2043945983061803,-0.5188067444876197,-1.1291676203554744
1658789937768658,0.15259021896690683,-0.8239871824216607,-1.0070954451819034
1658789937784648,0.45777065690094787,-1.4343480582895154,-0.7629510948347615
1658789937800637,-1.1902037079423735,-1.5564202334630863,-0.5188067444876197
1658789937816627,-1.4953841458761872,-0.8239871824216607,-0.9460593575952316
1658789937832617,-0.8850232700083325,-1.1902037079423735,-1.4343480582895154
1658789937848607,1.9226367589837992,-2.04470893415737,-1.6784924086366573
1658789937864596,2.5940337224383256,-2.532997634851654,-2.105745021744042
1658789937880523,1.1902037079423735,-1.3733119707026162,-1.4953841458761872
1658789937896513,0.8850232700083325,-0.9460593575952316,-0.8850232700083325
1658789937912502,2.410925459678083,-1.1291676203554744,-1.3122758831159445
1658789937928491,3.692683299000464,-1.739528496223329,-1.4953841458761872
1658789937944481,2.7161058976118966,-1.0681315327688026,-1.4953841458761872
1658789937960470,-0.09155413138023505,-0.5188067444876197,-0.8850232700083325
1658789937976459,-0.03051804379333589,-0.5798428320745188,-0.9460593575952316
1658789937992448,1.0681315327688026,-1.4343480582895154,-1.0681315327688026
1658789938008438,2.288853284504512,-2.3498893720911838,-1.1291676203554744
1658789938024427,0.7019150072480898,-1.739528496223329,-0.45777065690094787
1658789938040416,-0.6408789196611906,-0.45777065690094787,-0.15259021896690683
1658789938056406,0.8850232700083325,-0.5798428320745188,-0.33569848172737693
1658789938072395,3.3264667734797513,-1.2512397955290453,-0.15259021896690683
1658789938088384,2.4719615472647547,-1.1902037079423735,-0.03051804379333589
1658789938104374,-0.33569848172737693,-0.8850232700083325,0.2746623941404778
1658789938120363,0.7629510948347615,-0.7629510948347615,0.03051804379333589
1658789938136352,0.3967345693140487,-1.6784924086366573,-0.33569848172737693
1658789938152341,0.9460593575952316,-1.8005645838102282,-0.45777065690094787
1658789938168331,-1.6784924086366573,-0.5188067444876197,0.15259021896690683
1658789938184320,-1.983672846570471,0.3967345693140487,1.0070954451819034
1658789938200286,1.1291676203554744,0.213626306553806,1.0681315327688026
1658789938216276,2.8381780727854675,-0.33569848172737693,-0.09155413138023505
1658789938232265,2.9602502479590385,-0.7629510948347615,-0.45777065690094787
1658789938248254,-0.213626306553806,-0.45777065690094787,0.15259021896690683
1658789938264244,-0.8239871824216607,-0.33569848172737693,0.15259021896690683
1658789938280233,0.15259021896690683,-0.5188067444876197,-0.5798428320745188
1658789938296222,2.7771419851987957,-0.8239871824216607,-1.0681315327688026
1658789938312212,1.3733119707026162,-0.6408789196611906,-0.7629510948347615
1658789938328201,-0.9460593575952316,-0.2746623941404778,-0.03051804379333589
1658789938344190,-0.6408789196611906,0.2746623941404778,-0.45777065690094787
1658789938360180,1.983672846570471,-0.03051804379333589,-1.0681315327688026
1658789938376169,2.288853284504512,-1.0070954451819034,-1.0681315327688026
1658789938392158,0.3967345693140487,-1.3122758831159445,-0.3967345693140487
1658789938408147,0.03051804379333589,-0.7629510948347615,-0.9460593575952316
1658789938424137,1.2512397955290453,-1.2512397955290453,-1.0681315327688026
1658789938440126,1.739528496223329,-1.8005645838102282,-1.3122758831159445
1658789938456115,0.09155413138023505,-1.2512397955290453,-1.0681315327688026
1658789938472105,-1.1902037079423735,-0.213626306553806,-0.8239871824216607
1658789938488094,0.5798428320745188,0.2746623941404778,-1.0070954451819034
1658789938504083,3.4485389486533222,0.15259021896690683,-1.1902037079423735
1658789938520019,2.8992141603723667,-0.3967345693140487,-1.5564202334630863
1658789938536008,2.227817196917613,-1.0681315327688026,-2.7161058976118966
1658789938551998,2.5940337224383256,-1.0070954451819034,-2.8992141603723667
1658789938567987,1.1902037079423735,-1.5564202334630863,-1.9226367589837992
1658789938583976,0.213626306553806,-1.4343480582895154,-1.0681315327688026
1658789938599966,0.7019150072480898,-1.2512397955290453,-0.2746623941404778
1658789938615955,0.15259021896690683,-0.5188067444876197,-0.5188067444876197
1658789938631944,-0.09155413138023505,-0.5798428320745188,-0.8239871824216607
1658789938647934,2.105745021744042,-0.7629510948347615,-0.9460593575952316
1658789938663923,2.7771419851987957,-1.0070954451819034,-1.0070954451819034
1658789938679912,1.739528496223329,-0.7629510948347615,-1.0681315327688026
1658789938695901,0.9460593575952316,-0.7019150072480898,-0.7019150072480898
1658789938711891,1.1291676203554744,-0.7629510948347615,-0.2746623941404778
1658789938727880,2.3498893720911838,-0.09155413138023505,0.33569848172737693
1658789938743869,2.166781109330941,-0.213626306553806,0.33569848172737693
1658789938759859,0.5798428320745188,-0.6408789196611906,-0.09155413138023505
1658789938775848,-1.4343480582895154,-0.7629510948347615,0.15259021896690683
1658789938791837,0.15259021896690683,-0.7629510948347615,0.15259021896690683
1658789938807827,3.3875028610666504,-0.5188067444876197,0.3967345693140487
1658789938823816,4.42511635004189,-0.2746623941404778,0.5798428320745188
1658789938839782,3.1433585107195086,-0.213626306553806,-0.45777065690094787
1658789938855771,0.33569848172737693,-0.8850232700083325,-1.0681315327688026
1658789938871760,-1.983672846570471,-0.6408789196611906,-0.2746623941404778
1658789938887749,-0.5188067444876197,0.2746623941404778,0.7629510948347615
1658789938903738,2.166781109330941,0.33569848172737693,0.7019150072480898
1658789938919726,3.2654306858930795,-0.09155413138023505,-0.09155413138023505
1658789938935715,1.4953841458761872,-1.0681315327688026,-0.2746623941404778
1658789938951704,-0.7629510948347615,-0.8850232700083325,0.15259021896690683
1658789938967693,-2.105745021744042,-0.5188067444876197,0.03051804379333589
1658789938983682,-0.7629510948347615,-0.3967345693140487,0.5188067444876197
1658789938999671,-0.3967345693140487,-0.3967345693140487,1.4343480582895154
1658789939015659,-0.8850232700083325,-0.33569848172737693,0.8850232700083325
1658789939031648,0.03051804379333589,-0.213626306553806,0.33569848172737693
1658789939047637,1.4953841458761872,-0.6408789196611906,0.15259021896690683
1658789939063626,0.45777065690094787,-0.7019150072480898,0.09155413138023505
1658789939079615,-0.33569848172737693,0.15259021896690683,0.33569848172737693
1658789939095604,1.0681315327688026,-0.03051804379333589,-0.03051804379333589
1658789939111592,3.936827649347606,-0.8239871824216607,-0.45777065690094787
1658789939127581,3.0823224231326094,-1.1902037079423735,0.15259021896690683
1658789939143570,0.213626306553806,-0.8850232700083325,0.33569848172737693
1658789939159546,-1.8616006713969,-0.8239871824216607,-0.15259021896690683
1658789939175534,-0.2746623941404778,-1.0070954451819034,-0.15259021896690683
1658789939191523,0.5798428320745188,-1.2512397955290453,0.15259021896690683
1658789939207512,-0.45777065690094787,-1.0681315327688026,0.15259021896690683
1658789939223501,-2.04470893415737,-1.1291676203554744,-0.03051804379333589
1658789939239490,-0.03051804379333589,-1.3733119707026162,0.15259021896690683
1658789939255478,3.0823224231326094,-1.983672846570471,0.33569848172737693
1658789939271467,4.303044174868319,-1.4953841458761872,0.15259021896690683
1658789939287456,1.9226367589837992,-0.9460593575952316,-0.15259021896690683
1658789939303445,0.8239871824216607,-1.1902037079423735,0.03051804379333589
1658789939319434,-0.7019150072480898,-2.04470893415737,0.5188067444876197
1658789939335423,-0.33569848172737693,-1.6784924086366573,0.2746623941404778
1658789939351411,-0.3967345693140487,-0.9460593575952316,0.5798428320745188
1658789939367400,1.739528496223329,-1.1902037079423735,0.8239871824216607
1658789939383389,0.9460593575952316,-2.166781109330941,0.9460593575952316
1658789939399378,0.8239871824216607,-2.532997634851654,0.5188067444876197
1658789939415367,1.1902037079423735,-1.4343480582895154,-0.03051804379333589
1658789939431356,2.9602502479590385,-1.2512397955290453,-0.3967345693140487
1658789939447344,2.227817196917613,-1.6784924086366573,-0.5798428320745188
1658789939463333,-0.7629510948347615,-1.6784924086366573,-0.213626306553806
1658789939479309,-2.655069810025225,-1.8005645838102282,-0.213626306553806
1658789939495298,-0.45777065690094787,-0.5798428320745188,-1.0681315327688026
1658789939511286,3.4485389486533222,0.03051804379333589,-1.3733119707026162
1658789939527275,3.814755474174035,-0.8239871824216607,-1.0681315327688026
1658789939543264,1.739528496223329,-1.0681315327688026,-0.9460593575952316
1658789939559253,-0.8850232700083325,-1.2512397955290453,-0.9460593575952316
1658789939575242,0.3967345693140487,-0.5188067444876197,-0.9460593575952316
1658789939591230,3.2654306858930795,-0.6408789196611906,-0.8239871824216607
1658789939607219,3.875791561760934,-1.0070954451819034,-0.3967345693140487
1658789939623208,1.6784924086366573,-1.2512397955290453,-1.0070954451819034
1658789939639197,-0.8850232700083325,-0.6408789196611906,-1.2512397955290453
1658789939655186,-1.739528496223329,-0.45777065690094787,-0.3967345693140487
1658789939671175,0.213626306553806,-0.09155413138023505,-0.03051804379333589
1658789939687163,1.8005645838102282,-0.09155413138023505,0.33569848172737693
1658789939703152,1.9226367589837992,-0.7629510948347615,0.15259021896690683
1658789939719141,1.3733119707026162,-1.1902037079423735,0.213626306553806
1658789939735130,2.166781109330941,-1.6784924086366573,-0.3967345693140487
1658789939751119,2.3498893720911838,-0.33569848172737693,-0.7629510948347615
1658789939767108,1.3122758831159445,0.09155413138023505,-0.03051804379333589
1658789939783096,0.45777065690094787,-0.5798428320745188,0.213626306553806
1658789939799072,-0.33569848172737693,-0.3967345693140487,-0.45777065690094787
1658789939815061,-0.2746623941404778,-0.213626306553806,-1.2512397955290453
1658789939831050,-0.45777065690094787,-0.6408789196611906,-1.1902037079423735
1658789939847038,0.8239871824216607,-0.8239871824216607,-0.6408789196611906
1658789939863027,1.6174563210497581,-0.33569848172737693,-0.15259021896690683
1658789939879016,0.9460593575952316,-0.8239871824216607,-0.5798428320745188
1658789939895005,0.9460593575952316,-0.9460593575952316,-1.1291676203554744
1658789939910994,1.0070954451819034,-0.6408789196611906,-0.3967345693140487
1658789939926983,0.7019150072480898,-0.6408789196611906,-0.3967345693140487
1658789939942971,0.2746623941404778,-0.213626306553806,-1.0070954451819034
1658789939958960,-0.8239871824216607,-0.09155413138023505,-0.7019150072480898
1658789939974949,0.7629510948347615,-0.45777065690094787,-0.3967345693140487
1658789939990938,2.3498893720911838,-0.6408789196611906,-0.5798428320745188
1658789940006927,1.4953841458761872,-0.5188067444876197,-1.0070954451819034
1658789940022915,0.213626306553806,-0.8850232700083325,-0.7629510948347615
1658789940038904,1.0681315327688026,-0.5798428320745188,-0.2746623941404778
1658789940054893,2.7771419851987957,-0.213626306553806,-0.213626306553806
1658789940070882,2.8381780727854675,0.03051804379333589,-0.3967345693140487
1658789940086871,-0.03051804379333589,-0.213626306553806,-0.33569848172737693
1658789940102860,-2.3498893720911838,-0.7629510948347615,-0.33569848172737693
1658789940118805,-2.227817196917613,-0.7019150072480898,-0.5798428320745188
1658789940134793,-0.45777065690094787,-0.5188067444876197,-0.9460593575952316
1658789940150781,1.6784924086366573,-0.33569848172737693,-0.7629510948347615
1658789940166770,1.983672846570471,-0.2746623941404778,-0.3967345693140487
1658789940182758,1.2512397955290453,0.03051804379333589,-0.5798428320745188
1658789940198746,1.4953841458761872,0.33569848172737693,-1.1291676203554744
1658789940214735,1.739528496223329,0.03051804379333589,-1.0681315327688026
1658789940230723,0.213626306553806,-0.8239871824216607,-0.3967345693140487
1658789940246711,0.09155413138023505,-0.5188067444876197,-0.5798428320745188
1658789940262700,-0.3967345693140487,-0.3967345693140487,-1.1902037079423735
1658789940278688,1.4343480582895154,-0.8239871824216607,-1.0681315327688026
1658789940294676,0.5798428320745188,-1.1902037079423735,-0.5798428320745188
1658789940310665,-0.7629510948347615,-1.0070954451819034,-0.6408789196611906
1658789940326653,-0.7019150072480898,-0.09155413138023505,-0.33569848172737693
1658789940342641,0.45777065690094787,0.33569848172737693,-0.09155413138023505
1658789940358630,2.410925459678083,-0.6408789196611906,-0.09155413138023505
1658789940374618,3.2043945983061803,-1.3122758831159445,-0.2746623941404778
1658789940390607,1.3122758831159445,-0.5188067444876197,-0.03051804379333589
1658789940406595,-0.3967345693140487,-0.3967345693140487,0.15259021896690683
1658789940422583,0.15259021896690683,-0.7629510948347615,0.15259021896690683
1658789940438568,0.7629510948347615,-0.8239871824216607,0.03051804379333589
1658789940454556,0.15259021896690683,-0.6408789196611906,-0.213626306553806
1658789940470544,0.03051804379333589,-0.213626306553806,-0.09155413138023505
1658789940486533,0.45777065690094787,-0.7019150072480898,-0.33569848172737693
1658789940502521,1.2512397955290453,-0.8850232700083325,-0.09155413138023505
1658789940518509,0.6408789196611906,-1.1291676203554744,-0.2746623941404778
1658789940534498,-0.5798428320745188,-1.0070954451819034,-0.8850232700083325
1658789940550486,1.0070954451819034,-0.9460593575952316,-0.7629510948347615
1658789940566475,1.983672846570471,-1.3733119707026162,-0.5188067444876197
1658789940582463,1.0070954451819034,-1.6174563210497581,-0.5188067444876197
1658789940598451,-0.2746623941404778,-1.0070954451819034,-0.7629510948347615
1658789940614440,-0.8239871824216607,-0.8239871824216607,-1.0070954451819034
1658789940630428,1.1291676203554744,-0.2746623941404778,-0.7629510948347615
1658789940646416,1.6784924086366573,-0.8850232700083325,-0.3967345693140487
1658789940662405,0.8850232700083325,-1.1902037079423735,-0.8239871824216607
1658789940678393,0.2746623941404778,-0.8850232700083325,-0.8850232700083325
1658789940694381,0.2746623941404778,-0.7019150072480898,-0.7019150072480898
1658789940710370,1.983672846570471,-1.0681315327688026,-0.8850232700083325
1658789940726358,2.8992141603723667,-1.3733119707026162,-0.7019150072480898
1658789940742346,0.9460593575952316,-1.5564202334630863,-0.5188067444876197
1658789940758300,-0.9460593575952316,-1.0070954451819034,-0.9460593575952316
1658789940774289,-1.6784924086366573,-0.3967345693140487,-0.9460593575952316
1658789940790277,0.09155413138023505,-0.5798428320745188,-0.5798428320745188
1658789940806265,1.983672846570471,-0.6408789196611906,0.09155413138023505
1658789940822254,0.45777065690094787,-0.7019150072480898,0.03051804379333589
1658789940838242,-1.1902037079423735,-0.6408789196611906,-0.5188067444876197
1658789940854231,-0.9460593575952316,-0.8850232700083325,0.2746623941404778
1658789940870219,1.0070954451819034,-0.45777065690094787,0.9460593575952316
1658789940886207,1.1291676203554744,-0.15259021896690683,0.3967345693140487
1658789940902196,0.09155413138023505,-0.2746623941404778,-0.2746623941404778
1658789940918184,-0.03051804379333589,-0.5188067444876197,-0.09155413138023505
1658789940934172,0.33569848172737693,-0.2746623941404778,0.2746623941404778
1658789940950161,2.532997634851654,0.5798428320745188,-0.2746623941404778
1658789940966149,3.0823224231326094,0.213626306553806,-0.6408789196611906
1658789940982137,1.5564202334630863,-1.3122758831159445,-0.9460593575952316
1658789940998126,-0.03051804379333589,-1.3733119707026162,-0.8850232700083325
1658789941014114,-1.0681315327688026,-0.3967345693140487,-0.3967345693140487
1658789941030102,-0.6408789196611906,-0.33569848172737693,0.15259021896690683
1658789941046091,2.105745021744042,-0.5798428320745188,-0.03051804379333589
1658789941062079,2.3498893720911838,-0.213626306553806,-0.33569848172737693
1658789941078064,0.45777065690094787,-0.5188067444876197,-0.9460593575952316
1658789941094052,-1.1902037079423735,-0.33569848172737693,-1.0070954451819034
1658789941110040,-0.2746623941404778,-0.213626306553806,-0.6408789196611906
1658789941126029,0.7019150072480898,-0.3967345693140487,-0.5798428320745188
1658789941142017,0.6408789196611906,-0.33569848172737693,-0.7019150072480898
1658789941158005,-0.2746623941404778,-0.7629510948347615,-1.1291676203554744
1658789941173994,0.7019150072480898,-0.5798428320745188,-1.0070954451819034
1658789941189982,2.227817196917613,-0.3967345693140487,-0.5188067444876197
1658789941205970,2.288853284504512,-0.213626306553806,-0.6408789196611906
1658789941221959,2.04470893415737,0.33569848172737693,-0.7629510948347615
1658789941237947,0.7629510948347615,-0.5188067444876197,-0.7019150072480898
1658789941253935,0.9460593575952316,-0.8239871824216607,-0.3967345693140487
1658789941269924,1.5564202334630863,-1.0070954451819034,-0.33569848172737693
1658789941285912,1.4953841458761872,-0.6408789196611906,-0.5188067444876197
1658789941301900,0.7019150072480898,-0.6408789196611906,-1.0070954451819034
1658789941317889,-0.03051804379333589,-1.1902037079423735,-1.0070954451819034
1658789941333877,0.03051804379333589,-1.2512397955290453,-0.45777065690094787
1658789941349866,1.0681315327688026,-0.7019150072480898,-0.09155413138023505
1658789941365854,1.9226367589837992,0.03051804379333589,-0.09155413138023505
1658789941381842,0.15259021896690683,-0.7629510948347615,-0.213626306553806
1658789941397796,0.5188067444876197,-1.0681315327688026,-0.6408789196611906
1658789941413785,1.6784924086366573,-0.213626306553806,-0.5798428320745188
1658789941429773,1.4953841458761872,0.09155413138023505,-0.2746623941404778
1658789941445761,0.3967345693140487,-0.3967345693140487,-0.33569848172737693
1658789941461750,0.7629510948347615,-0.5188067444876197,-0.2746623941404778
1658789941477738,1.1902037079423735,-0.45777065690094787,0.03051804379333589
1658789941493726,1.3733119707026162,-0.213626306553806,0.03051804379333589
1658789941509715,1.4343480582895154,-0.213626306553806,0.33569848172737693
1658789941525703,0.15259021896690683,-1.1291676203554744,0.15259021896690683
1658789941541691,0.3967345693140487,-1.2512397955290453,-0.33569848172737693
1658789941557680,2.04470893415737,-0.3967345693140487,0.213626306553806
1658789941573668,2.4719615472647547,-0.3967345693140487,0.213626306553806
1658789941589656,1.8005645838102282,-0.213626306553806,0.09155413138023505
1658789941605645,-0.09155413138023505,0.03051804379333589,0.3967345693140487
1658789941621633,0.45777065690094787,0.09155413138023505,0.2746623941404778
1658789941637622,3.0823224231326094,1.1291676203554744,0.213626306553806
1658789941653610,3.0823224231326094,0.8850232700083325,1.1291676203554744
1658789941669598,2.7771419851987957,-0.33569848172737693,1.8616006713969
1658789941685587,0.15259021896690683,0.45777065690094787,4.058899824521177
1658789941701575,-0.6408789196611906,1.8005645838102282,5.523765926604028
1658789941717559,-0.45777065690094787,3.5095750362402214,6.500343327992596
1658789941733548,3.0212863355459376,7.660028992141633,7.843137254901876
1658789941749536,3.0823224231326094,8.880750743877343,9.369039444571627
1658789941765524,1.8005645838102282,7.476920729381163,11.07804989700162
1658789941781513,-0.2746623941404778,5.401693751430457,11.810482948043045
1658789941797501,1.3122758831159445,2.227817196917613,12.23773556115043
1658789941813490,3.1433585107195086,-0.09155413138023505,14.068818188753994
1658789941829478,0.33569848172737693,-3.2043945983061803,15.594720378423744
1658789941845466,-1.0070954451819034,-5.2185854886702145,16.815442130159454
1658789941861455,-4.058899824521177,-6.8665598535133086,19.745174334325156
1658789941877443,-7.4158846417944915,-8.026245517662346,22.308690012970146
1658789941893431,-11.688410772869474,-10.467689021133765,23.651483939879427
1658789941909420,-7.843137254901876,-10.711833371480907,24.933241779201808
1658789941925408,-5.157549401083315,-11.07804989700162,26.764324406805372
1658789941941396,-1.0070954451819034,-11.688410772869474,27.008468757152514
1658789941957385,1.2512397955290453,-9.918364232852582,27.374685282673227
1658789941973373,-3.2043945983061803,-10.101472495613052,28.778515297169406
1658789941989361,-7.598992904554734,-10.89494163424115,28.04608224612798
1658789942005350,-6.439307240405924,-10.589761196307336,28.290226596475122
1658789942021338,-2.7771419851987957,-9.85732814526591,30.4875257495994
1658789942037323,-1.3122758831159445,-10.589761196307336,31.097886625467254
1658789942053311,2.410925459678083,-9.55214770733187,30.792706187533213
1658789942069299,1.3122758831159445,-9.002822919050914,32.62378881513678
1658789942085288,-0.45777065690094787,-8.697642481116873,32.86793316548392
1658789942101276,0.2746623941404778,-7.537956816968062,32.257572289616064
1658789942117264,0.6408789196611906,-6.927595941100208,33.17311360341796
1658789942133253,-1.6174563210497581,-7.354848554207592,34.2717631799801
1658789942149241,-4.486152437628789,-7.049668116273779,33.23414969100463
1658789942165229,-5.95101853971164,-8.026245517662346,32.257572289616064
1658789942181218,-3.2654306858930795,-7.965209430075447,32.684824902723676
1658789942197206,-2.532997634851654,-8.51453421835663,33.11207751583106
1658789942213194,-5.401693751430457,-10.89494163424115,32.440680552376534
1658789942229183,-3.4485389486533222,-10.89494163424115,33.53933012893867
1658789942245171,-1.4343480582895154,-9.124895094224485,37.07942320897223
1658789942261160,-0.7019150072480898,-7.721065079728305,39.27672236209651
1658789942277148,-0.2746623941404778,-6.500343327992596,39.45983062485675
1658789942293136,-1.2512397955290453,-7.354848554207592,39.82604715037746
1658789942309125,-3.0212863355459376,-7.598992904554734,40.070191500724604
1658789942325113,-3.692683299000464,-6.134126802471883,38.727397573815324
1658789942341101,-1.8005645838102282,-4.42511635004189,40.497444113832216
1658789942357025,-2.3498893720911838,-6.561379415579495,44.46478980697316
1658789942373013,-2.532997634851654,-8.209353780422589,45.07515068284101
1658789942389001,-3.997863736934505,-8.6366063935302,43.976501106278874
1658789942404988,-2.9602502479590385,-9.918364232852582,44.52582589456006
1658789942420976,1.9226367589837992,-10.223544670786623,46.41794460975029
1658789942436964,2.288853284504512,-10.528725108720437,50.01907377737052
1658789942452952,-3.0212863355459376,-11.993591210803288,52.033264667734784
1658789942468940,-7.11070420386045,-13.58052948805971,52.3384451056686
1658789942484928,-5.401693751430457,-14.740215152208748,53.74227512016478
1658789942500916,-1.0681315327688026,-12.726024261844714,56.97718776226429
1658789942516904,3.4485389486533222,-8.51453421835663,61.67696650644666
1658789942532891,7.11070420386045,-6.378271152819025,66.07156481269567
1658789942548879,9.85732814526591,-7.17174029144735,67.78057526512566
1658789942564867,5.279621576256886,-9.002822919050914,67.84161135271233
1658789942580855,1.0681315327688026,-7.843137254901876,67.90264744029946
1658789942596843,2.04470893415737,-4.547188525215461,67.65850308995232
1658789942612831,4.9134050507361735,-4.42511635004189,68.39093614099374
1658789942628819,9.491111619745197,-5.523765926604028,72.23620965896089
1658789942644806,3.0212863355459376,-7.049668116273779,77.05806057831705
1658789942660794,-3.875791561760934,-8.51453421835663,79.25535973144133
1658789942676788,-7.049668116273779,-7.2938124666209205,79.316395819028
1658789942692776,-8.697642481116873,-8.45349813076973,82.55130846112797
1658789942708764,-16.754406042572555,-11.383230334935433,85.35896849011988
1658789942724752,-22.186617837796575,-15.411612115663274,84.38239108873131
1658789942740739,-19.01274128328373,-16.388189517051842,84.80964370183892
1658789942756727,-13.336385137712568,-16.44922560463874,87.9224841687651
1658789942772715,-10.955977721828049,-15.045395590142562,90.11978332188937
1658789942788703,-9.73525597009234,-13.946746013580423,91.5236133363851
1658789942804691,-17.66994735637445,-18.402380407415876,95.30785076676602
1658789942820679,-27.74090180819394,-22.186617837796575,97.3830777447165
1658789942836667,-36.28595407034413,-22.552834363317288,93.11055161364175
1658789942852655,-40.86366063935316,-20.416571297779683,87.49523155565748
1658789942868642,-35.00419623102175,-22.73594262607753,86.94590676737653
1658789942884630,-32.13550011444272,-24.872205691615136,91.15739681086461
1658789942900618,-32.623788815137004,-19.439993896391115,93.59884031433603
1658789942916606,-34.332799267567,-18.95170519569683,92.19501029983985
1658789942932594,-32.867933165484146,-18.036163881895163,89.63149462119509
1658789942948582,-31.219958800640825,-14.129854276340893,87.55626764324415
1658789942964570,-22.003509575036105,-10.833905546654478,87.86144808117797
1658789942980558,-11.627374685282575,-6.9886320286868795,88.10559243152511
1658789942996521,-6.500343327992596,-5.2185854886702145,84.62653543907845
1658789943012508,-6.195162890058782,-6.073090714885211,83.89410238803703
1658789943028496,-7.782101167315204,-3.936827649347606,88.04455634393844
1658789943044484,-8.148317692835917,1.2512397955290453,89.1432059205008
1658789943060472,-3.1433585107195086,2.5940337224383256,86.0914015411613
1658789943076460,-1.0070954451819034,2.105745021744042,84.68757152666512
1658789943092448,-0.8239871824216607,3.2043945983061803,88.16662851911224
1658789943108436,-4.364080262455218,5.828946364538069,88.16662851911224
1658789943124424,-11.383230334935433,7.11070420386045,85.60311284046702
1658789943140411,-11.749446860456146,7.904173342488775,83.77203021286368
1658789943156399,-10.955977721828049,9.613183794918768,83.22270542458227
1658789943172387,-12.298771648737329,14.312962539101136,82.49027237354085
1658789943188375,-17.42580300602731,16.1440451667047,79.316395819028
1658789943204363,-30.54856183718607,12.787060349431613,75.34905012588706
1658789943220351,-39.276722362096734,10.650797283894008,73.88418402380421
1658789943236339,-32.623788815137004,14.618142977035177,72.48035400930803
1658789943252327,-27.313649195086555,16.08300907911803,68.8181887541009
1658789943268314,-31.586175326161765,14.679179064621849,63.20286869611664
1658789943284302,-45.62447547112242,11.993591210803288,56.79407949950382
1658789943300290,-58.3199816891738,9.185931181811156,50.507362478064806
1658789943316284,-59.47966735332261,8.697642481116873,46.17380025940315
1658789943332272,-56.54993514915691,5.706874189364498,43.54924849317149
1658789943348260,-57.34340428778523,-0.5188067444876197,37.93392843518723
1658789943364247,-52.09430075532168,-5.95101853971164,31.89135576409535
1658789943380235,-30.670634012359642,-1.1902037079423735,24.383916990920852
1658789943396223,-3.2043945983061803,3.997863736934505,15.045395590142562
1658789943412211,19.80621042191183,5.523765926604028,4.547188525215461
1658789943428199,35.37041275654224,7.2938124666209205,-4.9134050507361735
1658789943444187,41.596093690394355,7.843137254901876,-10.772869459067579
1658789943460175,35.79766536964962,7.11070420386045,-16.1440451667047
1658789943476163,18.82963302052326,1.8616006713969,-22.247653925383247
1658789943492150,-3.5095750362402214,-5.889982452124741,-27.496757457846797
1658789943508138,-8.51453421835663,-8.575570305943302,-31.342030975814623
1658789943524126,7.537956816968062,-2.105745021744042,-39.03257801174959
1658789943540114,19.01274128328373,2.3498893720911838,-48.6762798504617
1658789943556102,26.276035706111088,0.5188067444876197,-55.3292133974212
1658789943572090,32.562752727550105,-1.1291676203554744,-58.56412603952094
1658789943588078,35.98077363241009,-0.45777065690094787,-63.996337834744736
1658789943604066,36.71320668345152,0.15259021896690683,-71.07652399481185
1658789943620053,37.93392843518723,0.7019150072480898,-76.02044708934159
1658789943636016,34.88212405584795,-1.4343480582895154,-79.49950408178825
1658789943652004,33.905546654459386,-1.8616006713969,-82.55130846112752
1658789943667992,37.93392843518723,-1.2512397955290453,-85.35896849011965
1658789943683980,32.74586099031035,-2.655069810025225,-89.44838635843439
1658789943699968,30.4264896620125,-1.3733119707026162,-94.63645380331127
1658789943715956,36.408026245517476,0.45777065690094787,-99.2141603723203
1658789943731944,45.25825894560148,0.03051804379333589,-100.80109864957672
1658789943747932,54.718852521553345,1.4343480582895154,-102.20492866407267
1658789943763919,50.99565117875909,0.8850232700083325,-103.85290302891599
1658789943779907,43.12199588006388,-1.4343480582895154,-108.73579003585883
1658789943795895,46.23483634699005,-4.974441138323073,-113.25246051728095
1658789943811883,49.2866407263291,-3.5095750362402214,-114.16800183108262
1658789943827871,49.77492942702338,0.33569848172737693,-114.59525444419023
1658789943843859,48.85938811322194,-0.7019150072480898,-117.40291447318236
1658789943859847,46.47898069733719,-3.7537193865873633,-117.03669794766165
1658789943875835,44.34271763179959,-2.04470893415737,-114.04592965590905
1658789943891822,37.567711909666514,-1.0070954451819034,-114.29007400625619
1658789943907810,35.79766536964962,-1.3122758831159445,-118.68467231250474
1658789943923798,40.00915541313793,-2.8381780727854675,-121.4312962539102
1658789943939786,37.1404592965589,-4.547188525215461,-117.09773403524832
1658789943955780,39.70397497520389,-0.45777065690094787,-110.56687266346239
1658789943971768,39.88708323796436,3.997863736934505,-108.43060959792479
1658789943987755,40.253299763485074,1.739528496223329,-111.66552224002453
1658789944003743,44.7699702449072,-1.8616006713969,-110.99412527656978
1658789944019731,39.58190280003032,-0.33569848172737693,-104.1580834668498
1658789944035719,31.342030975814396,3.3264667734797513,-100.92317082475029
1658789944051707,42.69474326695649,5.462729839017356,-104.09704737926313
1658789944067695,49.83596551461051,2.5940337224383256,-101.16731517509743
1658789944083683,48.187991149767186,0.8239871824216607,-92.07293812466605
1658789944099671,41.16884107728674,2.410925459678083,-90.91325246051724
1658789944115658,37.75082017242676,7.537956816968062,-97.07789730678269
1658789944131646,36.408026245517476,7.11070420386045,-97.81033035782411
1658789944147634,37.9949645227739,3.6316472114137923,-92.62226291294724
1658789944163622,28.900587472342977,0.2746623941404778,-82.79545281147466
1658789944179610,16.44922560463874,1.4343480582895154,-80.9643701838711
1658789944195598,6.744487678339738,6.073090714885211,-87.80041199359107
1658789944211586,9.918364232852582,10.345616845960194,-90.05874723430225
1658789944227573,16.08300907911803,8.270389868009488,-84.19928282597084
1658789944243561,17.36476691844041,7.537956816968062,-76.93598840314326
1658789944259549,4.364080262455218,9.67421988250544,-76.08148317692826
1658789944275543,-1.4343480582895154,14.312962539101136,-78.64499885557325
1658789944291531,-3.814755474174035,15.350576028076603,-77.36324101625087
1658789944307519,3.2043945983061803,16.754406042572555,-74.37247272449827
1658789944323506,12.176699473563758,17.181658655680167,-71.13756008239875
1658789944339494,13.824673838406852,16.754406042572555,-66.6819256885633
1658789944355482,11.688410772869474,16.02197299153113,-63.874265659571165
1658789944371470,13.64156557564661,16.1440451667047,-61.493858243686645
1658789944387458,20.294499122606112,16.32715342946517,-53.92538338292525
1658789944403446,37.01838712138533,20.599679560540153,-44.15960936903957
1658789944419434,30.182345311665358,18.097199969481835,-38.36118104829484
1658789944435422,7.904173342488775,14.557106889448278,-35.24834058136889
1658789944451409,-3.692683299000464,12.848096437018285,-27.191577019912984
1658789944467397,-2.5940337224383256,15.228503852903032,-13.946746013580423
1658789944483385,-5.95101853971164,14.251926451514464,0.9460593575952316
1658789944499373,-10.467689021133765,12.115663385976859,11.932555123216616
1658789944515361,-12.726024261844714,11.07804989700162,21.026932173647538
1658789944531349,-8.575570305943302,9.002822919050914,31.158922713053926
1658789944547337,-3.936827649347606,7.2938124666209205,40.497444113832216
1658789944563325,-5.279621576256886,3.875791561760934,50.08010986495765
1658789944579312,-10.223544670786623,-0.7019150072480898,58.319981689173346
1658789944595276,-13.76363775082018,-3.5095750362402214,65.58327611200139
1658789944611263,-18.646524757763018,-4.791332875562603,73.64003967345707
1658789944627251,-24.750133516441565,-8.392462043183059,80.47608148317704
1658789944643239,-29.633020523384403,-13.76363775082018,86.27450980392177
1658789944659227,-32.6848249027239,-17.48683909361398,93.47676813916223
1658789944675215,-36.713206683451745,-19.073777370870403,101.2283512626841
1658789944691203,-40.2532997634853,-20.599679560540153,107.45403219653645
1658789944707191,-40.98573281452673,-24.444953078507524,110.56687266346216
1658789944723178,-36.04180971999699,-25.29945830472252,113.37453269245452
1658789944739166,-31.342030975814623,-22.308690012970146,119.05088883802546
1658789944755154,-33.41725795376533,-22.49179827573039,123.0182345311664
1658789944771142,-41.41298542763411,-26.337071793697987,122.10269321736496
1658789944787130,-46.72312504768456,-28.351262684061794,118.80674448767832
1658789944803118,-41.35194934004744,-26.276035706111088,117.5860227359426
1658789944819106,-31.525139238574866,-25.726710917830133,119.84435797665355
1658789944835094,-24.383916990920852,-27.252613107499656,124.11688410772877
1658789944851081,-27.374685282673227,-27.98504615854108,125.64278629739829
1658789944867069,-34.82108796826128,-26.214999618524416,121.49233234149688
1658789944883057,-30.975814450293683,-21.14900434882111,120.39368276493497
1658789944899045,-27.496757457846797,-17.730983443961122,124.66620889600972
1658789944915039,-23.89562829022657,-16.876478217746126,126.55832761120018
1658789944931027,-26.214999618524416,-17.79201953154802,125.03242542153066
1658789944947014,-31.647211413748437,-16.1440451667047,120.88197146562925
1658789944963002,-28.412298771648693,-12.23773556115043,115.449759670405
1658789944978990,-20.660715648126825,-11.139085984588291,115.449759670405
1658789944994978,-18.95170519569683,-9.918364232852582,119.84435797665355
1658789945010966,-25.42153047989609,-8.209353780422589,120.69886320286878
1658789945026954,-39.215686274509835,-7.17174029144735,114.35111009384309
1658789945042942,-43.48821240558482,-7.782101167315204,108.55268177309836
1658789945058930,-41.1078049897003,-6.256198977645454,112.33691920347928
1658789945074917,-33.66140230411247,-1.1902037079423735,117.03669794766165
1658789945090905,-31.219958800640825,1.1291676203554744,113.19142442969405
1658789945106893,-41.840238040741724,-1.2512397955290453,102.57114518959361
1658789945122881,-56.97718776226452,-4.791332875562603,97.87136644541079
1658789945138869,-46.78416113527123,0.2746623941404778,97.93240253299791
1658789945154857,-21.759365224688963,3.2043945983061803,98.35965514610507
1658789945170845,-12.542915999084471,3.2043945983061803,93.7819485770965
1658789945186833,-17.79201953154802,5.828946364538069,87.43419546807081
1658789945202820,-20.904859998473967,10.284580758373295,81.45265888456561
1658789945218808,-18.70756084534969,13.214312962538997,78.15671015487942
1658789945234771,-21.14900434882111,15.167467765316132,75.77630273899467
1658789945250759,-32.37964446478986,16.876478217746126,73.88418402380421
1658789945266747,-38.91050583657602,21.27107652399468,68.39093614099374
1658789945282735,-44.28168154421314,21.57625696192872,59.906919966429996
1658789945298723,-61.249713893339504,13.519493400473038,54.4747081712062
1658789945314711,-67.41435873960472,4.058899824521177,54.29159990844573
1658789945330699,-48.18799114976741,8.209353780422589,53.74227512016478
1658789945346686,-26.214999618524416,13.885709925993751,47.08934157320505
1658789945362674,-14.679179064621849,10.955977721828049,39.27672236209651
1658789945378662,-15.10643167772946,5.2185854886702145,33.905546654459386
1658789945394650,-21.27107652399468,0.5798428320745188,29.32784008545036
1658789945410638,-12.298771648737329,1.8616006713969,21.51522087434182
1658789945426626,3.997863736934505,3.0212863355459376,14.496070801861606
1658789945442614,12.23773556115043,1.8005645838102282,6.378271152819025
1658789945458602,13.885709925993751,2.227817196917613,-3.570611123826893
1658789945474589,20.599679560540153,3.6316472114137923,-11.871519035629717
1658789945490577,23.346303501945386,4.119935912108076,-17.79201953154802
1658789945506565,18.95170519569683,0.9460593575952316,-23.95666437781324
1658789945522553,11.20012207217519,-5.157549401083315,-30.792706187533213
1658789945538541,7.598992904554734,-6.744487678339738,-37.38460364690627
1658789945554535,8.880750743877343,-4.486152437628789,-43.183031967651004
1658789945570522,11.444266422522333,-2.288853284504512,-50.995651178759545
1658789945586510,15.594720378423744,-4.42511635004189,-58.930342565041656
1658789945602498,24.13977264057371,-2.8992141603723667,-65.46120393682759
1658789945618486,33.11207751583106,1.6784924086366573,-71.44274052033256
1658789945634474,41.412985427633885,2.655069810025225,-75.16594186312659
1658789945650462,45.68551155870887,1.8005645838102282,-78.95017929350729
1658789945666450,45.01411459525434,-0.3967345693140487,-84.44342717631798
1658789945682438,44.52582589456006,-0.6408789196611906,-89.63149462119463
1658789945698425,46.11276417181648,-2.227817196917613,-94.27023727779056
1658789945714413,43.42717631799792,-6.073090714885211,-95.85717555504698
1658789945730401,43.24406805523745,-4.9134050507361735,-97.74929427023744
1658789945746389,54.962996871900486,2.5940337224383256,-104.76844434271766
1658789945762377,56.61097123674335,0.45777065690094787,-111.97070267795834
1658789945778365,51.17875944151956,-2.9602502479590385,-113.55764095521477
1658789945794353,52.39948119325527,-4.180971999694748,-109.59029526207382
1658789945810341,58.01480125123953,-1.6784924086366573,-108.7968261234455
1658789945826328,61.43282215609952,-1.2512397955290453,-113.25246051728095
1658789945842316,53.92538338292479,-7.476920729381163,-115.81597619592594
1658789945858304,48.6152437628748,-8.392462043183059,-118.62363622491807
1658789945874298,45.99069199664291,-9.979400320439481,-119.23399710078593
1658789945890286,43.9154650186922,-12.298771648737329,-116.12115663385975
1658789945906273,44.95307850766744,-12.664988174258042,-114.6562905317769
1658789945922261,36.346990157930804,-11.993591210803288,-117.15877012283522
1658789945938249,33.11207751583106,-11.322194247348762,-120.69886320286878
1658789945954237,30.36545357442583,-9.918364232852582,-119.90539406424045
1658789945970225,38.727397573815324,-7.904173342488775,-117.70809491111618
1658789945986213,43.24406805523745,-11.383230334935433,-117.95223926146332
1658789946002201,38.849469748988895,-12.909132524605184,-118.92881666285189
1658789946018189,30.670634012359642,-12.726024261844714,-118.4405279621576
1658789946034176,30.121309224078686,-9.246967269398056,-115.26665140764476
1658789946050164,35.98077363241009,-4.974441138323073,-110.38376440070192
1658789946066152,41.96231021591507,-4.852368963149502,-107.20988784618908
1658789946082140,39.94811932555103,-3.5095750362402214,-103.91393911650266
1658789946098128,33.600366216525344,-0.15259021896690683,-99.45830472266744
1658789946114116,27.92401007095441,1.0070954451819034,-98.05447470817126
1658789946130104,35.43144884412891,1.9226367589837992,-100.55695429922957
1658789946146092,38.48325322346818,1.4343480582895154,-100.67902647440314
1658789946162079,39.52086671244365,3.6316472114137923,-96.77271686884887
1658789946178067,30.73167009994654,4.9134050507361735,-92.62226291294724
1658789946194030,28.595407034408936,9.979400320439481,-93.17158770122819
1658789946210018,31.280994888227497,9.002822919050914,-93.65987640192247
1658789946226005,32.07446402685582,7.17174029144735,-88.83802548256654
1658789946241993,26.52018005645823,10.711833371480907,-78.88914320592039
1658789946257980,10.589761196307336,12.848096437018285,-75.16594186312659
1658789946273967,1.1291676203554744,14.862287327382319,-78.76707103074682
1658789946289955,-0.5188067444876197,14.92332341496899,-77.48531319142444
1658789946305942,4.058899824521177,13.946746013580423,-69.42854962996876
1658789946321930,7.721065079728305,14.068818188753994,-60.88349736781879
1658789946337917,-0.8850232700083325,12.909132524605184,-58.44205386434737
1658789946353904,-6.256198977645454,14.251926451514464,-58.01480125123976
1658789946369892,7.660028992141633,23.102159151598244,-50.7515068284124
1658789946385879,17.79201953154802,25.970855268177274,-36.89631494621199
1658789946401867,18.76859693293659,21.087968261234437,-26.947432669565842
1658789946417854,12.603952086671143,17.24269474326684,-23.773556115052997
1658789946433841,11.261158159761862,17.60891126878755,-19.073777370870403
1658789946449829,8.392462043183059,16.44922560463874,-8.51453421835663
1658789946465816,3.3264667734797513,13.153276874952326,2.655069810025225
1658789946481804,-2.3498893720911838,10.89494163424115,11.383230334935433
1658789946497791,-7.476920729381163,8.819714656290444,19.073777370870403
1658789946513794,-15.838864728770886,8.209353780422589,27.496757457846797
1658789946529781,-22.186617837796575,6.744487678339738,37.01838712138533
1658789946545768,-25.543602655069662,4.791332875562603,46.23483634699005
1658789946561756,-29.694056610971074,1.739528496223329,54.10849164568526
1658789946577743,-30.182345311665358,-1.1902037079423735,60.63935301747142
1658789946593731,-29.571984435797503,-4.547188525215461,66.49881742580328
1658789946609718,-27.74090180819394,-9.063859006637585,72.11413748378754
1658789946625705,-24.322880903333953,-10.89494163424115,77.18013275349085
1658789946641693,-20.294499122606112,-10.467689021133765,83.2837415121694
1658789946657680,-18.95170519569683,-11.566338597695903,90.48599984740986
1658789946673668,-22.552834363317288,-13.824673838406852,94.63645380331127
1658789946689655,-30.4875257495994,-16.26611734187827,96.34546425574126
1658789946705642,-35.55352101930271,-17.120622568093268,97.13893339436936
1658789946721630,-34.3938353551539,-16.510261692225413,99.6414129854279
1658789946737617,-35.98077363241032,-19.80621042191183,104.89051651789123
1658789946753605,-40.13122758831173,-21.14900434882111,108.0033569848174
1658789946769592,-45.868619821469565,-21.51522087434182,109.40718699931358
1658789946785579,-46.72312504768456,-21.39314869916825,111.97070267795834
1658789946801567,-42.32852674143601,-21.39314869916825,114.10696574349595
1658789946817554,-38.72739757381555,-18.82963302052326,114.90043488212405
1658789946833526,-33.35622186617843,-16.754406042572555,114.22903791866929
1658789946849514,-34.332799267567,-16.2050812542916,114.47318226901643
1658789946865501,-36.530098420691274,-16.693369954985883,113.49660486762787
1658789946881488,-33.23414969100486,-16.510261692225413,111.60448615243786
1658789946897476,-30.975814450293683,-16.2050812542916,111.90966659037167
1658789946913463,-27.069504844739413,-15.289539940489703,114.71732661936358
1658789946929451,-26.52018005645823,-13.824673838406852,114.83939879453737
1658789946945438,-26.153963530937517,-9.918364232852582,109.7123674372474
1658789946961425,-23.773556115052997,-8.148317692835917,106.47745479514788
1658789946977413,-22.247653925383247,-8.575570305943302,109.34615091172645
1658789946993400,-23.163195239185143,-5.279621576256886,114.29007400625642
1658789947009388,-29.816128786144645,-3.3264667734797513,112.27588311589216
1658789947025375,-37.56771190966674,-7.4158846417944915,103.66979476615552
1658789947041362,-41.35194934004744,-9.308003356984727,95.97924773022078
1658789947057350,-39.70397497520412,-3.875791561760934,92.7443350881208
1658789947073337,-28.229190508888223,0.5798428320745188,90.60807202258366
1658789947089325,-12.970168612191856,-0.45777065690094787,87.9224841687651
1658789947105312,-9.67421988250544,-0.8850232700083325,87.0069428549632
1658789947121299,-18.280308232242305,5.3406576638437855,83.22270542458227
1658789947137287,-27.61882963302037,9.979400320439481,75.89837491416802
1658789947153289,-24.750133516441565,7.843137254901876,73.02967879758944
1658789947169277,-13.824673838406852,5.096513313496644,76.75288014038324
1658789947185264,-12.359807736324,7.4158846417944915,78.5229266803999
1658789947201252,-19.317921721217544,12.542915999084471,71.68688487067993
1658789947217239,-33.23414969100486,9.55214770733187,63.63012130922425
1658789947233226,-34.82108796826128,4.180971999694748,61.79903868162046
1658789947249214,-23.651483939879427,8.941786831464015,61.00556954299191
1658789947265201,-9.491111619745197,16.44922560463874,58.9913786526281
1658789947281189,-9.491111619745197,15.716792553597315,57.64858472571905
1658789947297176,-28.229190508888223,10.101472495613052,51.60601205462717
1658789947313163,-42.51163500419625,7.11070420386045,44.64789806973363
1658789947329151,-28.229190508888223,11.139085984588291,42.938887617303635
1658789947345138,1.5564202334630863,17.181658655680167,45.80758373388244
1658789947361126,11.749446860456146,16.388189517051842,43.73235675593173
1658789947377113,-5.279621576256886,12.115663385976859,35.37041275654224
1658789947393100,-22.67490653849086,8.270389868009488,28.16815442130155
1658789947409088,-31.219958800640825,8.33142595559616,24.07873655298681
1658789947425075,-34.94316014343485,7.049668116273779,21.69832913710229
1658789947441063,-35.370412756542464,0.45777065690094787,19.80621042191183
1658789947457050,-32.745860990310575,-3.875791561760934,15.716792553597315
1658789947473022,-29.877164873731545,-4.42511635004189,7.904173342488775
1658789947489009,-20.660715648126825,-2.532997634851654,-0.3967345693140487
1658789947504997,-5.096513313496644,0.6408789196611906,-8.209353780422589
1658789947520984,13.946746013580423,5.76791027695117,-15.167467765316132
1658789947536972,26.886396581978943,7.17174029144735,-20.17242694743254
1658789947552959,27.069504844739413,1.8616006713969,-24.750133516441565
1658789947568946,19.317921721217544,-5.706874189364498,-29.816128786144645
1658789947584934,11.20012207217519,-10.833905546654478,-35.00419623102175
1658789947600921,13.58052948805971,-10.040436408026153,-39.70397497520412
1658789947616909,24.567025253681095,-4.547188525215461,-45.563439383535524
1658789947632896,25.543602655069662,-4.60822461280236,-50.7515068284124
1658789947648883,19.9282825970854,-7.537956816968062,-54.41367208361953
1658789947664871,18.58548867017612,-9.002822919050914,-56.54993514915691
1658789947680858,17.60891126878755,-8.941786831464015,-60.51728084229808
1658789947696846,19.501029983978015,-9.063859006637585,-66.13260090028234
1658789947712833,26.337071793697987,-8.026245517662346,-69.36751354238186
1658789947728820,24.444953078507524,-10.650797283894008,-70.5271992065309
1658789947744808,26.886396581978943,-12.542915999084471,-72.78553444724184
1658789947760795,32.501716639963206,-11.383230334935433,-76.26459143968873
1658789947776783,34.2107270923932,-9.491111619745197,-79.13328755626753
1658789947792785,38.48325322346818,-9.002822919050914,-81.08644235904467
1658789947808773,38.849469748988895,-10.284580758373295,-83.9551384756237
1658789947824760,33.722438391698915,-11.01701380941472,-87.00694285496297
1658789947840747,29.571984435797503,-11.749446860456146,-87.49523155565726
1658789947856735,29.633020523384403,-12.298771648737329,-86.64072632944226
1658789947872722,33.17311360341796,-9.613183794918768,-88.10559243152511
1658789947888710,34.02761882963296,-7.782101167315204,-92.25604638742652
1658789947904697,30.670634012359642,-9.796292057679011,-95.4299229419396
1658789947920684,33.17311360341796,-11.627374685282575,-96.22339208056769
1658789947936672,37.44563973449294,-8.941786831464015,-95.91821164263388
1658789947952659,35.91973754482319,-6.744487678339738,-96.34546425574126
1658789947968647,36.89631494621176,-4.9134050507361735,-100.00762951094839
1658789947984634,34.45487144274034,-8.270389868009488,-103.24254215304813
1658789948000621,28.16815442130155,-10.467689021133765,-101.47249561303124
1658789948016609,27.496757457846797,-7.4158846417944915,-98.3596551461053
1658789948032596,28.229190508888223,-4.180971999694748,-98.23758297093173
1658789948048584,26.214999618524416,-5.2185854886702145,-98.78690775921268
1658789948064571,19.9282825970854,-7.598992904554734,-99.33623254749386
1658789948080558,24.567025253681095,-4.119935912108076,-100.19073777370886
1658789948096546,37.07942320897223,0.8850232700083325,-99.2141603723203
1658789948112548,40.80262455176603,2.04470893415737,-94.88059815365841
1658789948128536,43.48821240558459,1.983672846570471,-93.04951552605462
1658789948144523,40.192263675898175,-0.6408789196611906,-94.63645380331127
1658789948160511,34.51590753032724,-2.7771419851987957,-93.72091248950937
1658789948176498,31.280994888227497,-0.7629510948347615,-87.31212329289679
1658789948192485,25.543602655069662,4.669260700389032,-83.71099412527656
1658789948208473,24.322880903333953,7.17174029144735,-87.6783398184175
1658789948224460,29.14473182269012,6.195162890058782,-91.34050507362463
1658789948240448,34.51590753032724,0.8239871824216607,-86.94590676737607
1658789948256435,31.586175326161538,1.5564202334630863,-79.316395819028
1658789948272422,21.942473487449433,4.974441138323073,-79.56054016937514
1658789948288410,14.251926451514464,5.401693751430457,-83.46684977492941
1658789948304397,9.796292057679011,2.7161058976118966,-81.63576714732585
1658789948320385,10.711833371480907,2.7771419851987957,-75.71526665140755
1658789948336372,13.275349050125897,8.392462043183059,-72.48035400930803
1658789948352359,9.124895094224485,12.176699473563758,-74.18936446173802
1658789948368347,8.51453421835663,10.772869459067579,-75.22697795071326
1658789948384334,8.6366063935302,6.927595941100208,-71.50377660791946
1658789948400322,7.721065079728305,8.087281605249018,-66.07156481269544
1658789948416309,8.209353780422589,13.214312962538997,-65.21705958648045
1658789948432281,11.871519035629717,12.909132524605184,-67.17021438925758
1658789948448269,16.32715342946517,9.124895094224485,-64.9729152361333
1658789948464256,15.777828641183987,7.2938124666209205,-59.29655909056237
1658789948480243,8.575570305943302,10.345616845960194,-53.98641947051192
1658789948496231,5.096513313496644,12.909132524605184,-51.78912031738764
1658789948512218,1.9226367589837992,13.153276874952326,-50.44632639047836
1658789948528205,10.223544670786623,16.571297779812312,-46.11276417181671
1658789948544193,15.533684290836845,19.562066071564686,-38.91050583657602
1658789948560180,10.650797283894008,18.82963302052326,-31.036850537880355
1658789948576168,3.6316472114137923,15.411612115663274,-25.48256656748299
1658789948592155,1.983672846570471,13.45845731288614,-20.35553521019301
1658789948608142,4.364080262455218,13.76363775082018,-12.4208438239109
1658789948624130,5.2185854886702145,11.871519035629717,-2.227817196917613
1658789948640117,6.683451590753066,8.880750743877343,7.232776379034021
1658789948656105,-1.9226367589837992,4.60822461280236,15.533684290836845
1658789948672092,-7.11070420386045,3.936827649347606,21.57625696192872
1658789948688079,-7.660028992141633,5.584802014190927,27.92401007095441
1658789948704067,-7.232776379034021,3.570611123826893,35.18730449378177
1658789948720054,-9.063859006637585,0.5798428320745188,42.02334630350174
1658789948736042,-16.32715342946517,0.213626306553806,48.6152437628748
1658789948752044,-20.660715648126825,1.0070954451819034,55.51232166018144
1658789948768032,-20.11139085984587,0.09155413138023505,62.348363469901415
1658789948784019,-19.439993896391115,-2.532997634851654,67.17021438925804
1658789948800006,-22.79697871366443,-5.157549401083315,69.61165789272945
1658789948815994,-22.980086976424673,-7.049668116273779,74.98283360036658
1658789948831981,-23.590447852292527,-9.246967269398056,82.79545281147512
1658789948847969,-26.764324406805372,-14.068818188753994,87.86144808117797
1658789948863956,-29.08369573510322,-18.036163881895163,89.20424200808748
1658789948879943,-27.80193789578084,-17.60891126878755,91.5236133363851
1658789948895931,-25.60463874265656,-17.24269474326684,97.74929427023744
1658789948911918,-25.36049439230942,-19.501029983978015,102.69321736476695
1658789948927906,-26.459143968871558,-22.003509575036105,104.21911955443647
1658789948943893,-30.60959792477297,-22.003509575036105,104.2801556420236
1658789948959880,-31.525139238574866,-15.594720378423744,105.50087739375931
1658789948975868,-29.938200961318216,-11.810482948043045,107.57610437170979
1658789948991855,-29.938200961318216,-14.557106889448278,108.67475394827215
1658789949007843,-32.806897077897474,-17.66994735637445,108.49164568551168
1658789949023830,-35.370412756542464,-16.632333867398984,109.04097047379264
1658789949039817,-30.36545357442583,-13.885709925993751,110.87205310139643
1658789949055805,-24.872205691615136,-14.251926451514464,113.19142442969405
1658789949071777,-20.294499122606112,-17.42580300602731,113.92385748073548
1658789949087764,-19.80621042191183,-19.317921721217544,112.82520790417357
1658789949103752,-24.01770046540014,-17.24269474326684,113.31349660486785
1658789949119739,-29.816128786144645,-15.655756466010416,118.31845578698403
1658789949135727,-40.680552376592686,-14.862287327382319,120.82093537804212
1658789949151714,-47.88281071183337,-13.824673838406852,116.06012054627308
1658789949167701,-51.66704814221407,-17.059586480506596,111.7265583276112
1658789949183689,-54.04745555809882,-19.256885633630873,111.97070267795834
1658789949199676,-45.92965590905624,-10.711833371480907,111.78759441519787
1658789949215664,-34.027618829633184,-2.532997634851654,106.84367132066836
1658789949231651,-29.38887617303726,-3.692683299000464,101.96078431372553
1658789949247638,-30.4264896620125,-6.012054627298312,98.78690775921268
1658789949263626,-28.473334859235365,-0.2746623941404778,95.42992294193937
1658789949279613,-18.82963302052326,3.936827649347606,94.14816510261699
1658789949295601,-14.92332341496899,0.03051804379333589,96.10131990539412
1658789949311588,-16.388189517051842,-3.4485389486533222,93.04951552605507
1658789949327575,-25.17738612954895,0.213626306553806,84.68757152666512
1658789949343563,-27.679865720607268,4.852368963149502,79.19432364385466
1658789949359550,-17.059586480506596,5.645838101777599,80.17090104524323
1658789949375537,-11.01701380941472,2.7771419851987957,83.40581368734274
1658789949391540,-15.472648203250174,2.410925459678083,80.96437018387132
1658789949407528,-25.726710917830133,5.0354772259097444,72.17517357137422
1658789949423515,-30.4875257495994,7.782101167315204,66.9260700389109
1658789949439502,-21.39314869916825,9.55214770733187,68.51300831616709
1658789949455490,-13.275349050125897,9.185931181811156,69.48958571755566
1658789949471477,-14.007782101167322,11.627374685282575,64.72877088578662
1658789949487465,-19.9282825970854,13.092240787365427,58.86930647745476
1658789949503452,-21.57625696192872,13.092240787365427,56.48889906157001
1658789949519439,-14.251926451514464,12.298771648737329,54.352635996032404
1658789949535427,-7.4158846417944915,12.481879911497572,52.52155336842907
1658789949551414,-6.317235065232353,15.289539940489703,48.31006332494053
1658789949567402,-14.190890363927565,18.341344319828977,42.26749065384888
1658789949583389,-27.313649195086555,15.167467765316132,36.89631494621176
1658789949599376,-33.78347447928604,7.904173342488775,33.3562218661782
1658789949615364,-30.54856183718607,3.692683299000464,30.54856183718607
1658789949631351,-19.1348134584573,7.354848554207592,24.811169604028237
1658789949647338,-8.880750743877343,9.796292057679011,16.998550392919697
1658789949663326,-11.261158159761862,4.791332875562603,9.430075532158298
1658789949679313,-9.002822919050914,0.15259021896690683,5.0354772259097444
1658789949695301,2.7771419851987957,2.410925459678083,0.5188067444876197
1658789949711273,14.740215152208748,5.401693751430457,-5.76791027695117
1658789949727260,11.566338597695903,-0.2746623941404778,-12.23773556115043
1658789949743248,10.406652933546866,-3.1433585107195086,-18.646524757763018
1658789949759235,14.92332341496899,0.09155413138023505,-25.42153047989609
1658789949775222,21.087968261234437,0.7629510948347615,-31.830319676508907
1658789949791210,20.965896086060866,-1.4343480582895154,-38.178072785534596
1658789949807197,13.64156557564661,-4.364080262455218,-42.38956282902268
1658789949823185,5.828946364538069,-7.049668116273779,-45.50240329594885
1658789949839172,9.613183794918768,-6.378271152819025,-50.62943465323883
1658789949855159,15.594720378423744,-5.584802014190927,-57.34340428778523
1658789949871147,17.181658655680167,-8.148317692835917,-63.56908522163735
1658789949887134,22.73594262607753,-11.20012207217519,-67.5364309147783
1658789949903122,30.853742275120112,-8.880750743877343,-71.62584878309303
1658789949919109,38.78843366140222,-6.073090714885211,-75.59319447623398
1658789949935096,36.53009842069105,-8.087281605249018,-78.52292668039968
1658789949951084,25.29945830472252,-14.007782101167322,-84.07721065079727
1658789949967071,23.346303501945386,-16.02197299153113,-87.49523155565726
1658789949983059,35.065232318608196,-11.871519035629717,-87.6783398184175
1658789949999046,40.61951628900579,-7.965209430075447,-88.89906157015321
1658789950015033,35.065232318608196,-10.223544670786623,-92.98847943846795
1658789950031036,26.82536049439227,-14.92332341496899,-98.84794384679958
1658789950047023,25.970855268177274,-16.44922560463874,-98.2986190585184
1658789950063011,38.0560006103608,-9.979400320439481,-95.91821164263388
1658789950078998,39.45983062485675,-6.439307240405924,-96.52857251850173
1658789950094986,33.4172579537651,-14.068818188753994,-98.78690775921268
1658789950110973,29.571984435797503,-15.533684290836845,-101.10627908751053
1658789950126960,34.2717631799801,-10.223544670786623,-104.64637216754409
1658789950142948,42.57267109178292,-7.2938124666209205,-106.23331044480051
1658789950158935,47.6997024490729,-9.369039444571627,-103.66979476615552
1658789950174923,40.375371938658645,-14.190890363927565,-101.71663996337838
1658789950190910,30.914778362706784,-13.76363775082018,-104.09704737926313
1658789950206897,29.08369573510322,-9.430075532158298,-109.22407873655311
1658789950222885,36.95735103379866,-6.561379415579495,-113.00831616693381
1658789950238872,43.9154650186922,-5.2185854886702145,-110.81101701380953
1658789950254860,43.61028458075816,-7.354848554207592,-104.1580834668498
1658789950270847,36.163881895170334,-7.537956816968062,-101.10627908751053
1658789950286834,28.900587472342977,-7.4158846417944915,-102.51010910200671
1658789950302822,27.679865720607268,-3.2043945983061803,-103.3035782406348
1658789950318809,32.01342793926892,3.5095750362402214,-105.0125886930648
1658789950334797,34.69901579308748,2.3498893720911838,-104.58533607995741
1658789950350769,36.22491798275723,-5.3406576638437855,-100.49591821164267
1658789950366756,36.10284580758366,-4.180971999694748,-96.04028381780745
1658789950382743,36.10284580758366,3.570611123826893,-96.52857251850173
1658789950398731,39.45983062485675,5.462729839017356,-100.06866559853529
1658789950414718,43.36614023041102,-0.2746623941404778,-96.89478904402245
1658789950430706,34.33279926756677,-0.7629510948347615,-90.54703593499653
1658789950446693,17.36476691844041,2.8381780727854675,-89.26527809567392
1658789950462680,13.64156557564661,4.669260700389032,-88.9600976577401
1658789950478668,15.594720378423744,2.7161058976118966,-83.58892195010299
1658789950494655,15.838864728770886,4.180971999694748,-78.82810711833372
1658789950510643,12.054627298390187,8.819714656290444,-80.41504539559014
1658789950526630,12.909132524605184,10.833905546654478,-80.23193713282967
1658789950542617,13.946746013580423,8.880750743877343,-75.71526665140755
1658789950558605,9.73525597009234,5.462729839017356,-70.83237964446471
1658789950574592,6.134126802471883,9.430075532158298,-69.36751354238186
1658789950590580,7.232776379034021,14.435034714274707,-71.19859616998542
1658789950606567,17.54787518120088,15.411612115663274,-70.95445181963828
1658789950622554,25.116350041962278,11.139085984588291,-65.27809567406734
1658789950638542,24.383916990920852,15.228503852903032,-59.05241474021523
1658789950654529,5.706874189364498,20.538643472953254,-57.587548638132375
1658789950670532,1.5564202334630863,21.27107652399468,-56.48889906157024
1658789950686519,6.8665598535133086,18.463416495002548,-50.995651178759545
1658789950702507,19.9893186846723,22.919050888838,-41.962310215915295
1658789950718494,13.64156557564661,20.35553521019301,-33.41725795376533
1658789950734481,5.2185854886702145,14.068818188753994,-28.778515297169406
1658789950750469,-2.7771419851987957,9.55214770733187,-21.942473487449433
1658789950766456,-5.889982452124741,8.880750743877343,-12.664988174258042
1658789950782444,-4.119935912108076,8.575570305943302,-2.8992141603723667
1658789950798431,-5.95101853971164,5.584802014190927,6.561379415579495
1658789950814418,-9.185931181811156,3.4485389486533222,14.129854276340893
1658789950830406,-9.85732814526591,4.303044174868319,20.416571297779683
1658789950846393,-11.383230334935433,5.0354772259097444,27.74090180819394
1658789950862381,-15.167467765316132,2.9602502479590385,35.004196231021524
1658789950878368,-18.219272144655406,0.2746623941404778,42.32852674143578
1658789950894355,-18.097199969481835,-1.5564202334630863,47.57763027389933
1658789950910343,-16.510261692225413,-2.4719615472647547,52.88776989394955
1658789950926330,-16.510261692225413,-3.7537193865873633,59.35759517814904
1658789950942318,-16.510261692225413,-5.706874189364498,63.75219348439805
1658789950958305,-18.158236057068734,-9.369039444571627,66.74296177615042
1658789950974292,-17.975127794308264,-11.01701380941472,70.58823529411802
1658789950990295,-16.998550392919697,-11.322194247348762,75.47112230106086
1658789951006282,-17.059586480506596,-13.397421225299468,80.2319371328299
1658789951022270,-20.782787823300396,-14.92332341496899,83.9551384756237
1658789951038257,-24.567025253681095,-13.58052948805971,86.03036545357463
1658789951054245,-26.6422522316318,-11.505302510109004,86.64072632944226
1658789951070232,-27.374685282673227,-11.505302510109004,88.83802548256654
1658789951086219,-28.595407034408936,-13.397421225299468,90.97428854810414
1658789951102207,-28.717479209582507,-12.4208438239109,92.92744335088128
1658789951118194,-25.36049439230942,-7.2938124666209205,94.69748989089794
1658789951134182,-29.14473182269012,-6.805523765926637,95.4909590295265
1658789951150169,-29.449912260623933,-8.51453421835663,94.08712901503031
1658789951166156,-27.130540932326085,-8.697642481116873,92.8664072632946
1658789951182144,-19.9282825970854,-5.889982452124741,95.4909590295265
1658789951198131,-17.730983443961122,-5.828946364538069,100.00762951094839
1658789951214119,-21.759365224688963,-9.124895094224485,102.87632562752742
1658789951230106,-28.717479209582507,-11.993591210803288,102.26596475165934
1658789951246093,-32.6848249027239,-10.528725108720437,99.70244907301458
1658789951262081,-25.665674830243233,-4.242008087281647,100.06866559853506
1658789951278068,-21.69832913710229,-0.7019150072480898,103.97497520408933
1658789951294056,-25.17738612954895,-4.791332875562603,105.92813000686647
1658789951310028,-33.78347447928604,-6.378271152819025,102.08285648889932
1658789951326015,-43.427176317998146,-1.4343480582895154,97.81033035782411
1658789951342002,-40.1922636758984,3.692683299000464,95.91821164263365
1658789951357990,-28.04608224612798,3.814755474174035,98.2986190585184
1658789951373977,-24.505989166094423,2.7161058976118966,102.0218204013122
1658789951389965,-33.478294041352,1.3733119707026162,100.92317082475029
1658789951405952,-40.13122758831173,0.7629510948347615,96.65064469367508
1658789951421939,-33.78347447928604,4.364080262455218,95.30785076676602
1658789951437927,-21.14900434882111,8.758678568703772,98.05447470817126
1658789951453914,-14.373998626688035,6.622415503166167,101.65560387579171
1658789951469902,-22.003509575036105,4.364080262455218,100.00762951094839
1658789951485889,-31.158922713053926,8.392462043183059,90.97428854810414
1658789951501876,-26.947432669565842,18.097199969481835,84.01617456321082
1658789951517864,-21.881437399862534,18.402380407415876,85.90829327840083
1658789951533851,-18.58548867017612,11.261158159761862,90.05874723430225
1658789951549839,-24.628061341267994,9.369039444571627,88.77698939497986
1658789951565826,-32.99000534065772,13.58052948805971,84.19928282597084
1658789951581813,-42.20645456626244,12.970168612191856,80.78126192111085
1658789951597801,-44.464789806973386,6.195162890058782,79.07225146868086
1658789951613788,-34.149691004806755,7.721065079728305,76.81391622796991
1658789951629791,-19.9893186846723,15.411612115663274,72.60242618448183
1658789951645778,-13.153276874952326,18.158236057068734,66.9260700389109
1658789951661766,-12.4208438239109,16.1440451667047,62.714579995422355
1658789951677753,-15.228503852903032,16.510261692225413,60.27313649195048
1658789951693740,-18.646524757763018,19.317921721217544,57.16029602502476
1658789951709728,-20.782787823300396,16.876478217746126,53.19295033188337
1658789951725715,-29.816128786144645,11.688410772869474,50.14114595254432
1658789951741703,-36.4080262455177,8.148317692835917,46.60105287251076
1658789951757690,-42.14541847867554,8.941786831464015,41.04676890211317
1658789951773677,-42.45059891660958,9.73525597009234,34.57694361791391
1658789951789665,-41.53505760280768,4.730296787975931,28.107118333714652
1658789951805652,-42.02334630350197,-1.983672846570471,23.285267414358714
1658789951821640,-33.60036621652557,-3.997863736934505,20.23346303501944
1658789951837627,-14.251926451514464,0.6408789196611906,14.435034714274707
1658789951853614,3.692683299000464,0.8239871824216607,5.401693751430457
1658789951869602,11.505302510109004,-2.7771419851987957,-3.0212863355459376
1658789951885589,14.862287327382319,-2.5940337224383256,-10.223544670786623
1658789951901577,16.571297779812312,-3.2654306858930795,-17.54787518120088
1658789951917564,19.80621042191183,-5.0354772259097444,-23.407339589532285
1658789951933551,20.35553521019301,-5.279621576256886,-28.595407034408936
1658789951949524,13.397421225299468,-6.8665598535133086,-34.94316014343485
1658789951965511,5.523765926604028,-8.51453421835663,-41.59609369039458
1658789951981498,5.523765926604028,-10.528725108720437,-47.45555809872599
1658789951997486,9.369039444571627,-10.040436408026153,-53.803311207751676
1658789952013473,22.003509575036105,-5.3406576638437855,-59.90691996643022
1658789952029461,32.562752727550105,-3.2654306858930795,-64.60669871061259
1658789952045448,30.670634012359642,-6.744487678339738,-68.87922484168757
1658789952061435,25.787747005416804,-11.810482948043045,-76.14251926451516
1658789952077423,22.61387045090396,-14.129854276340893,-83.77203021286323
1658789952093410,27.74090180819394,-9.246967269398056,-88.41077286945892
1658789952109398,43.18303196765078,-6.134126802471883,-90.73014419775677
1658789952125385,55.1461051346605,-5.706874189364498,-91.03532463569081
1658789952141372,52.094300755321456,-8.148317692835917,-91.76775768673224
1658789952157360,42.08438239108864,-9.613183794918768,-94.14816510261699
1658789952173347,34.821087968261054,-9.67421988250544,-95.18577859159245
1658789952189334,30.853742275120112,-12.848096437018285,-93.72091248950937
1658789952205322,30.73167009994654,-10.040436408026153,-93.47676813916223
1658789952221309,33.29518577859153,-8.33142595559616,-95.67406729228674
1658789952237297,31.219958800640825,-8.45349813076973,-96.83375295643555
1658789952253284,31.280994888227497,-8.697642481116873,-96.52857251850173
1658789952269287,32.86793316548392,-4.119935912108076,-98.78690775921268
1658789952285274,32.62378881513678,-0.7629510948347615,-104.89051651789123
1658789952301262,29.633020523384403,-2.04470893415737,-106.23331044480051
1658789952317249,24.994277866788707,1.4953841458761872,-100.98420691233696
1658789952333236,28.96162355992965,5.76791027695117,-98.78690775921268
1658789952349224,40.375371938658645,5.645838101777599,-95.97924773022055
1658789952365211,38.849469748988895,3.6316472114137923,-87.61730373083083
1658789952381199,36.591134508277946,10.284580758373295,-84.87067978942537
1658789952397186,42.02334630350174,15.167467765316132,-89.93667505912867
1658789952413173,41.7792019531546,9.491111619745197,-88.47180895704582
1658789952429161,37.93392843518723,9.85732814526591,-79.68261234454872
1658789952445148,31.280994888227497,13.885709925993751,-77.54634927901111
1658789952461135,30.73167009994654,14.190890363927565,-85.78622110322726
1658789952477123,32.257572289616064,9.002822919050914,-91.40154116121153
1658789952493110,26.214999618524416,6.805523765926637,-87.25108720531011
1658789952509098,18.341344319828977,12.176699473563758,-79.62157625696182
1658789952525085,15.228503852903032,14.557106889448278,-79.49950408178825
1658789952541072,20.538643472953254,12.115663385976859,-86.45761806668179
1658789952557060,20.904859998473967,6.073090714885211,-87.6783398184175
1658789952573047,22.186617837796575,7.965209430075447,-82.67338063630109
1658789952589019,22.552834363317288,14.190890363927565,-77.54634927901111
1658789952605007,26.153963530937517,13.336385137712568,-80.170901045243
1658789952620994,27.191577019912984,8.819714656290444,-83.46684977492941
1658789952636982,24.01770046540014,11.505302510109004,-82.00198367284656
1658789952652969,20.05035477225897,15.167467765316132,-78.88914320592039
1658789952668956,23.224231326771815,15.228503852903032,-79.37743190661467
1658789952684944,21.026932173647538,11.688410772869474,-81.33058670939181
1658789952700931,19.439993896391115,8.575570305943302,-78.76707103074682
1658789952716919,18.76859693293659,11.01701380941472,-73.64003967345684
1658789952732906,17.24269474326684,15.045395590142562,-71.62584878309303
1658789952748893,19.256885633630873,13.519493400473038,-74.06729228656445
1658789952764881,13.397421225299468,7.354848554207592,-72.66346227206827
1658789952780868,8.392462043183059,7.232776379034021,-65.94949263752187
1658789952796856,13.275349050125897,10.772869459067579,-61.371786068513074
1658789952812843,16.08300907911803,10.955977721828049,-59.54070344090951
1658789952828830,15.594720378423744,5.523765926604028,-58.503089951934044
1658789952844818,17.730983443961122,3.875791561760934,-55.63439383535524
1658789952860805,12.542915999084471,9.369039444571627,-44.15960936903957
1658789952876793,7.598992904554734,13.031204699778755,-34.57694361791414
1658789952892780,8.880750743877343,12.664988174258042,-30.975814450293683
1658789952908783,10.650797283894008,13.946746013580423,-27.61882963302037
1658789952924770,15.350576028076603,18.219272144655406,-21.087968261234437
1658789952940757,8.45349813076973,17.120622568093268,-13.031204699778755
1658789952956745,3.3264667734797513,11.810482948043045,-6.439307240405924
1658789952972732,3.5095750362402214,9.796292057679011,1.0681315327688026
1658789952988720,0.2746623941404778,9.430075532158298,10.589761196307336
1658789953004707,-5.279621576256886,7.537956816968062,19.378957808804444
1658789953020694,-7.843137254901876,4.669260700389032,27.92401007095441
1658789953036682,-8.6366063935302,3.692683299000464,36.163881895170334
1658789953052669,-10.406652933546866,4.42511635004189,44.037537193865774
1658789953068657,-15.10643167772946,2.166781109330941,52.46051728084194
1658789953084644,-18.82963302052326,-0.8239871824216607,59.23552300297524
1658789953100631,-21.087968261234437,-3.997863736934505,65.27809567406757
1658789953116619,-19.1348134584573,-5.3406576638437855,70.40512703135755
1658789953132606,-17.914091706721592,-6.439307240405924,76.69184405279657
1658789953148594,-21.27107652399468,-10.223544670786623,82.55130846112797
1658789953164581,-27.313649195086555,-13.76363775082018,86.27450980392177
1658789953180568,-27.80193789578084,-13.397421225299468,90.91325246051747
1658789953196556,-28.351262684061794,-12.970168612191856,96.77271686884887
1658789953212543,-28.778515297169406,-14.251926451514464,101.77767605096506
1658789953228546,-25.60463874265656,-16.26611734187827,105.92813000686647
1658789953244533,-27.252613107499656,-17.303730830853738,111.54345006485073
1658789953260521,-34.63797970550104,-17.853055619134693,114.83939879453737
1658789953276508,-40.619516289006015,-18.280308232242305,114.22903791866929
1658789953292495,-41.0467689021134,-21.57625696192872,112.33691920347928
1658789953308483,-39.15465018692316,-27.130540932326085,114.29007400625642
1658789953324470,-40.98573281452673,-26.886396581978943,119.05088883802546
1658789953340458,-40.2532997634853,-23.529411764705856,120.94300755321592
1658789953356445,-41.22987716487387,-23.285267414358714,121.12611581597639
1658789953372432,-43.61028458075839,-25.543602655069662,118.98985275043879
1658789953388420,-49.83596551461051,-22.308690012970146,115.08354314488452
1658789953404407,-46.35690852216385,-16.876478217746126,114.53421835660356
1658789953420395,-43.121995880064105,-15.777828641183987,119.23399710078593
1658789953436382,-42.20645456626244,-15.228503852903032,119.23399710078593
1658789953452369,-43.305104142824575,-16.02197299153113,113.31349660486785
1658789953468357,-43.9765011062791,-16.02197299153113,107.45403219653645
1658789953484344,-42.14541847867554,-14.373998626688035,107.57610437170979
1658789953500332,-40.07019150072483,-9.430075532158298,110.20065613794168
1658789953516319,-33.051041428244616,-6.927595941100208,110.07858396276788
1658789953532306,-31.342030975814623,-10.101472495613052,103.42565041580838
1658789953548278,-32.6848249027239,-7.965209430075447,95.06370641641888
1658789953564266,-34.21072709239343,-2.410925459678083,91.58464942397222
1658789953580253,-31.647211413748437,2.04470893415737,90.60807202258366
1658789953596241,-28.04608224612798,-1.3733119707026162,86.64072632944226
1658789953612228,-27.92401007095441,-4.60822461280236,79.74364843213561
1658789953628215,-24.322880903333953,-1.0681315327688026,77.79049362935848
1658789953644203,-14.80125123979542,8.819714656290444,74.98283360036658
1658789953660190,-17.181658655680167,11.444266422522333,66.86503395132377
1658789953676178,-21.33211261158158,3.814755474174035,63.63012130922425
1658789953692165,-20.294499122606112,1.739528496223329,67.10917830167091
1658789953708152,-21.57625696192872,5.157549401083315,67.59746700236519
1658789953724140,-25.848783093003703,8.575570305943302,61.9211108567938
1658789953740127,-29.20576791027679,7.4158846417944915,56.183718623636196
1658789953756115,-28.04608224612798,3.814755474174035,55.2681773098343
1658789953772102,-16.876478217746126,7.965209430075447,56.0616464484624
1658789953788089,-11.627374685282575,11.627374685282575,50.32425421530479
1658789953804077,-15.289539940489703,9.67421988250544,43.42717631799792
1658789953820064,-20.35553521019301,5.706874189364498,42.45059891660935
1658789953836052,-33.60036621652557,4.547188525215461,37.811856260013656
1658789953852039,-42.51163500419625,5.3406576638437855,26.764324406805372
1658789953868042,-47.57763027389956,1.8616006713969,20.416571297779683
1658789953884029,-57.465476462958804,-7.11070420386045,20.965896086060866
1658789953900016,-56.061646448462625,-16.02197299153113,21.820401312275862
1658789953916004,-43.427176317998146,-19.073777370870403,18.58548867017612
1658789953931991,-25.116350041962278,-16.388189517051842,9.918364232852582
1658789953947979,-3.2043945983061803,-12.359807736324,-1.2512397955290453
1658789953963966,13.031204699778755,-8.209353780422589,-11.444266422522333
1658789953979953,22.430762188143717,-4.669260700389032,-19.1348134584573
1658789953995941,23.468375677118956,-7.354848554207592,-24.933241779201808
1658789954011928,17.79201953154802,-14.373998626688035,-31.219958800640825
1658789954027916,10.528725108720437,-19.195849546043974,-37.44563973449317
1658789954043903,7.598992904554734,-16.44922560463874,-43.06095979247743
1658789954059890,7.476920729381163,-14.862287327382319,-48.06591897459384
1658789954075878,4.180971999694748,-17.059586480506596,-54.10849164568549
1658789954091865,1.8616006713969,-19.439993896391115,-59.90691996643022
1658789954107853,12.603952086671143,-16.876478217746126,-63.01976043335617
1658789954123840,27.496757457846797,-13.64156557564661,-67.9636835278859
1658789954139827,37.87289234760033,-16.754406042572555,-73.02967879758899
1658789954155815,41.22987716487364,-17.60891126878755,-76.14251926451516
1658789954171802,38.727397573815324,-19.01274128328373,-79.80468451972229
1658789954187774,35.49248493171581,-19.195849546043974,-84.87067978942537
1658789954203762,35.91973754482319,-19.378957808804444,-89.08216983291368
1658789954219749,32.01342793926892,-20.11139085984587,-91.82879377431891
1658789954235736,23.346303501945386,-22.003509575036105,-91.5236133363851
1658789954251724,16.693369954985883,-20.782787823300396,-92.01190203707938
1658789954267711,15.289539940489703,-18.463416495002548,-96.10131990539412
1658789954283699,16.2050812542916,-17.853055619134693,-100.49591821164267
1658789954299686,19.9893186846723,-17.914091706721592,-100.98420691233696
1658789954315673,26.031891355763946,-15.411612115663274,-98.66483558403911
1658789954331661,28.656443121995835,-13.64156557564661,-99.09208819714672
1658789954347648,28.839551384756078,-14.496070801861606,-104.58533607995741
1658789954363636,26.214999618524416,-16.571297779812312,-107.20988784618908
1658789954379623,27.374685282673227,-13.031204699778755,-107.82024872205693
1658789954395610,31.464103150987967,-7.354848554207592,-108.67475394827193
1658789954411598,35.85870145723652,-4.852368963149502,-110.32272831311525
1658789954427585,31.342030975814396,-9.67421988250544,-109.95651178759454
1658789954443573,21.51522087434182,-11.810482948043045,-108.49164568551168
1658789954459560,17.60891126878755,-8.026245517662346,-106.41641870756098
1658789954475547,25.665674830243233,-0.09155413138023505,-105.98916609445337
1658789954491535,41.474021515220784,2.4719615472647547,-107.1488517586024
1658789954507507,51.17875944151956,-4.180971999694748,-107.1488517586024
1658789954523494,43.36614023041102,-9.73525597009234,-105.0125886930648
1658789954539482,29.999237048905115,-8.51453421835663,-102.57114518959338
1658789954555469,22.003509575036105,-4.9134050507361735,-101.71663996337838
1658789954571457,21.51522087434182,-4.974441138323073,-100.31280994888243
1658789954587444,17.42580300602731,-6.805523765926637,-98.54276340886554
1658789954603431,17.303730830853738,-4.364080262455218,-100.434882124056
1658789954619419,19.745174334325156,-0.8850232700083325,-99.82452124818815
1658789954635406,18.82963302052326,-1.0070954451819034,-95.18577859159245
1658789954651394,13.031204699778755,-1.0681315327688026,-94.14816510261699
1658789954667381,4.791332875562603,1.6174563210497581,-93.41573205157533
1658789954683368,3.3875028610666504,7.232776379034021,-93.78194857709627
1658789954699356,16.937514305333025,9.918364232852582,-92.62226291294724
1658789954715343,28.412298771648693,7.4158846417944915,-85.66414892805369
1658789954731330,27.130540932326085,5.3406576638437855,-84.01617456321037
1658789954747318,20.721751735713724,5.096513313496644,-88.10559243152511
1658789954763305,13.214312962538997,3.997863736934505,-87.80041199359107
1658789954779293,11.566338597695903,6.744487678339738,-83.34477759975584
1658789954795280,16.08300907911803,13.702601663233281,-79.62157625696182
1658789954811267,17.24269474326684,9.979400320439481,-78.0346379797054
1658789954827270,15.228503852903032,4.852368963149502,-74.00625619897755
1658789954843258,17.059586480506596,13.336385137712568,-67.84161135271233
1658789954859245,25.543602655069662,24.505989166094423,-61.73800259403379
1658789954875232,25.726710917830133,20.599679560540153,-52.58258945601597
1658789954891220,19.195849546043974,14.129854276340893,-45.44136720836195
1658789954907207,15.594720378423744,16.388189517051842,-40.497444113832444
1658789954923195,13.64156557564661,19.073777370870403,-34.63797970550104
1658789954939182,13.824673838406852,15.350576028076603,-27.61882963302037
1658789954955169,7.4158846417944915,9.613183794918768,-17.36476691844041
1658789954971157,0.03051804379333589,8.087281605249018,-7.904173342488775
1658789954987144,-1.2512397955290453,10.406652933546866,1.4953841458761872
1658789955003131,-4.852368963149502,9.491111619745197,11.810482948043045
1658789955019119,-9.124895094224485,6.195162890058782,23.529411764705856
1658789955035106,-12.481879911497572,6.683451590753066,33.29518577859153
1658789955051094,-16.02197299153113,9.002822919050914,42.20645456626221
1658789955067081,-16.26611734187827,7.660028992141633,51.17875944151956
1658789955083068,-14.862287327382319,5.096513313496644,58.80827038986763
1658789955099056,-15.167467765316132,3.1433585107195086,64.05737392233186
1658789955115043,-14.740215152208748,3.5095750362402214,68.0247196154728
1658789955131031,-15.167467765316132,3.3264667734797513,73.64003967345707
1658789955147033,-17.79201953154802,1.8005645838102282,79.68261234454894
1658789955163021,-23.041123064011572,0.2746623941404778,84.56549935149178
1658789955179008,-25.42153047989609,1.2512397955290453,89.08216983291368
1658789955194996,-24.444953078507524,1.0681315327688026,94.5754177157246
1658789955210983,-21.57625696192872,-0.45777065690094787,99.58037689784078
1658789955226970,-22.125581750209676,-4.486152437628789,102.69321736476695
1658789955242958,-24.322880903333953,-9.185931181811156,104.34119172961027
1658789955258945,-25.23842221713585,-10.345616845960194,104.58533607995741
1658789955274932,-21.820401312275862,-9.796292057679011,106.90470740825504
1658789955290920,-25.05531395437538,-11.261158159761862,111.11619745174357
1658789955306907,-27.86297398336751,-11.993591210803288,112.09277485313214
1658789955322895,-34.21072709239343,-12.909132524605184,113.06935225452071
1658789955338882,-34.45487144274057,-13.336385137712568,114.22903791866929
1658789955354869,-37.68978408484031,-11.566338597695903,114.22903791866929
1658789955370857,-39.337758449683406,-10.162508583199724,112.82520790417357
1658789955386844,-35.12626840619532,-9.185931181811156,113.80178530556213
1658789955402832,-34.332799267567,-10.284580758373295,115.26665140764499
1658789955418819,-35.79766536964985,-7.598992904554734,113.67971313038834
1658789955434806,-32.623788815137004,-4.730296787975931,111.29930571450359
1658789955450794,-22.308690012970146,-3.6316472114137923,112.82520790417357
1658789955466766,-15.228503852903032,-0.5798428320745188,115.51079575799213
1658789955482753,-17.853055619134693,2.7771419851987957,112.70313572899977
1658789955498741,-18.158236057068734,2.5940337224383256,108.18646524757787
1658789955514728,-17.60891126878755,3.1433585107195086,108.30853742275121
1658789955530716,-18.76859693293659,5.95101853971164,113.67971313038834
1658789955546703,-24.200808728160382,4.974441138323073,115.99908445868641
1658789955562690,-27.191577019912984,2.227817196917613,109.16304264896644
1658789955578678,-30.36545357442583,-0.213626306553806,101.65560387579171
1658789955594665,-27.74090180819394,3.7537193865873633,100.06866559853506
1658789955610653,-15.838864728770886,11.810482948043045,101.53353170061791
1658789955626640,-8.392462043183059,14.190890363927565,103.48668650339505
1658789955642627,-15.350576028076603,5.157549401083315,103.54772259098218
1658789955658615,-27.679865720607268,5.0354772259097444,95.55199511711317
1658789955674602,-44.58686198214696,9.369039444571627,87.49523155565748
1658789955690590,-45.685511558709095,8.33142595559616,86.94590676737653
1658789955706577,-34.332799267567,1.4953841458761872,88.89906157015366
1658789955722564,-32.806897077897474,0.5188067444876197,85.90829327840083
1658789955738552,-41.16884107728697,2.9602502479590385,77.3022049286642
1658789955754539,-51.85015640497454,3.875791561760934,68.63508049134089
1658789955770527,-44.95307850766767,8.026245517662346,60.88349736781856
1658789955786529,-24.872205691615136,11.505302510109004,55.573357747768114
1658789955802517,-13.58052948805971,12.23773556115043,54.779888609140016
1658789955818504,-13.946746013580423,6.378271152819025,50.99565117875909
1658789955834491,-20.965896086060866,1.739528496223329,40.43640802624532
1658789955850479,-27.98504615854108,-2.7161058976118966,30.121309224078686
1658789955866466,-30.4264896620125,-5.889982452124741,24.07873655298681
1658789955882454,-25.60463874265656,-6.8665598535133086,18.524452582589447
1658789955898441,-17.059586480506596,-6.683451590753066,12.23773556115043
1658789955914428,-13.092240787365427,-7.965209430075447,5.76791027695117
1658789955930416,-9.369039444571627,-10.772869459067579,-2.227817196917613
1658789955946403,-0.9460593575952316,-9.185931181811156,-11.383230334935433
1658789955962391,9.67421988250544,-3.692683299000464,-19.9282825970854
1658789955978378,19.317921721217544,-1.3122758831159445,-26.214999618524416
1658789955994365,19.01274128328373,-5.0354772259097444,-30.4875257495994
1658789956010353,16.2050812542916,-10.772869459067579,-36.652170595864845
1658789956026340,14.007782101167322,-13.702601663233281,-45.563439383535524
1658789956042328,14.190890363927565,-12.054627298390187,-52.82673380636311
1658789956058315,20.538643472953254,-7.965209430075447,-59.23552300297547
1658789956074302,29.571984435797503,-5.645838101777599,-67.35332265201805
1658789956090290,33.844510566872486,-5.95101853971164,-75.34905012588683
1658789956106262,26.52018005645823,-7.537956816968062,-81.025406271458
1658789956122249,22.552834363317288,-9.979400320439481,-85.42000457770655
1658789956138237,27.130540932326085,-9.55214770733187,-88.47180895704582
1658789956154224,33.4172579537651,-7.476920729381163,-92.92744335088105
1658789956170211,42.633707179369594,-6.683451590753066,-96.34546425574126
1658789956186199,47.6997024490729,-6.9886320286868795,-97.5051499198903
1658789956202186,48.79835202563481,-5.157549401083315,-98.90897993438625
1658789956218174,38.0560006103608,-7.049668116273779,-99.39726863508054
1658789956234161,29.38887617303726,-11.810482948043045,-100.3738460364691
1658789956250148,28.900587472342977,-13.45845731288614,-99.03105210955982
1658789956266136,29.816128786144645,-9.491111619745197,-99.33623254749386
1658789956282123,34.08865491721963,-4.242008087281647,-102.75425345235385
1658789956298111,37.567711909666514,-5.279621576256886,-105.9281300068667
1658789956314098,28.96162355992965,-12.664988174258042,-105.43984130617241
1658789956330085,13.702601663233281,-17.059586480506596,-102.99839780270099
1658789956346073,9.918364232852582,-11.993591210803288,-104.46326390478384
1658789956362060,15.350576028076603,-6.012054627298312,-108.7968261234455
1658789956378048,23.773556115052997,-6.9886320286868795,-109.95651178759454
1658789956394035,26.337071793697987,-12.787060349431613,-103.73083085374242
1658789956410022,22.064545662623004,-12.054627298390187,-97.5051499198903
1658789956426025,17.48683909361398,-5.95101853971164,-97.81033035782411
1658789956442012,19.623102159151586,-3.1433585107195086,-100.92317082475029
1658789956458000,20.23346303501944,-6.927595941100208,-100.434882124056
1658789956473987,23.651483939879427,-5.157549401083315,-97.26100556954316
1658789956489975,22.247653925383247,-0.6408789196611906,-97.26100556954316
1658789956505962,26.276035706111088,-0.45777065690094787,-100.12970168612196
1658789956521949,31.158922713053926,-5.706874189364498,-96.6506446936753
1658789956537937,30.121309224078686,-4.180971999694748,-92.25604638742652
