Timestamp (microseconds),Gyro X (°/s),Gyro Y (°/s),Gyro Z (°/s)
1658790118922485,-1.8005645838102282,-0.09155413138023505,1.3122758831159445
1658790118938483,-0.7629510948347615,0.3967345693140487,1.1902037079423735
1658790118954481,0.5188067444876197,0.09155413138023505,0.8850232700083325
1658790118970479,0.8850232700083325,-0.2746623941404778,0.8850232700083325
1658790118986477,0.3967345693140487,-0.15259021896690683,1.2512397955290453
1658790119002474,-1.3122758831159445,0.5188067444876197,1.6784924086366573
1658790119018472,-2.3498893720911838,1.1902037079423735,2.04470893415737
1658790119034470,-2.655069810025225,0.8239871824216607,2.105745021744042
1658790119050468,-2.166781109330941,0.3967345693140487,2.4719615472647547
1658790119066466,0.09155413138023505,0.33569848172737693,2.532997634851654
1658790119082464,0.8239871824216607,0.6408789196611906,2.532997634851654
1658790119098462,1.1291676203554744,0.5798428320745188,1.983672846570471
1658790119114460,-0.3967345693140487,-0.45777065690094787,1.3122758831159445
1658790119130458,-1.3733119707026162,-1.3122758831159445,1.4953841458761872
1658790119146455,-1.983672846570471,-1.4953841458761872,1.983672846570471
1658790119162453,-2.7771419851987957,-0.8850232700083325,2.5940337224383256
1658790119178451,-0.213626306553806,0.09155413138023505,3.1433585107195086
1658790119194449,1.6174563210497581,-0.03051804379333589,2.8992141603723667
1658790119210447,4.364080262455218,-0.5798428320745188,2.4719615472647547
1658790119226445,4.42511635004189,-1.1291676203554744,2.288853284504512
1658790119242431,2.166781109330941,-1.0070954451819034,2.410925459678083
1658790119258429,-0.6408789196611906,-1.0070954451819034,2.7161058976118966
1658790119274427,-3.570611123826893,-1.3122758831159445,2.4719615472647547
1658790119290425,-3.997863736934505,-1.2512397955290453,2.227817196917613
1658790119306423,-2.227817196917613,-1.8005645838102282,1.9226367589837992
1658790119322421,-0.33569848172737693,-2.532997634851654,1.8616006713969
1658790119338419,1.3733119707026162,-2.655069810025225,1.9226367589837992
1658790119354416,1.2512397955290453,-1.9226367589837992,1.6174563210497581
1658790119370414,-1.983672846570471,-1.1902037079423735,1.0681315327688026
1658790119386412,-3.997863736934505,-0.9460593575952316,0.5188067444876197
1658790119402410,-3.3875028610666504,-1.3733119707026162,0.5798428320745188
1658790119418408,-0.3967345693140487,-1.6784924086366573,1.6174563210497581
1658790119434406,1.3122758831159445,-1.739528496223329,2.227817196917613
1658790119450404,0.7629510948347615,-1.3122758831159445,1.6784924086366573
1658790119466402,0.33569848172737693,-0.2746623941404778,1.1902037079423735
1658790119482400,0.03051804379333589,-0.2746623941404778,0.7019150072480898
1658790119498397,-0.33569848172737693,-0.33569848172737693,1.4343480582895154
1658790119514395,-0.09155413138023505,-0.6408789196611906,1.6174563210497581
1658790119530393,-0.3967345693140487,-0.7019150072480898,1.4953841458761872
1658790119546391,-1.2512397955290453,-0.5798428320745188,1.1291676203554744
1658790119562378,-1.1291676203554744,-0.3967345693140487,0.6408789196611906
1658790119578375,-1.1902037079423735,-0.6408789196611906,0.3967345693140487
1658790119594373,-0.45777065690094787,-1.1291676203554744,0.3967345693140487
1658790119610371,1.6784924086366573,-1.3122758831159445,0.8239871824216607
1658790119626369,1.6174563210497581,-1.8005645838102282,0.8239871824216607
1658790119642367,-0.3967345693140487,-2.105745021744042,0.15259021896690683
1658790119658365,-1.0070954451819034,-2.227817196917613,-0.15259021896690683
1658790119674363,0.3967345693140487,-2.410925459678083,0.45777065690094787
1658790119690361,1.4343480582895154,-3.0823224231326094,0.7019150072480898
1658790119706359,0.3967345693140487,-3.2654306858930795,0.5798428320745188
1658790119722356,-1.4343480582895154,-2.655069810025225,0.5798428320745188
1658790119738354,-1.8005645838102282,-1.8005645838102282,0.7629510948347615
1658790119754352,-1.5564202334630863,-1.4343480582895154,1.0681315327688026
1658790119770350,-0.45777065690094787,-2.105745021744042,0.7629510948347615
1658790119786348,0.8850232700083325,-2.410925459678083,0.6408789196611906
1658790119802346,2.04470893415737,-2.3498893720911838,0.6408789196611906
1658790119818344,1.2512397955290453,-1.739528496223329,0.5798428320745188
1658790119834342,-0.15259021896690683,-0.7629510948347615,0.7629510948347615
1658790119850340,-0.09155413138023505,-0.213626306553806,1.1291676203554744
1658790119866337,-0.9460593575952316,-0.2746623941404778,1.6784924086366573
1658790119882293,-0.6408789196611906,-0.8850232700083325,2.227817196917613
1658790119898291,-1.1902037079423735,-1.3122758831159445,2.227817196917613
1658790119914288,-0.33569848172737693,-0.7629510948347615,2.105745021744042
1658790119930286,0.15259021896690683,0.09155413138023505,2.04470893415737
1658790119946283,0.03051804379333589,0.2746623941404778,1.5564202334630863
1658790119962280,0.33569848172737693,0.2746623941404778,1.739528496223329
1658790119978278,1.2512397955290453,-0.03051804379333589,2.04470893415737
1658790119994275,2.105745021744042,-0.03051804379333589,2.4719615472647547
1658790120010273,1.3122758831159445,-0.09155413138023505,2.532997634851654
1658790120026270,-0.5188067444876197,0.09155413138023505,2.410925459678083
1658790120042267,0.33569848172737693,0.7019150072480898,2.3498893720911838
1658790120058265,2.532997634851654,1.5564202334630863,2.288853284504512
1658790120074262,3.7537193865873633,0.6408789196611906,1.739528496223329
1658790120090260,3.2043945983061803,-0.8850232700083325,1.739528496223329
1658790120106257,2.227817196917613,-1.8005645838102282,2.3498893720911838
1658790120122254,0.7019150072480898,-1.4953841458761872,2.7161058976118966
1658790120138252,-1.1291676203554744,-0.7629510948347615,3.0823224231326094
1658790120154249,-2.4719615472647547,-0.5188067444876197,2.655069810025225
1658790120170247,-1.9226367589837992,-0.8239871824216607,2.410925459678083
1658790120186244,0.9460593575952316,-1.3122758831159445,2.3498893720911838
1658790120202118,2.8381780727854675,-1.6784924086366573,2.04470893415737
1658790120218114,2.3498893720911838,-1.739528496223329,1.5564202334630863
1658790120234111,0.09155413138023505,-1.4953841458761872,1.0681315327688026
1658790120250108,-1.3733119707026162,-1.1902037079423735,0.33569848172737693
1658790120266105,-1.5564202334630863,-1.1902037079423735,0.15259021896690683
1658790120282102,-1.4953841458761872,-1.4343480582895154,0.5798428320745188
1658790120298099,-1.5564202334630863,-1.3733119707026162,1.0681315327688026
1658790120314096,-1.0070954451819034,-0.9460593575952316,1.1902037079423735
1658790120330093,-1.0070954451819034,-0.8239871824216607,1.2512397955290453
1658790120346090,0.7629510948347615,-1.2512397955290453,0.3967345693140487
1658790120362087,0.7019150072480898,-2.04470893415737,-0.33569848172737693
1658790120378084,-0.5188067444876197,-2.4719615472647547,-0.33569848172737693
1658790120394081,-0.8850232700083325,-2.288853284504512,-0.33569848172737693
1658790120410078,-0.7019150072480898,-1.6784924086366573,-0.03051804379333589
1658790120426075,-0.3967345693140487,-1.3122758831159445,-0.03051804379333589
1658790120442072,-0.03051804379333589,-1.0070954451819034,-0.09155413138023505
1658790120458068,0.8850232700083325,-1.0681315327688026,-0.15259021896690683
1658790120474065,2.532997634851654,-0.9460593575952316,-0.03051804379333589
1658790120490062,3.2654306858930795,-0.8239871824216607,-0.213626306553806
1658790120506059,1.983672846570471,-0.33569848172737693,-0.3967345693140487
1658790120521942,0.6408789196611906,-0.33569848172737693,-0.7019150072480898
1658790120537938,-1.1902037079423735,-0.6408789196611906,-0.3967345693140487
1658790120553935,-1.3122758831159445,-0.8850232700083325,0.45777065690094787
1658790120569931,-1.3733119707026162,-0.8239871824216607,0.6408789196611906
1658790120585928,-1.2512397955290453,-0.45777065690094787,0.7629510948347615
1658790120601924,-0.3967345693140487,0.03051804379333589,0.5188067444876197
1658790120617921,0.5798428320745188,-0.3967345693140487,0.5798428320745188
1658790120633917,1.9226367589837992,-1.3122758831159445,0.8850232700083325
1658790120649913,1.9226367589837992,-1.9226367589837992,0.8850232700083325
1658790120665910,1.5564202334630863,-1.5564202334630863,0.8239871824216607
1658790120681906,2.655069810025225,-0.5188067444876197,1.0681315327688026
1658790120697903,4.791332875562603,-0.6408789196611906,1.6174563210497581
1658790120713899,4.60822461280236,-1.8005645838102282,1.983672846570471
1658790120729896,6.500343327992596,-2.532997634851654,2.8992141603723667
1658790120745892,5.76791027695117,-2.3498893720911838,3.692683299000464
1658790120761889,2.532997634851654,-2.3498893720911838,3.2654306858930795
1658790120777885,0.5798428320745188,-2.227817196917613,3.0212863355459376
1658790120793882,-0.3967345693140487,-2.7771419851987957,2.410925459678083
1658790120809878,0.5798428320745188,-3.1433585107195086,2.166781109330941
1658790120825874,-0.2746623941404778,-3.814755474174035,1.4953841458761872
1658790120841797,-0.5798428320745188,-4.058899824521177,0.6408789196611906
1658790120857793,1.2512397955290453,-2.9602502479590385,1.0070954451819034
1658790120873789,3.4485389486533222,-1.9226367589837992,1.5564202334630863
1658790120889786,1.8005645838102282,-1.8005645838102282,1.8616006713969
1658790120905782,0.8239871824216607,-1.8005645838102282,1.983672846570471
1658790120921779,3.570611123826893,-1.2512397955290453,2.7161058976118966
1658790120937775,6.012054627298312,-0.8850232700083325,2.7771419851987957
1658790120953772,6.012054627298312,-1.6784924086366573,0.8850232700083325
1658790120969768,4.547188525215461,-2.166781109330941,0.213626306553806
1658790120985765,3.1433585107195086,-2.3498893720911838,0.09155413138023505
1658790121001761,0.5798428320745188,-2.166781109330941,0.03051804379333589
1658790121017758,-1.8005645838102282,-1.4343480582895154,0.5188067444876197
1658790121033754,-2.04470893415737,-1.1291676203554744,0.7629510948347615
1658790121049750,-2.105745021744042,-1.1902037079423735,1.2512397955290453
1658790121065747,-1.0070954451819034,-1.6174563210497581,1.0070954451819034
1658790121081743,0.6408789196611906,-1.4953841458761872,0.7629510948347615
1658790121097740,0.3967345693140487,-0.9460593575952316,0.3967345693140487
1658790121113736,0.45777065690094787,0.213626306553806,0.2746623941404778
1658790121129733,0.33569848172737693,0.8850232700083325,0.03051804379333589
1658790121145729,0.09155413138023505,0.45777065690094787,0.15259021896690683
1658790121161621,-0.213626306553806,-0.3967345693140487,0.15259021896690683
1658790121177617,-2.227817196917613,-0.8850232700083325,0.03051804379333589
1658790121193613,-3.5095750362402214,-0.7019150072480898,-0.3967345693140487
1658790121209609,-2.5940337224383256,-0.213626306553806,-0.7019150072480898
1658790121225605,-1.4953841458761872,0.3967345693140487,-0.6408789196611906
1658790121241601,0.6408789196611906,0.6408789196611906,-0.8239871824216607
1658790121257597,1.6174563210497581,0.33569848172737693,-0.5798428320745188
1658790121273593,1.983672846570471,0.213626306553806,-0.213626306553806
1658790121289589,-0.8850232700083325,0.15259021896690683,-0.03051804379333589
1658790121305585,-3.692683299000464,0.33569848172737693,-0.03051804379333589
1658790121321581,-4.42511635004189,0.7629510948347615,0.03051804379333589
1658790121337576,-2.9602502479590385,0.33569848172737693,0.45777065690094787
1658790121353572,-1.9226367589837992,-0.09155413138023505,0.15259021896690683
1658790121369568,0.7629510948347615,-0.15259021896690683,0.213626306553806
1658790121385564,0.9460593575952316,0.15259021896690683,0.3967345693140487
1658790121401560,1.6174563210497581,0.33569848172737693,0.03051804379333589
1658790121417556,0.8239871824216607,-0.3967345693140487,-0.8239871824216607
1658790121433552,-1.0070954451819034,-1.6174563210497581,-0.5798428320745188
1658790121449548,-2.105745021744042,-1.8616006713969,0.09155413138023505
1658790121465544,-2.9602502479590385,-1.6784924086366573,0.6408789196611906
1658790121481445,-3.3875028610666504,-1.2512397955290453,1.1291676203554744
1658790121497440,-1.4953841458761872,-1.2512397955290453,1.0070954451819034
1658790121513436,0.15259021896690683,-2.04470893415737,0.8850232700083325
1658790121529431,1.1291676203554744,-2.3498893720911838,1.3733119707026162
1658790121545427,2.9602502479590385,-1.9226367589837992,2.105745021744042
1658790121561422,2.8992141603723667,-1.8005645838102282,2.166781109330941
1658790121577418,2.9602502479590385,-1.6784924086366573,2.3498893720911838
1658790121593413,3.3875028610666504,-2.655069810025225,2.105745021744042
1658790121609409,3.1433585107195086,-4.180971999694748,1.5564202334630863
1658790121625404,3.997863736934505,-5.0354772259097444,1.8616006713969
1658790121641400,1.4343480582895154,-5.95101853971164,0.9460593575952316
1658790121657395,-1.2512397955290453,-5.828946364538069,0.03051804379333589
1658790121673391,-1.739528496223329,-4.791332875562603,-0.09155413138023505
1658790121689386,-0.3967345693140487,-4.42511635004189,-0.5798428320745188
1658790121705382,1.4343480582895154,-4.42511635004189,-0.5188067444876197
1658790121721377,2.105745021744042,-4.669260700389032,-0.7019150072480898
1658790121737373,2.04470893415737,-4.364080262455218,0.09155413138023505
1658790121753368,1.0070954451819034,-3.3875028610666504,0.9460593575952316
1658790121769364,-1.0070954451819034,-2.4719615472647547,1.0070954451819034
1658790121785359,-2.5940337224383256,-2.04470893415737,0.8850232700083325
1658790121801269,-2.04470893415737,-1.4953841458761872,0.9460593575952316
1658790121817264,-1.3122758831159445,-1.3733119707026162,0.8239871824216607
1658790121833259,-1.3122758831159445,-1.0070954451819034,1.1291676203554744
1658790121849254,-0.33569848172737693,-0.09155413138023505,0.9460593575952316
1658790121865249,1.0681315327688026,1.4953841458761872,1.3122758831159445
1658790121881244,4.364080262455218,2.7161058976118966,1.9226367589837992
1658790121897239,5.0354772259097444,2.7161058976118966,2.166781109330941
1658790121913234,7.232776379034021,2.4719615472647547,2.655069810025225
1658790121929229,5.706874189364498,1.8616006713969,2.410925459678083
1658790121945224,1.0070954451819034,1.4343480582895154,1.5564202334630863
1658790121961219,-1.8005645838102282,1.1902037079423735,0.2746623941404778
1658790121977214,-3.814755474174035,0.5188067444876197,-1.1902037079423735
1658790121993209,-3.997863736934505,-0.5798428320745188,-2.227817196917613
1658790122009204,-2.4719615472647547,-1.8005645838102282,-3.6316472114137923
1658790122025200,-0.3967345693140487,-2.227817196917613,-3.570611123826893
1658790122041195,1.8616006713969,-1.983672846570471,-2.9602502479590385
1658790122057190,1.1902037079423735,-1.4953841458761872,-2.105745021744042
1658790122073185,0.5188067444876197,-1.2512397955290453,-1.739528496223329
1658790122089180,-0.03051804379333589,-1.2512397955290453,-1.3122758831159445
1658790122105175,-0.03051804379333589,-1.6174563210497581,-0.8850232700083325
1658790122121124,0.15259021896690683,-2.105745021744042,-0.7019150072480898
1658790122137119,0.9460593575952316,-2.7161058976118966,-0.9460593575952316
1658790122153114,0.7629510948347615,-3.0212863355459376,-1.3122758831159445
1658790122169109,1.2512397955290453,-3.5095750362402214,-2.288853284504512
1658790122185104,0.9460593575952316,-3.997863736934505,-2.410925459678083
1658790122201099,-0.09155413138023505,-3.936827649347606,-1.739528496223329
1658790122217094,-1.983672846570471,-3.997863736934505,-1.1902037079423735
1658790122233089,-4.119935912108076,-3.570611123826893,-0.5188067444876197
1658790122249084,-3.692683299000464,-2.9602502479590385,0.09155413138023505
1658790122265079,-2.7771419851987957,-2.532997634851654,0.09155413138023505
1658790122281074,-0.33569848172737693,-2.5940337224383256,0.7629510948347615
1658790122297069,1.5564202334630863,-2.8381780727854675,1.1291676203554744
1658790122313064,2.532997634851654,-2.3498893720911838,1.6174563210497581
1658790122329059,1.3733119707026162,-1.4953841458761872,2.655069810025225
1658790122345054,-0.15259021896690683,-1.3122758831159445,3.4485389486533222
1658790122361049,-2.655069810025225,-0.8850232700083325,4.486152437628789
1658790122377044,-2.3498893720911838,-0.3967345693140487,4.669260700389032
1658790122393039,-1.3122758831159445,0.3967345693140487,4.974441138323073
1658790122409034,0.7019150072480898,0.3967345693140487,5.0354772259097444
1658790122425029,1.6784924086366573,-0.5798428320745188,4.242008087281647
1658790122440979,3.0212863355459376,-1.2512397955290453,4.058899824521177
1658790122456974,1.2512397955290453,-1.4343480582895154,3.936827649347606
1658790122472969,-1.9226367589837992,-0.8239871824216607,4.119935912108076
1658790122488964,-4.974441138323073,-0.33569848172737693,3.814755474174035
1658790122504959,-2.4719615472647547,0.09155413138023505,3.936827649347606
1658790122520954,1.9226367589837992,-0.45777065690094787,3.875791561760934
1658790122536949,3.4485389486533222,-1.8005645838102282,3.1433585107195086
1658790122552944,3.1433585107195086,-2.04470893415737,2.4719615472647547
1658790122568939,1.8005645838102282,-1.4343480582895154,1.739528496223329
1658790122584934,0.09155413138023505,-0.7629510948347615,1.3122758831159445
1658790122600929,-1.3733119707026162,-1.1902037079423735,1.2512397955290453
1658790122616924,-2.4719615472647547,-1.9226367589837992,1.3733119707026162
1658790122632919,-1.6784924086366573,-2.288853284504512,1.4953841458761872
1658790122648914,-0.7629510948347615,-1.8616006713969,1.1291676203554744
1658790122664909,0.5188067444876197,-1.2512397955290453,0.8239871824216607
1658790122680904,0.6408789196611906,-0.5798428320745188,0.213626306553806
1658790122696899,1.0070954451819034,-0.3967345693140487,-0.3967345693140487
1658790122712894,1.8005645838102282,-0.2746623941404778,0.03051804379333589
1658790122728889,1.8005645838102282,-0.7019150072480898,0.33569848172737693
1658790122744884,-0.33569848172737693,-0.8850232700083325,0.213626306553806
1658790122760772,-1.6784924086366573,-0.213626306553806,0.3967345693140487
1658790122776767,-0.8850232700083325,0.09155413138023505,0.33569848172737693
1658790122792761,0.45777065690094787,-0.3967345693140487,0.2746623941404778
1658790122808756,1.6784924086366573,-1.1291676203554744,0.03051804379333589
1658790122824751,0.5188067444876197,-1.5564202334630863,-0.15259021896690683
1658790122840745,-0.5798428320745188,-0.6408789196611906,-0.213626306553806
1658790122856740,-1.4343480582895154,0.03051804379333589,-0.5188067444876197
1658790122872734,-0.213626306553806,-0.15259021896690683,-0.45777065690094787
1658790122888729,0.3967345693140487,-0.8850232700083325,0.213626306553806
1658790122904723,1.2512397955290453,-1.4343480582895154,0.2746623941404778
1658790122920718,0.7629510948347615,-1.1902037079423735,0.2746623941404778
1658790122936712,0.03051804379333589,-0.7629510948347615,0.15259021896690683
1658790122952707,-0.33569848172737693,-0.5188067444876197,0.03051804379333589
1658790122968701,-1.0070954451819034,-0.6408789196611906,-0.213626306553806
1658790122984696,-1.8005645838102282,-1.4343480582895154,-0.213626306553806
1658790123000691,-2.105745021744042,-1.4953841458761872,0.9460593575952316
1658790123016685,-1.6784924086366573,-1.3122758831159445,1.0070954451819034
1658790123032680,-2.3498893720911838,-0.3967345693140487,0.8239871824216607
1658790123048674,-1.5564202334630863,0.5188067444876197,0.5798428320745188
1658790123064669,0.5798428320745188,1.1291676203554744,0.213626306553806
1658790123080597,2.04470893415737,0.8850232700083325,0.2746623941404778
1658790123096591,1.1291676203554744,0.45777065690094787,0.5188067444876197
1658790123112585,-0.213626306553806,0.15259021896690683,0.8850232700083325
1658790123128579,-1.4343480582895154,0.5798428320745188,1.3733119707026162
1658790123144573,-0.9460593575952316,1.1902037079423735,1.739528496223329
1658790123160567,0.09155413138023505,1.4953841458761872,1.5564202334630863
1658790123176561,0.6408789196611906,0.3967345693140487,1.0070954451819034
1658790123192555,1.1902037079423735,-0.8850232700083325,0.8239871824216607
1658790123208549,2.9602502479590385,-1.6174563210497581,1.2512397955290453
1658790123224543,1.0070954451819034,-2.105745021744042,0.7629510948347615
1658790123240537,-1.739528496223329,-2.105745021744042,0.2746623941404778
1658790123256531,-3.875791561760934,-1.6784924086366573,0.45777065690094787
1658790123272525,-3.875791561760934,-1.8005645838102282,0.8850232700083325
1658790123288519,-2.105745021744042,-1.983672846570471,1.3733119707026162
1658790123304514,-0.09155413138023505,-1.8616006713969,1.739528496223329
1658790123320508,1.1902037079423735,-1.5564202334630863,1.739528496223329
1658790123336502,1.739528496223329,-1.1291676203554744,1.3733119707026162
1658790123352496,1.2512397955290453,-1.2512397955290453,0.9460593575952316
1658790123368490,0.8850232700083325,-1.8616006713969,0.5798428320745188
1658790123384484,-0.2746623941404778,-2.4719615472647547,0.5188067444876197
1658790123400421,-1.3733119707026162,-2.410925459678083,0.3967345693140487
1658790123416415,-1.739528496223329,-1.739528496223329,0.7019150072480898
1658790123432409,-0.9460593575952316,-1.1291676203554744,0.8850232700083325
1658790123448403,0.45777065690094787,-1.2512397955290453,1.1291676203554744
1658790123464397,1.5564202334630863,-1.5564202334630863,0.9460593575952316
1658790123480391,1.3733119707026162,-1.5564202334630863,0.6408789196611906
1658790123496385,-0.15259021896690683,-0.7629510948347615,0.3967345693140487
1658790123512379,-1.2512397955290453,-0.6408789196611906,0.33569848172737693
1658790123528373,-1.3122758831159445,-0.6408789196611906,0.8239871824216607
1658790123544367,-1.0681315327688026,-1.0681315327688026,1.0070954451819034
1658790123560361,-1.0681315327688026,-1.1902037079423735,0.7019150072480898
1658790123576356,0.45777065690094787,-0.6408789196611906,0.9460593575952316
1658790123592350,1.6174563210497581,-0.2746623941404778,0.7019150072480898
1658790123608344,-0.15259021896690683,-0.7629510948347615,0.213626306553806
1658790123624338,-2.105745021744042,-1.0070954451819034,0.3967345693140487
1658790123640332,-0.8850232700083325,-1.0070954451819034,0.7629510948347615
1658790123656326,-0.5798428320745188,-0.45777065690094787,1.2512397955290453
1658790123672320,-0.5188067444876197,-0.7019150072480898,1.0681315327688026
1658790123688314,-1.6174563210497581,-1.0681315327688026,0.45777065690094787
1658790123704308,-0.2746623941404778,-1.4343480582895154,0.213626306553806
1658790123720245,1.0070954451819034,-1.6174563210497581,-0.09155413138023505
1658790123736239,1.4343480582895154,-1.2512397955290453,0.2746623941404778
1658790123752232,0.9460593575952316,-0.8850232700083325,0.5188067444876197
1658790123768226,0.8239871824216607,-0.2746623941404778,1.1291676203554744
1658790123784219,0.3967345693140487,-0.15259021896690683,1.6174563210497581
1658790123800213,0.15259021896690683,-0.33569848172737693,1.739528496223329
1658790123816207,1.0681315327688026,-0.7629510948347615,1.4953841458761872
1658790123832200,0.45777065690094787,-0.9460593575952316,1.4953841458761872
1658790123848194,-0.5798428320745188,-1.0681315327688026,1.2512397955290453
1658790123864187,-1.5564202334630863,-0.3967345693140487,1.3733119707026162
1658790123880181,-1.0681315327688026,0.7019150072480898,1.8616006713969
1658790123896175,-1.0681315327688026,0.5188067444876197,2.227817196917613
1658790123912168,-1.3733119707026162,-0.15259021896690683,2.4719615472647547
1658790123928162,-0.3967345693140487,-0.5798428320745188,2.532997634851654
1658790123944155,-0.09155413138023505,0.15259021896690683,3.1433585107195086
1658790123960149,-0.5798428320745188,0.8239871824216607,3.2654306858930795
1658790123976143,0.33569848172737693,1.4953841458761872,2.7161058976118966
1658790123992136,1.4343480582895154,0.9460593575952316,2.166781109330941
1658790124008130,3.0212863355459376,-0.213626306553806,2.227817196917613
1658790124024123,2.4719615472647547,-1.0681315327688026,2.288853284504512
1658790124040069,-0.03051804379333589,-1.1291676203554744,1.983672846570471
1658790124056063,-2.227817196917613,-0.7019150072480898,1.6174563210497581
1658790124072056,-2.4719615472647547,-1.0681315327688026,1.0681315327688026
1658790124088050,-0.6408789196611906,-1.6784924086366573,0.9460593575952316
1658790124104044,0.9460593575952316,-2.7771419851987957,0.7019150072480898
1658790124120037,2.655069810025225,-2.655069810025225,1.1291676203554744
1658790124136031,1.8616006713969,-1.9226367589837992,0.8239871824216607
1658790124152024,0.5188067444876197,-1.3122758831159445,0.7629510948347615
1658790124168018,0.3967345693140487,-1.0681315327688026,0.8850232700083325
1658790124184012,0.9460593575952316,-1.8005645838102282,1.3733119707026162
1658790124200005,1.0681315327688026,-2.410925459678083,1.0681315327688026
1658790124215999,0.33569848172737693,-3.0212863355459376,0.15259021896690683
1658790124231992,0.5798428320745188,-2.4719615472647547,-0.213626306553806
1658790124247986,-0.03051804379333589,-1.3733119707026162,-0.15259021896690683
1658790124263980,-0.15259021896690683,-0.2746623941404778,0.213626306553806
1658790124279973,-0.15259021896690683,-0.6408789196611906,0.5188067444876197
1658790124295967,0.5798428320745188,-1.3122758831159445,1.1291676203554744
1658790124311960,0.45777065690094787,-1.739528496223329,1.1291676203554744
1658790124327954,-1.739528496223329,-1.4343480582895154,0.6408789196611906
1658790124343948,-3.0212863355459376,-0.3967345693140487,0.2746623941404778
1658790124359924,-1.3733119707026162,0.5188067444876197,0.5798428320745188
1658790124375918,2.3498893720911838,0.7019150072480898,1.1902037079423735
1658790124391911,3.997863736934505,-0.03051804379333589,1.3733119707026162
1658790124407905,2.04470893415737,-1.1902037079423735,0.8850232700083325
1658790124423898,-0.3967345693140487,-1.0681315327688026,1.5564202334630863
1658790124439892,-2.166781109330941,-0.33569848172737693,1.4343480582895154
1658790124455886,-2.227817196917613,0.213626306553806,1.3122758831159445
1658790124471879,-1.0681315327688026,-0.09155413138023505,1.0070954451819034
1658790124487873,-0.6408789196611906,-1.0070954451819034,0.5798428320745188
1658790124503866,1.9226367589837992,-0.6408789196611906,1.3733119707026162
1658790124519860,3.0212863355459376,-0.15259021896690683,1.8616006713969
1658790124535853,1.983672846570471,0.2746623941404778,1.9226367589837992
1658790124551847,0.33569848172737693,0.5798428320745188,1.739528496223329
1658790124567841,-1.0681315327688026,0.15259021896690683,1.6784924086366573
1658790124583834,-1.8005645838102282,0.03051804379333589,2.04470893415737
1658790124599828,-1.5564202334630863,-0.09155413138023505,1.739528496223329
1658790124615821,-2.5940337224383256,0.03051804379333589,1.4343480582895154
1658790124631815,-0.45777065690094787,0.6408789196611906,1.6784924086366573
1658790124647809,2.04470893415737,0.5188067444876197,2.166781109330941
1658790124663802,3.5095750362402214,-0.33569848172737693,2.04470893415737
1658790124679779,3.5095750362402214,-1.739528496223329,1.6174563210497581
1658790124695772,0.5188067444876197,-2.4719615472647547,1.3733119707026162
1658790124711766,-2.166781109330941,-2.8381780727854675,1.2512397955290453
1658790124727759,-3.3264667734797513,-3.3264667734797513,1.0681315327688026
1658790124743753,-2.9602502479590385,-4.303044174868319,0.45777065690094787
1658790124759747,-1.4953841458761872,-5.279621576256886,0.213626306553806
1658790124775740,0.2746623941404778,-6.500343327992596,0.15259021896690683
1658790124791734,1.9226367589837992,-7.354848554207592,0.5798428320745188
1658790124807727,3.7537193865873633,-8.45349813076973,0.03051804379333589
1658790124823721,3.1433585107195086,-10.345616845960194,-1.3122758831159445
1658790124839715,2.8381780727854675,-12.481879911497572,-1.8005645838102282
1658790124855708,5.706874189364498,-14.496070801861606,-2.227817196917613
1658790124871702,6.073090714885211,-16.937514305333025,-3.936827649347606
1658790124887695,3.0823224231326094,-19.745174334325156,-5.76791027695117
1658790124903689,-0.03051804379333589,-21.820401312275862,-6.927595941100208
1658790124919683,0.2746623941404778,-23.590447852292527,-8.026245517662346
1658790124935676,2.105745021744042,-25.543602655069662,-9.246967269398056
1658790124951670,2.288853284504512,-28.473334859235365,-11.01701380941472
1658790124967663,0.5188067444876197,-32.01342793926915,-12.115663385976859
1658790124983657,-0.9460593575952316,-34.82108796826128,-12.848096437018285
1658790124999572,-2.288853284504512,-36.10284580758389,-13.397421225299468
1658790125015565,-3.6316472114137923,-36.774242771038416,-13.214312962538997
1658790125031559,-3.814755474174035,-38.66636148622888,-12.970168612191856
1658790125047552,0.8239871824216607,-41.29091325246054,-12.23773556115043
1658790125063545,11.07804989700162,-44.76997024490743,-11.749446860456146
1658790125079538,15.350576028076603,-50.32425421530479,-12.970168612191856
1658790125095531,11.810482948043045,-58.01480125123976,-16.571297779812312
1658790125111524,8.758678568703772,-64.72877088578616,-20.843823910887295
1658790125127517,7.17174029144735,-70.34409094377042,-24.01770046540014
1658790125143510,2.227817196917613,-76.3256275272754,-27.98504615854108
1658790125159504,-4.852368963149502,-82.73441672388799,-32.37964446478986
1658790125175497,-7.2938124666209205,-88.10559243152511,-35.85870145723675
1658790125191490,-4.242008087281647,-91.70672159914534,-37.2625314717327
1658790125207483,-3.3875028610666504,-94.63645380331127,-38.42221713588174
1658790125223476,-1.8005645838102282,-97.38307774471673,-39.337758449683406
1658790125239469,3.814755474174035,-98.84794384679958,-38.84946974898912
1658790125255462,10.406652933546866,-100.67902647440314,-37.2625314717327
1658790125271455,13.336385137712568,-103.48668650339528,-36.04180971999699
1658790125287449,13.76363775082018,-105.74502174410623,-35.91973754482342
1658790125303442,12.298771648737329,-106.35538261997408,-35.187304493781994
1658790125319397,12.664988174258042,-105.43984130617241,-32.99000534065772
1658790125335390,10.162508583199724,-106.90470740825526,-32.623788815137004
1658790125351383,2.655069810025225,-109.7123674372474,-34.332799267567
1658790125367376,-5.706874189364498,-111.36034180209049,-35.98077363241032
1658790125383369,-8.45349813076973,-109.59029526207382,-34.57694361791414
1658790125399362,-10.833905546654478,-107.88128480964383,-34.94316014343485
1658790125415355,-13.092240787365427,-106.53849088273455,-36.89631494621199
1658790125431348,-13.397421225299468,-104.64637216754409,-36.89631494621199
1658790125447342,-9.124895094224485,-103.54772259098195,-36.591134508278174
1658790125463335,-4.547188525215461,-102.81528953994052,-35.12626840619532
1658790125479328,-1.8005645838102282,-101.59456778820481,-35.98077363241032
1658790125495321,3.936827649347606,-99.45830472266744,-35.00419623102175
1658790125511314,4.303044174868319,-98.42069123369197,-35.55352101930271
1658790125527307,-2.532997634851654,-96.71168078126198,-36.835278858625315
1658790125543300,-6.927595941100208,-93.84298466468317,-35.91973754482342
1658790125559293,-9.918364232852582,-88.5938811322194,-32.623788815137004
1658790125575286,-10.162508583199724,-82.49027237354085,-29.022659647516548
1658790125591280,-9.002822919050914,-79.2553597314411,-26.276035706111088
1658790125607273,-7.782101167315204,-79.07225146868086,-25.60463874265656
1658790125623266,-6.012054627298312,-77.54634927901111,-23.163195239185143
1658790125639221,-0.15259021896690683,-74.3114366369116,-17.914091706721592
1658790125655214,5.645838101777599,-70.77134355687804,-14.129854276340893
1658790125671207,9.67421988250544,-68.87922484168757,-13.153276874952326
1658790125687200,7.537956816968062,-68.757152666514,-13.153276874952326
1658790125703193,1.0681315327688026,-69.79476615548947,-14.129854276340893
1658790125719186,-2.4719615472647547,-68.39093614099329,-11.566338597695903
1658790125735180,0.33569848172737693,-66.6819256885633,-11.01701380941472
1658790125751173,7.232776379034021,-65.8274204623483,-8.697642481116873
1658790125767166,4.058899824521177,-68.87922484168757,-10.467689021133765
1658790125783159,-6.744487678339738,-70.28305485618375,-14.618142977035177
1658790125799152,-3.3264667734797513,-68.39093614099329,-13.397421225299468
1658790125815145,7.11070420386045,-66.62088960097662,-10.833905546654478
1658790125831138,11.566338597695903,-67.17021438925758,-11.993591210803288
1658790125847131,9.73525597009234,-67.65850308995186,-13.397421225299468
1658790125863124,11.383230334935433,-66.6819256885633,-11.993591210803288
1658790125879118,14.557106889448278,-67.23125047684448,-10.772869459067579
1658790125895111,9.002822919050914,-70.466163118944,-13.214312962538997
1658790125911104,2.532997634851654,-71.80895704585328,-14.435034714274707
1658790125927097,-2.7161058976118966,-71.50377660791946,-12.298771648737329
1658790125943090,-5.3406576638437855,-72.6024261844816,-11.810482948043045
1658790125959045,-8.45349813076973,-72.48035400930803,-13.031204699778755
1658790125975038,-7.17174029144735,-70.71030746929114,-12.481879911497572
1658790125991030,-1.4953841458761872,-69.30647745479519,-11.261158159761862
1658790126007023,1.6784924086366573,-70.77134355687804,-12.909132524605184
1658790126023016,2.3498893720911838,-73.76211184863041,-15.655756466010416
1658790126039008,-0.5188067444876197,-74.18936446173802,-17.79201953154802
1658790126055001,-1.2512397955290453,-70.64927138170447,-18.280308232242305
1658790126070994,-3.570611123826893,-66.55985351338973,-18.341344319828977
1658790126086986,-12.664988174258042,-61.06660563057903,-17.54787518120088
1658790126102979,-22.369726100556818,-52.64362554360264,-16.693369954985883
1658790126118971,-33.5393301289389,-40.497444113832444,-13.946746013580423
1658790126134964,-36.774242771038416,-30.182345311665358,-10.223544670786623
1658790126150957,-35.24834058136889,-22.980086976424673,-7.537956816968062
1658790126166949,-27.130540932326085,-17.60891126878755,-6.683451590753066
1658790126182942,-11.20012207217519,-11.993591210803288,-8.819714656290444
1658790126198935,5.645838101777599,-5.401693751430457,-9.308003356984727
1658790126214927,15.045395590142562,0.33569848172737693,-8.392462043183059
1658790126230920,17.303730830853738,6.134126802471883,-8.941786831464015
1658790126246913,13.946746013580423,14.129854276340893,-5.76791027695117
1658790126262905,11.01701380941472,23.041123064011572,-2.3498893720911838
1658790126278869,5.2185854886702145,30.243381399252257,1.0070954451819034
1658790126294862,-0.7019150072480898,36.591134508277946,4.791332875562603
1658790126310855,-4.180971999694748,40.74158846417936,6.134126802471883
1658790126326847,-4.974441138323073,44.89204242008077,6.439307240405924
1658790126342840,-5.279621576256886,50.01907377737052,7.537956816968062
1658790126358832,-2.5940337224383256,53.62020294499098,6.805523765926637
1658790126374825,-0.7019150072480898,58.319981689173346,8.392462043183059
1658790126390818,3.4485389486533222,64.60669871061282,10.589761196307336
1658790126406810,6.561379415579495,69.55062180514233,9.918364232852582
1658790126422803,5.523765926604028,74.31143663691182,9.85732814526591
1658790126438796,3.875791561760934,78.82810711833372,9.979400320439481
1658790126454788,-0.2746623941404778,80.96437018387132,9.430075532158298
1658790126470781,-5.76791027695117,83.2837415121694,10.589761196307336
1658790126486774,-8.880750743877343,86.57969024185559,11.566338597695903
1658790126502766,-12.726024261844714,92.25604638742652,12.726024261844714
1658790126518759,-13.519493400473038,96.46753643091506,13.45845731288614
1658790126534752,-16.388189517051842,99.6414129854279,13.45845731288614
1658790126550744,-12.176699473563758,102.99839780270077,15.167467765316132
1658790126566737,-6.561379415579495,106.59952697032122,15.594720378423744
1658790126582729,0.3967345693140487,108.30853742275121,15.960936903944457
1658790126598693,8.087281605249018,110.68894483863596,20.17242694743254
1658790126614686,11.383230334935433,112.6420996414131,22.552834363317288
1658790126630679,12.603952086671143,113.74074921797501,22.003509575036105
1658790126646671,16.32715342946517,114.16800183108262,24.26184481574728
1658790126662664,18.402380407415876,111.17723353933025,23.83459220263967
1658790126678657,13.946746013580423,107.2098878461893,20.11139085984587
1658790126694649,3.997863736934505,104.9515526054779,18.158236057068734
1658790126710642,-0.9460593575952316,105.19569695582504,20.11139085984587
1658790126726635,1.1902037079423735,105.37880521858551,22.67490653849086
1658790126742627,0.3967345693140487,103.91393911650266,23.163195239185143
1658790126758620,-1.3122758831159445,100.19073777370886,24.994277866788707
1658790126774613,2.105745021744042,96.5896086060884,27.496757457846797
1658790126790605,-2.8992141603723667,93.59884031433603,24.567025253681095
1658790126806598,-6.683451590753066,94.14816510261699,23.651483939879427
1658790126822590,4.974441138323073,94.81956206607174,27.98504615854108
1658790126838583,15.289539940489703,89.32631418326082,29.14473182269012
1658790126854576,12.603952086671143,83.83306630045035,27.191577019912984
1658790126870568,4.42511635004189,83.2837415121694,28.16815442130155
1658790126886561,-3.0212863355459376,84.93171587701227,33.600366216525344
1658790126902554,-11.871519035629717,82.55130846112797,35.67559319447605
1658790126918518,-13.64156557564661,77.66842145418514,35.79766536964962
1658790126934510,-10.89494163424115,72.60242618448183,36.04180971999676
1658790126950503,-2.7771419851987957,69.30647745479519,36.346990157930804
1658790126966496,1.6784924086366573,67.10917830167091,38.0560006103608
1658790126982488,0.15259021896690683,63.69115739681092,34.33279926756677
1658790126998481,-4.852368963149502,61.79903868162046,29.938200961318216
1658790127014474,-8.45349813076973,61.55489433127332,27.435721370260126
1658790127030466,-10.833905546654478,62.9587243457695,28.04608224612798
1658790127046459,-10.589761196307336,63.81322957198472,32.80689707789725
1658790127062451,-7.2938124666209205,61.61593041885999,33.11207751583106
1658790127078444,-2.532997634851654,59.96795605401667,31.95239185168225
1658790127094437,4.669260700389032,58.80827038986763,31.83031967650868
1658790127110429,4.303044174868319,57.58754863813192,33.96658274204606
1658790127126422,3.7537193865873633,55.573357747768114,33.905546654459386
1658790127142415,-3.997863736934505,53.62020294499098,31.342030975814396
1658790127158407,-11.261158159761862,51.5449759670405,29.633020523384403
1658790127174400,-16.32715342946517,50.99565117875909,31.342030975814396
1658790127190393,-13.519493400473038,51.5449759670405,33.17311360341796
1658790127206385,-4.791332875562603,51.5449759670405,32.440680552376534
1658790127222378,2.227817196917613,48.73731593804814,32.01342793926892
1658790127238342,3.0212863355459376,44.95307850766744,31.158922713053926
1658790127254335,-0.7019150072480898,42.32852674143578,31.83031967650868
1658790127270327,-0.7629510948347615,41.718165865567926,32.80689707789725
1658790127286320,1.2512397955290453,40.00915541313793,32.562752727550105
1658790127302312,-4.60822461280236,33.11207751583106,29.633020523384403
1658790127318305,-7.782101167315204,23.590447852292527,26.092927443350845
1658790127334298,-5.096513313496644,15.10643167772946,21.820401312275862
1658790127350290,2.227817196917613,6.744487678339738,15.716792553597315
1658790127366283,1.8616006713969,-2.166781109330941,9.185931181811156
1658790127382276,-0.9460593575952316,-10.711833371480907,3.3875028610666504
1658790127398268,-3.7537193865873633,-18.219272144655406,-1.4343480582895154
1658790127414261,-2.655069810025225,-25.116350041962278,-6.500343327992596
1658790127430254,-2.8992141603723667,-33.60036621652557,-10.955977721828049
1658790127446246,-5.889982452124741,-43.305104142824575,-16.571297779812312
1658790127462239,-6.744487678339738,-51.30083161669336,-21.39314869916825
1658790127478232,-4.9134050507361735,-56.183718623636196,-25.29945830472252
1658790127494224,-8.697642481116873,-61.371786068513074,-30.060273136491787
1658790127510217,-13.275349050125897,-67.17021438925758,-33.78347447928604
1658790127526209,-9.85732814526591,-72.5413900968947,-36.22491798275746
1658790127542202,-2.9602502479590385,-76.93598840314326,-38.36118104829484
1658790127558166,3.2043945983061803,-80.65918974593728,-40.2532997634853
1658790127574158,5.828946364538069,-85.60311284046679,-41.16884107728697
1658790127590150,8.45349813076973,-91.27946898603795,-41.1078049897003
1658790127606143,6.805523765926637,-95.97924773022055,-42.38956282902268
1658790127622135,1.9226367589837992,-98.90897993438625,-43.73235675593196
1658790127638127,-3.0823224231326094,-101.59456778820481,-45.19722285801481
1658790127654119,-3.3875028610666504,-105.19569695582527,-46.29587243457695
1658790127670111,-2.166781109330941,-109.22407873655311,-47.7607385366598
1658790127686103,4.303044174868319,-111.23826962691692,-46.9672693980317
1658790127702096,4.60822461280236,-113.4355687800412,-46.54001678492409
1658790127718088,-0.213626306553806,-114.90043488212405,-46.17380025940338
1658790127734080,0.2746623941404778,-114.41214618142976,-43.183031967651004
1658790127750072,4.974441138323073,-114.16800183108262,-41.16884107728697
1658790127766064,7.782101167315204,-116.4263370717938,-40.436408026245545
1658790127782056,4.852368963149502,-120.33264667734807,-41.59609369039458
1658790127798049,5.828946364538069,-121.67544060425735,-41.1078049897003
1658790127814041,8.51453421835663,-121.18715190356306,-40.37537193865887
1658790127830033,7.17174029144735,-120.08850232700092,-40.92469672693983
1658790127846025,2.227817196917613,-118.98985275043879,-42.999923704890534
1658790127862017,4.242008087281647,-117.34187838559546,-40.98573281452673
1658790127878021,2.04470893415737,-115.32768749523166,-39.15465018692316
1658790127894014,1.0070954451819034,-110.9330891889831,-35.431448844129136
1658790127910006,-6.561379415579495,-108.30853742275121,-31.952391851682478
1658790127925999,-15.716792553597315,-105.68398565651955,-29.938200961318216
1658790127941991,-15.10643167772946,-101.59456778820481,-25.787747005416804
1658790127957984,-12.603952086671143,-97.32204165712983,-23.285267414358714
1658790127973977,-8.51453421835663,-93.5378042267489,-21.69832913710229
1658790127989969,-3.0212863355459376,-92.01190203707938,-19.9282825970854
1658790128005962,0.03051804379333589,-90.30289158464939,-16.26611734187827
1658790128021955,4.42511635004189,-87.25108720531011,-15.716792553597315
1658790128037947,10.345616845960194,-83.83306630045013,-13.153276874952326
1658790128053940,8.880750743877343,-83.71099412527656,-14.740215152208748
1658790128069933,-0.15259021896690683,-83.1006332494087,-17.059586480506596
1658790128085925,-13.214312962538997,-80.84229800869753,-18.58548867017612
1658790128101918,-17.42580300602731,-74.37247272449827,-16.2050812542916
1658790128117910,-10.467689021133765,-68.02471961547258,-11.01701380941472
1658790128133903,-4.42511635004189,-65.27809567406734,-13.031204699778755
1658790128149896,1.5564202334630863,-63.752193484397594,-18.097199969481835
1658790128165888,0.8850232700083325,-63.69115739681092,-22.247653925383247
1658790128181881,-2.410925459678083,-60.82246128023189,-23.95666437781324
1658790128197815,-6.9886320286868795,-54.41367208361953,-21.637293049515392
1658790128213807,-12.054627298390187,-45.19722285801481,-14.679179064621849
1658790128229799,-12.176699473563758,-34.21072709239343,-7.721065079728305
1658790128245791,-9.67421988250544,-25.726710917830133,-3.875791561760934
1658790128261783,-6.378271152819025,-22.003509575036105,-3.3875028610666504
1658790128277775,1.0681315327688026,-18.097199969481835,-2.655069810025225
1658790128293768,8.270389868009488,-13.153276874952326,-2.7771419851987957
1658790128309760,7.17174029144735,-7.232776379034021,-1.4953841458761872
1658790128325752,1.739528496223329,-0.2746623941404778,0.8239871824216607
1658790128341744,-0.45777065690094787,6.805523765926637,3.6316472114137923
1658790128357736,-2.166781109330941,12.359807736324,5.76791027695117
1658790128373728,-2.288853284504512,16.754406042572555,6.439307240405924
1658790128389721,0.03051804379333589,20.721751735713724,7.782101167315204
1658790128405713,1.0070954451819034,25.05531395437538,8.392462043183059
1658790128421705,0.8239871824216607,30.060273136491787,8.819714656290444
1658790128437697,0.33569848172737693,36.77424277103819,10.89494163424115
1658790128453689,0.213626306553806,41.8402380407415,13.946746013580423
1658790128469681,-0.7019150072480898,46.29587243457672,15.228503852903032
1658790128485674,2.04470893415737,51.30083161669336,15.899900816357558
1658790128501666,3.2043945983061803,56.12268253604907,15.533684290836845
1658790128517639,7.721065079728305,60.70038910505809,16.1440451667047
1658790128533631,9.55214770733187,65.94949263752233,18.219272144655406
1658790128549623,9.369039444571627,71.01548790722518,19.9893186846723
1658790128565615,8.026245517662346,74.3724727244985,19.80621042191183
1658790128581607,3.5095750362402214,76.5087357900361,19.1348134584573
1658790128597600,-0.33569848172737693,79.68261234454894,20.23346303501944
1658790128613592,-3.997863736934505,83.03959716182226,20.477607385366582
1658790128629584,-4.974441138323073,86.8848706797894,20.17242694743254
1658790128645576,0.5798428320745188,90.30289158464939,20.11139085984587
1658790128661568,6.195162890058782,92.68329900053413,20.416571297779683
1658790128677560,7.843137254901876,94.4533455405508,21.27107652399468
1658790128693553,7.843137254901876,97.99343862058458,24.811169604028237
1658790128709545,9.73525597009234,100.37384603646933,27.069504844739413
1658790128725537,12.726024261844714,100.92317082475029,28.595407034408936
1658790128741529,11.810482948043045,98.4206912336922,27.557793545433697
1658790128757521,2.04470893415737,95.85717555504698,26.214999618524416
1658790128773513,-1.1291676203554744,96.5896086060884,29.38887617303726
1658790128789506,2.105745021744042,96.77271686884887,31.83031967650868
1658790128805498,1.5564202334630863,94.88059815365841,28.351262684061794
1658790128821490,-2.3498893720911838,92.68329900053413,24.200808728160382
1658790128837463,0.6408789196611906,93.04951552605507,27.557793545433697
1658790128853455,11.505302510109004,91.6456855115589,31.158922713053926
1658790128869447,20.660715648126825,87.8004119935913,29.20576791027679
1658790128885439,17.730983443961122,82.73441672388799,23.95666437781324
1658790128901432,6.805523765926637,80.84229800869798,22.61387045090396
1658790128917424,2.8992141603723667,82.49027237354085,27.557793545433697
1658790128933416,3.997863736934505,83.2837415121694,30.914778362706784
1658790128949408,4.852368963149502,79.62157625696227,28.717479209582507
1658790128965400,-0.5188067444876197,73.21278706034946,23.468375677118956
1658790128981392,-9.430075532158298,71.13756008239898,24.01770046540014
1658790128997385,-9.185931181811156,74.00625619897801,30.060273136491787
1658790129013377,-2.4719615472647547,75.5931944762342,33.3562218661782
1658790129029369,3.2043945983061803,72.6634622720685,31.158922713053926
1658790129045361,3.997863736934505,67.35332265201805,28.717479209582507
1658790129061353,1.8616006713969,65.46120393682804,30.792706187533213
1658790129077345,-1.739528496223329,66.37674525062948,33.905546654459386
1658790129093338,-0.8239871824216607,66.98710612649757,35.30937666895534
1658790129109330,1.0070954451819034,65.0949874113071,32.440680552376534
1658790129125322,-0.2746623941404778,61.61593041885999,30.243381399252257
1658790129141314,1.8616006713969,59.41863126573571,32.440680552376534
1658790129157287,8.148317692835917,58.38101777676047,36.89631494621176
1658790129173279,14.068818188753994,58.442053864347145,37.26253147173247
1658790129189272,14.190890363927565,57.28236820019811,35.49248493171581
1658790129205264,1.1291676203554744,54.169527733271934,32.86793316548392
1658790129221256,-6.8665598535133086,53.00984206912335,32.684824902723676
1658790129237248,-8.880750743877343,51.056687266346216,33.478294041351774
1658790129253240,-8.758678568703772,47.02830548561815,28.656443121995835
1658790129269232,-10.162508583199724,43.12199588006388,25.543602655069662
1658790129285225,-6.805523765926637,40.9857328145265,26.459143968871558
1658790129301217,-2.9602502479590385,38.17807278553437,25.726710917830133
1658790129317209,0.5188067444876197,37.689784084840085,23.773556115052997
1658790129333201,3.0212863355459376,35.85870145723652,22.980086976424673
1658790129349193,-1.8616006713969,32.19653620202939,22.61387045090396
1658790129365185,-7.537956816968062,27.86297398336751,21.820401312275862
1658790129381178,-9.002822919050914,25.29945830472252,21.881437399862534
1658790129397170,-9.918364232852582,22.186617837796575,20.477607385366582
1658790129413162,-14.98435950255589,17.24269474326684,17.42580300602731
1658790129429154,-18.95170519569683,11.444266422522333,13.397421225299468
1658790129445146,-15.716792553597315,7.721065079728305,9.613183794918768
1658790129461138,-3.3264667734797513,5.2185854886702145,6.195162890058782
1658790129477111,5.889982452124741,-1.0070954451819034,1.3733119707026162
1658790129493104,13.031204699778755,-9.613183794918768,-3.0823224231326094
1658790129509096,15.350576028076603,-16.44922560463874,-6.256198977645454
1658790129525088,9.308003356984727,-23.468375677118956,-9.430075532158298
1658790129541080,-7.17174029144735,-30.73167009994654,-11.993591210803288
1658790129557072,-24.933241779201808,-37.38460364690627,-15.533684290836845
1658790129573064,-33.72243839169914,-43.06095979247743,-19.195849546043974
1658790129589057,-28.595407034408936,-47.39452201113909,-22.67490653849086
1658790129605049,-17.24269474326684,-52.64362554360264,-26.886396581978943
1658790129621041,-5.096513313496644,-59.35759517814904,-31.586175326161765
1658790129637033,2.7161058976118966,-65.0339513237202,-35.614557106889606
1658790129653025,4.791332875562603,-67.41435873960472,-38.36118104829484
1658790129669017,0.7019150072480898,-69.30647745479519,-39.58190280003055
1658790129685010,-6.927595941100208,-72.23620965896089,-40.2532997634853
1658790129701002,-11.20012207217519,-76.56977187762254,-39.15465018692316
1658790129716994,-6.561379415579495,-80.170901045243,-37.62874799725341
1658790129732986,-0.33569848172737693,-84.26031891355751,-37.62874799725341
1658790129748978,4.60822461280236,-87.55626764324393,-38.178072785534596
1658790129764970,4.852368963149502,-91.4625772487982,-39.88708323796459
1658790129780963,0.8239871824216607,-94.39230945296413,-41.59609369039458
1658790129796936,-1.9226367589837992,-95.73510337987341,-42.20645456626244
1658790129812928,-5.584802014190927,-97.26100556954316,-43.36614023041125
1658790129828920,-5.523765926604028,-99.82452124818815,-44.28168154421314
1658790129844912,-4.730296787975931,-102.51010910200671,-44.76997024490743
1658790129860904,0.8239871824216607,-103.05943389028766,-41.71816586556815
1658790129876896,0.03051804379333589,-103.60875867856885,-40.92469672693983
1658790129892889,-0.8239871824216607,-101.35042343785767,-40.680552376592686
1658790129908881,3.2043945983061803,-99.88555733577482,-36.835278858625315
1658790129924873,4.486152437628789,-100.98420691233696,-35.98077363241032
1658790129940865,2.227817196917613,-101.77767605096528,-35.98077363241032
1658790129956857,0.2746623941404778,-99.09208819714672,-34.332799267567
1658790129972849,-2.655069810025225,-95.55199511711317,-31.89135576409558
1658790129988842,-0.8850232700083325,-91.5236133363851,-28.717479209582507
1658790130004834,5.279621576256886,-90.11978332188892,-26.886396581978943
1658790130020826,8.51453421835663,-91.27946898603795,-28.04608224612798
1658790130036818,4.669260700389032,-91.4625772487982,-29.633020523384403
1658790130052810,-3.2654306858930795,-87.6783398184175,-30.30441748683893
1658790130068802,-6.622415503166167,-79.19432364385443,-24.811169604028237
1658790130084795,0.213626306553806,-74.3114366369116,-18.95170519569683
1658790130100787,3.814755474174035,-74.92179751277945,-19.684138246738257
1658790130116790,-1.6174563210497581,-78.21774624246586,-23.041123064011572
1658790130132783,-6.012054627298312,-76.93598840314326,-19.501029983978015
1658790130148775,-6.805523765926637,-72.78553444724184,-13.153276874952326
1658790130164767,-6.439307240405924,-69.00129701686114,-10.101472495613052
1658790130180759,-0.7019150072480898,-65.8884565499352,-6.683451590753066
1658790130196751,1.6784924086366573,-66.07156481269544,-8.880750743877343
1658790130212743,-9.124895094224485,-68.8181887541009,-14.190890363927565
1658790130228736,-22.186617837796575,-68.08575570305948,-16.510261692225413
1658790130244728,-24.26184481574728,-62.836652170595926,-12.298771648737329
1658790130260720,-21.45418478675515,-58.625162127107615,-10.101472495613052
1658790130276712,-15.594720378423744,-55.69542992294191,-9.369039444571627
1658790130292704,-6.317235065232353,-54.10849164568549,-9.613183794918768
1658790130308696,5.401693751430457,-53.43709468223096,-8.51453421835663
1658790130324689,14.92332341496899,-53.620202944991206,-7.660028992141633
1658790130340681,14.80125123979542,-52.82673380636311,-7.598992904554734
1658790130356673,7.049668116273779,-50.01907377737098,-6.8665598535133086
1658790130372665,0.15259021896690683,-47.333485923552416,-4.119935912108076
1658790130388657,-6.317235065232353,-47.150377660791946,-3.3875028610666504
1658790130404649,-9.918364232852582,-47.69970244907313,-3.0823224231326094
1658790130420642,-12.115663385976859,-47.45555809872599,-4.119935912108076
1658790130436615,-11.505302510109004,-44.892042420081,-4.180971999694748
1658790130452606,-6.195162890058782,-43.06095979247743,-3.814755474174035
1658790130468598,-5.401693751430457,-43.06095979247743,-7.354848554207592
1658790130484590,-4.180971999694748,-42.32852674143601,-10.284580758373295
1658790130500581,-5.2185854886702145,-41.840238040741724,-11.810482948043045
1658790130516573,-7.4158846417944915,-39.337758449683406,-11.932555123216616
1658790130532565,-7.17174029144735,-35.309376668955565,-8.819714656290444
1658790130548556,-5.645838101777599,-31.586175326161765,-6.500343327992596
1658790130564548,-5.0354772259097444,-27.496757457846797,-5.401693751430457
1658790130580540,-2.410925459678083,-21.820401312275862,-3.997863736934505
1658790130596531,-2.288853284504512,-16.998550392919697,-3.3264667734797513
1658790130612523,-4.119935912108076,-12.848096437018285,-3.5095750362402214
1658790130628515,-5.3406576638437855,-7.354848554207592,-1.3122758831159445
1658790130644507,-5.0354772259097444,-0.03051804379333589,3.875791561760934
1658790130660498,-0.213626306553806,6.378271152819025,7.782101167315204
1658790130676490,6.378271152819025,12.176699473563758,9.002822919050914
1658790130692482,10.955977721828049,16.26611734187827,8.941786831464015
1658790130708473,13.702601663233281,20.416571297779683,9.063859006637585
1658790130724465,14.435034714274707,25.116350041962278,9.308003356984727
1658790130740457,11.627374685282575,30.182345311665358,9.67421988250544
1658790130756439,6.8665598535133086,34.2107270923932,9.796292057679011
1658790130772431,4.119935912108076,38.17807278553437,10.040436408026153
1658790130788422,7.049668116273779,42.633707179369594,12.970168612191856
1658790130804414,11.688410772869474,45.92965590905601,13.214312962538997
1658790130820406,14.80125123979542,48.187991149767186,11.993591210803288
1658790130836397,15.533684290836845,52.094300755321456,11.932555123216616
1658790130852389,14.496070801861606,57.64858472571905,14.007782101167322
1658790130868381,11.20012207217519,62.53147173266234,13.397421225299468
1658790130884372,7.660028992141633,65.70534828717518,10.650797283894008
1658790130900364,5.462729839017356,68.20782787823327,9.246967269398056
1658790130916356,6.683451590753066,71.56481269550659,9.613183794918768
1658790130932347,9.124895094224485,76.14251926451516,10.650797283894008
1658790130948339,9.85732814526591,81.025406271458,10.284580758373295
1658790130964331,6.500343327992596,84.80964370183892,7.843137254901876
1658790130980322,-0.03051804379333589,88.71595330739319,8.6366063935302
1658790130996314,-1.1291676203554744,93.7819485770965,11.627374685282575
1658790131012306,-0.09155413138023505,98.35965514610507,15.289539940489703
1658790131028298,0.8239871824216607,101.59456778820504,16.02197299153113
1658790131044289,0.09155413138023505,104.21911955443647,17.42580300602731
1658790131060281,1.3733119707026162,105.68398565651933,19.9282825970854
1658790131076263,4.730296787975931,106.90470740825504,22.125581750209676
1658790131092255,4.303044174868319,107.94232089723073,22.67490653849086
1658790131108246,-0.8850232700083325,109.89547570000786,23.346303501945386
1658790131124238,-4.180971999694748,110.87205310139643,27.130540932326085
1658790131140230,-3.3875028610666504,109.28511482413978,27.92401007095441
1658790131156221,-0.213626306553806,105.43984130617218,25.848783093003703
1658790131172213,-3.570611123826893,102.38803692683314,23.346303501945386
1658790131188205,-7.4158846417944915,102.63218127718028,26.7032883192187
1658790131204197,-2.3498893720911838,102.08285648889932,30.4264896620125
1658790131220188,4.669260700389032,98.66483558403934,30.060273136491787
1658790131236180,6.317235065232353,94.08712901503031,27.98504615854108
1658790131252172,5.0354772259097444,93.04951552605507,31.70824750133511
1658790131268163,12.603952086671143,91.40154116121175,40.80262455176603
1658790131284155,17.120622568093268,88.22766460669891,41.535057602807456
1658790131300147,17.24269474326684,84.01617456321082,36.89631494621176
1658790131316138,6.8665598535133086,79.62157625696227,32.86793316548392
1658790131332130,2.532997634851654,78.33981841763944,35.43144884412891
1658790131348122,4.42511635004189,77.3022049286642,38.36118104829461
1658790131364113,1.739528496223329,74.00625619897801,35.248340581368666
1658790131380105,3.692683299000464,70.46616311894422,32.86793316548392
1658790131396087,5.0354772259097444,67.29228656443138,31.464103150987967
1658790131412079,-7.17174029144735,65.64431219958806,28.900587472342977
1658790131428071,-10.650797283894008,68.0247196154728,31.158922713053926
1658790131444062,-2.532997634851654,68.9402609292747,34.33279926756677
1658790131460054,6.134126802471883,65.46120393682804,31.464103150987967
1658790131476046,7.354848554207592,61.24971389333905,27.74090180819394
1658790131492037,7.965209430075447,60.39520866712428,28.107118333714652
1658790131508029,12.970168612191856,62.47043564507476,32.257572289616064
1658790131524021,9.124895094224485,62.897688258182825,30.060273136491787
1658790131540012,3.3264667734797513,62.65354390783568,28.04608224612798
1658790131556004,-2.8992141603723667,60.70038910505809,28.96162355992965
1658790131571996,-10.650797283894008,57.404440375371905,28.534370946822264
1658790131587988,-14.312962539101136,55.69542992294191,29.38887617303726
1658790131603979,-12.787060349431613,55.2681773098343,29.571984435797503
1658790131619971,-11.749446860456146,55.573357747768114,27.80193789578084
1658790131635963,-8.941786831464015,55.756466010528584,28.96162355992965
1658790131651954,-2.410925459678083,54.04745555809859,29.08369573510322
1658790131667946,5.401693751430457,52.033264667734784,29.20576791027679
1658790131683938,9.063859006637585,49.225604638742425,29.26680399786369
1658790131699929,3.814755474174035,46.784161135271006,31.036850537880355
1658790131715911,-3.3264667734797513,44.159609369039345,32.379644464789635
1658790131731903,-5.462729839017356,41.96231021591507,32.99000534065749
1658790131747895,-7.476920729381163,36.77424277103819,31.280994888227497
1658790131763887,-12.298771648737329,29.51094834821083,28.290226596475122
1658790131779878,-13.275349050125897,22.73594262607753,25.543602655069662
1658790131795870,-9.063859006637585,18.280308232242305,22.247653925383247
1658790131811862,3.0823224231326094,13.824673838406852,17.914091706721592
1658790131827853,10.833905546654478,6.378271152819025,12.726024261844714
1658790131843845,15.167467765316132,-2.5940337224383256,8.270389868009488
1658790131859837,12.848096437018285,-9.67421988250544,6.012054627298312
1658790131875828,4.60822461280236,-15.777828641183987,2.9602502479590385
1658790131891820,-8.697642481116873,-23.346303501945386,-2.288853284504512
1658790131907812,-18.036163881895163,-33.051041428244616,-8.575570305943302
1658790131923803,-18.89066910811016,-41.71816586556815,-15.228503852903032
1658790131939795,-10.711833371480907,-47.63866636148623,-20.35553521019301
1658790131955787,-4.60822461280236,-54.16952773327239,-27.80193789578084
1658790131971778,-2.7771419851987957,-60.51728084229808,-34.332799267567
1658790131987770,0.5798428320745188,-66.7429617761502,-38.72739757381555
1658790132003762,-0.5188067444876197,-72.72449835965517,-42.32852674143601
1658790132019754,-3.997863736934505,-77.72945754177158,-45.685511558709095
1658790132035736,-11.993591210803288,-83.16166933699537,-49.53078507667669
1658790132051727,-15.838864728770886,-87.06797894254964,-51.48393987945383
1658790132067719,-16.1440451667047,-89.14320592050035,-52.76569771877621
1658790132083711,-13.031204699778755,-91.03532463569081,-54.29159990844596
1658790132099702,-8.51453421835663,-94.5143816281377,-57.16029602502476
1658790132115694,-4.791332875562603,-97.26100556954316,-58.686198214694514
1658790132131686,3.3264667734797513,-98.05447470817126,-56.97718776226452
1658790132147678,10.040436408026153,-99.70244907301458,-54.65781643396667
1658790132163669,11.627374685282575,-101.96078431372553,-54.596780346379774
1658790132179661,7.354848554207592,-103.48668650339528,-54.901960784313815
1658790132195653,4.9134050507361735,-102.57114518959338,-51.5449759670405
1658790132211644,2.3498893720911838,-102.81528953994052,-48.432135500114555
1658790132227636,0.7019150072480898,-105.43984130617241,-47.88281071183337
1658790132243628,0.33569848172737693,-105.74502174410623,-48.00488288700694
1658790132259619,2.227817196917613,-104.28015564202337,-46.47898069733742
1658790132275611,5.279621576256886,-103.66979476615552,-45.563439383535524
1658790132291603,6.012054627298312,-105.62294956893265,-45.563439383535524
1658790132307594,2.288853284504512,-105.56191348134598,-46.29587243457695
1658790132323586,-2.7161058976118966,-102.38803692683314,-44.647898069733856
1658790132339578,-4.242008087281647,-98.05447470817126,-41.962310215915295
1658790132355560,-0.33569848172737693,-96.52857251850173,-38.66636148622888
1658790132371552,1.0681315327688026,-98.3596551461053,-38.91050583657602
1658790132387543,-3.814755474174035,-98.78690775921268,-41.1078049897003
1658790132403535,-7.2938124666209205,-93.04951552605462,-36.530098420691274
1658790132419527,-4.60822461280236,-86.57969024185536,-30.792706187533213
1658790132435518,3.6316472114137923,-82.79545281147466,-27.252613107499656
1658790132451510,11.20012207217519,-83.28374151216894,-26.58121614404513
1658790132467502,7.598992904554734,-86.15243762874798,-29.571984435797503
1658790132483493,-4.852368963149502,-85.90829327840083,-28.534370946822264
1658790132499485,-15.045395590142562,-81.39162279697871,-25.05531395437538
1658790132515477,-15.289539940489703,-74.98283360036612,-21.45418478675515
1658790132531468,-12.298771648737329,-70.34409094377042,-20.416571297779683
1658790132547460,-7.11070420386045,-70.40512703135732,-22.61387045090396
1658790132563452,-2.8381780727854675,-70.28305485618375,-23.041123064011572
1658790132579444,7.782101167315204,-67.71953917753876,-19.073777370870403
1658790132595435,16.754406042572555,-64.1184100099183,-14.98435950255589
1658790132611427,17.914091706721592,-60.51728084229808,-14.618142977035177
1658790132627419,10.284580758373295,-58.3199816891738,-14.98435950255589
1658790132643410,1.2512397955290453,-58.38101777676047,-12.970168612191856
1658790132659402,-2.288853284504512,-57.587548638132375,-7.965209430075447
1658790132675384,-0.8239871824216607,-56.97718776226452,-3.570611123826893
1658790132691376,-6.561379415579495,-57.404440375371905,-5.096513313496644
1658790132707368,-19.01274128328373,-56.48889906157024,-8.270389868009488
1658790132723359,-24.750133516441565,-53.498130769817635,-10.650797283894008
1658790132739351,-25.543602655069662,-49.774929427023835,-9.85732814526591
1658790132755343,-20.721751735713724,-46.906233310444804,-9.918364232852582
1658790132771334,-13.031204699778755,-44.70893415732053,-12.298771648737329
1658790132787326,-4.486152437628789,-42.20645456626244,-13.153276874952326
1658790132803318,5.157549401083315,-37.50667582207984,-11.383230334935433
1658790132819309,12.542915999084471,-30.121309224078686,-7.537956816968062
1658790132835301,14.190890363927565,-22.430762188143717,-4.058899824521177
1658790132851293,15.167467765316132,-15.10643167772946,-2.532997634851654
1658790132867284,11.810482948043045,-7.17174029144735,-0.8850232700083325
1658790132883276,6.256198977645454,-0.45777065690094787,0.7629510948347615
1658790132899268,0.15259021896690683,7.11070420386045,4.669260700389032
1658790132915259,-3.814755474174035,14.007782101167322,8.697642481116873
1658790132931251,-7.598992904554734,20.11139085984587,10.223544670786623
1658790132947243,-7.11070420386045,26.214999618524416,11.749446860456146
1658790132963235,-1.6784924086366573,32.92896925307082,13.275349050125897
1658790132979226,4.486152437628789,38.42221713588151,13.824673838406852
1658790132995208,8.697642481116873,42.51163500419602,12.664988174258042
1658790133011200,7.537956816968062,47.39452201113886,10.89494163424115
1658790133027192,2.4719615472647547,53.86434729533812,11.993591210803288
1658790133043183,-2.532997634851654,60.761425192644765,14.373998626688035
1658790133059175,-3.875791561760934,66.31570916304281,15.533684290836845
1658790133075167,-3.0212863355459376,70.5271992065309,17.42580300602731
1658790133091158,2.166781109330941,73.64003967345707,18.219272144655406
1658790133107150,9.85732814526591,77.60738536659801,19.623102159151586
1658790133123142,15.777828641183987,82.3682001983675,19.80621042191183
1658790133139134,15.960936903944457,87.19005111772367,18.70756084534969
1658790133155125,10.650797283894008,91.15739681086461,16.937514305333025
1658790133171117,3.875791561760934,94.69748989089794,17.059586480506596
1658790133187109,-0.5798428320745188,97.87136644541079,20.11139085984587
1658790133203100,-2.410925459678083,98.72587167162601,21.69832913710229
1658790133219092,-6.622415503166167,99.88555733577505,23.285267414358714
1658790133235084,-6.805523765926637,103.60875867856885,26.764324406805372
1658790133251075,-2.8992141603723667,106.90470740825504,28.656443121995835
1658790133267067,-2.04470893415737,107.75921263447026,29.633020523384403
1658790133283059,-2.227817196917613,106.23331044480074,31.036850537880355
1658790133299050,7.782101167315204,106.05020218204027,36.591134508277946
1658790133315033,19.439993896391115,104.58533607995741,37.75082017242676
1658790133331024,14.435034714274707,102.38803692683314,32.19653620202939
1658790133347016,7.17174029144735,102.75425345235362,31.52513923857464
1658790133363008,9.491111619745197,101.96078431372553,35.73662928206295
1658790133378999,9.73525597009234,97.13893339436936,32.07446402685582
1658790133394991,2.410925459678083,92.31708247501365,28.595407034408936
1658790133410983,-4.119935912108076,91.03532463569081,30.36545357442583
1658790133426974,-4.730296787975931,89.32631418326082,34.51590753032724
1658790133442966,-9.124895094224485,86.0914015411613,30.975814450293683
1658790133458958,-11.383230334935433,82.67338063630132,28.16815442130155
1658790133474949,-10.833905546654478,79.80468451972229,27.74090180819394
1658790133490941,-6.256198977645454,78.21774624246609,29.51094834821083
1658790133506933,-0.8239871824216607,77.05806057831705,31.64721141374821
1658790133522925,7.11070420386045,76.3866636148623,33.783474479285815
1658790133538916,6.256198977645454,74.43350881208517,30.54856183718607
1658790133554908,4.119935912108076,74.31143663691182,33.17311360341796
1658790133570900,4.974441138323073,73.82314793621754,36.53009842069105
1658790133586891,1.3733119707026162,72.48035400930803,36.77424277103819
1658790133602883,-0.7019150072480898,69.18440527962184,35.30937666895534
1658790133618875,-5.523765926604028,65.52224002441471,34.69901579308748
1658790133634857,-0.9460593575952316,63.56908522163758,38.17807278553437
1658790133650848,-1.8005645838102282,60.21210040436381,37.2014953841458
1658790133666840,-6.012054627298312,58.74723430228096,33.722438391698915
1658790133682832,-7.4158846417944915,58.503089951933816,31.89135576409535
1658790133698824,-6.378271152819025,58.686198214694286,32.92896925307082
1658790133714815,4.119935912108076,59.05241474021477,35.30937666895534
1658790133730807,21.51522087434182,59.05241474021477,36.71320668345152
1658790133746799,31.70824750133511,56.183718623636196,34.02761882963296
1658790133762790,27.252613107499656,53.68123903257765,31.83031967650868
1658790133778782,16.937514305333025,52.76569771877621,32.379644464789635
1658790133794774,5.828946364538069,52.094300755321456,33.661402304112244
1658790133810765,-5.889982452124741,50.01907377737052,30.060273136491787
1658790133826757,-10.89494163424115,46.845197222857905,25.848783093003703
1658790133842749,-13.153276874952326,42.938887617303635,22.919050888838
1658790133858740,-10.406652933546866,40.253299763485074,21.087968261234437
1658790133874732,-3.2043945983061803,41.35194934004721,21.57625696192872
1658790133890724,6.683451590753066,42.51163500419602,21.33211261158158
1658790133906715,4.547188525215461,40.375371938658645,19.256885633630873
1658790133922707,1.3122758831159445,37.93392843518723,21.39314869916825
1658790133938699,2.8381780727854675,35.065232318608196,25.29945830472252
1658790133954681,0.8239871824216607,32.86793316548392,26.214999618524416
1658790133970673,-3.7537193865873633,30.60959792477297,24.750133516441565
1658790133986664,-14.007782101167322,26.214999618524416,21.759365224688963
1658790134002656,-19.01274128328373,19.439993896391115,16.02197299153113
1658790134018648,-18.341344319828977,12.542915999084471,9.67421988250544
1658790134034639,-13.946746013580423,5.401693751430457,3.3264667734797513
1658790134050631,-15.777828641183987,-2.8992141603723667,-1.8616006713969
1658790134066623,-15.411612115663274,-10.711833371480907,-4.730296787975931
1658790134082615,-11.322194247348762,-16.815442130159454,-6.134126802471883
1658790134098606,-3.692683299000464,-23.529411764705856,-8.575570305943302
1658790134114598,-4.058899824521177,-31.403067063401295,-11.688410772869474
1658790134130590,-5.0354772259097444,-38.91050583657602,-14.618142977035177
1658790134146581,-6.378271152819025,-46.05172808422981,-18.76859693293659
1658790134162573,-6.927595941100208,-52.88776989394978,-23.83459220263967
1658790134178565,-7.598992904554734,-60.090028229190466,-29.938200961318216
1658790134194556,-10.589761196307336,-67.23125047684448,-35.614557106889606
1658790134210548,-9.67421988250544,-73.15175097276256,-40.07019150072483
1658790134226540,-6.805523765926637,-77.79049362935825,-43.91546501869243
1658790134242531,-5.401693751430457,-81.14747844663157,-46.05172808422981
1658790134258523,-4.180971999694748,-84.32135500114441,-46.11276417181671
1658790134274505,-2.8381780727854675,-89.02113374532678,-45.990691996643136
1658790134290497,1.739528496223329,-92.6832990005339,-44.28168154421314
1658790134306489,3.936827649347606,-96.95582513160912,-42.57267109178315
1658790134322480,0.2746623941404778,-100.92317082475029,-42.93888761730386
1658790134338472,-0.45777065690094787,-102.63218127718028,-41.901274128328396
1658790134354464,-1.0070954451819034,-103.85290302891599,-42.81681544213029
1658790134370455,1.0070954451819034,-103.97497520408956,-43.305104142824575
1658790134386447,1.5564202334630863,-105.9281300068667,-44.220645456626244
1658790134402439,-0.3967345693140487,-108.18646524757764,-44.8310063324941
1658790134418430,-2.5940337224383256,-108.73579003585883,-44.464789806973386
1658790134434422,-2.3498893720911838,-107.33196002136265,-44.15960936903957
1658790134450414,3.2043945983061803,-106.41641870756098,-41.840238040741724
1658790134466405,9.308003356984727,-108.55268177309836,-41.47402151522101
1658790134482397,13.153276874952326,-110.99412527656978,-40.619516289006015
1658790134498389,12.787060349431613,-111.60448615243763,-39.64293888761745
1658790134514381,7.049668116273779,-109.10200656137954,-39.58190280003055
1658790134530372,-1.6784924086366573,-105.9281300068667,-38.056000610361025
1658790134546364,-7.17174029144735,-104.52429999237052,-37.68978408484031
1658790134562356,-5.584802014190927,-104.40222781719694,-36.34699015793103
1658790134578347,-8.575570305943302,-103.42565041580838,-37.81185626001388
1658790134594329,-8.33142595559616,-98.05447470817126,-35.614557106889606
1658790134610321,-5.828946364538069,-94.5754177157246,-32.6848249027239
1658790134626313,-4.486152437628789,-94.14816510261699,-32.745860990310575
1658790134642305,-6.012054627298312,-93.35469596398866,-30.914778362706784
1658790134658296,-7.782101167315204,-89.57045853360796,-28.778515297169406
1658790134674288,-1.6174563210497581,-83.1006332494087,-22.369726100556818
1658790134690280,7.843137254901876,-82.79545281147466,-19.317921721217544
1658790134706271,12.787060349431613,-85.11482413977251,-20.477607385366582
1658790134722263,5.828946364538069,-88.22766460669868,-23.041123064011572
1658790134738255,-13.092240787365427,-88.65491721980607,-27.130540932326085
1658790134754246,-32.99000534065772,-82.06301976043324,-26.7032883192187
1658790134770238,-37.2625314717327,-72.84657053482874,-19.867246509498727
1658790134786230,-22.369726100556818,-68.20782787823305,-14.190890363927565
1658790134802221,-2.655069810025225,-70.28305485618375,-15.472648203250174
1658790134818213,14.190890363927565,-75.10490577553969,-21.820401312275862
1658790134834205,20.843823910887295,-76.14251926451516,-24.628061341267994
1658790134850196,13.76363775082018,-71.86999313344018,-22.919050888838
1658790134866188,-0.3967345693140487,-63.935301747158064,-20.965896086060866
1658790134882180,-13.946746013580423,-58.13687342641333,-18.89066910811016
1658790134898172,-19.501029983978015,-55.87853818570238,-17.303730830853738
1658790134914154,-17.914091706721592,-55.81750209811548,-19.01274128328373
1658790134930145,-11.261158159761862,-55.63439383535524,-17.853055619134693
1658790134946137,-4.242008087281647,-53.681239032578105,-16.08300907911803
1658790134962129,-2.8992141603723667,-50.812542915999074,-15.167467765316132
1658790134978120,-8.6366063935302,-47.63866636148623,-16.388189517051842
1658790134994112,-19.623102159151586,-41.0467689021134,-15.655756466010416
1658790135010104,-29.022659647516548,-32.56275272755033,-11.627374685282575
1658790135026095,-32.745860990310575,-25.05531395437538,-6.378271152819025
1658790135042087,-30.36545357442583,-19.195849546043974,-3.2654306858930795
1658790135058079,-22.552834363317288,-12.970168612191856,-0.7629510948347615
1658790135074071,-7.965209430075447,-6.744487678339738,2.105745021744042
1658790135090062,6.622415503166167,1.3122758831159445,6.8665598535133086
1658790135106054,19.378957808804444,10.223544670786623,9.918364232852582
1658790135122046,28.229190508888223,18.58548867017612,12.176699473563758
1658790135138037,29.38887617303726,26.214999618524416,12.4208438239109
1658790135154029,25.29945830472252,33.29518577859153,12.970168612191856
1658790135170021,17.853055619134693,39.82604715037746,13.76363775082018
1658790135186012,8.33142595559616,45.624475471122196,14.068818188753994
1658790135202004,-1.1291676203554744,51.17875944151956,12.542915999084471
1658790135217996,-8.575570305943302,56.000610360875726,11.749446860456146
1658790135233978,-7.721065079728305,58.9913786526281,11.932555123216616
1658790135249970,-2.227817196917613,63.01976043335662,14.190890363927565
1658790135265961,4.547188525215461,68.75715266651423,18.036163881895163
1658790135281953,10.345616845960194,74.43350881208517,19.80621042191183
1658790135297945,10.772869459067579,78.21774624246609,19.623102159151586
1658790135313936,6.805523765926637,81.1474784466318,21.45418478675515
1658790135329928,6.012054627298312,85.17586022735941,22.61387045090396
1658790135345920,3.936827649347606,89.08216983291368,23.285267414358714
1658790135361911,0.9460593575952316,91.76775768673224,24.322880903333953
1658790135377903,-6.439307240405924,93.23262378881509,24.750133516441565
1658790135393895,-10.772869459067579,96.10131990539412,27.86297398336751
1658790135409886,-6.073090714885211,97.93240253299791,32.07446402685582
1658790135425878,2.7771419851987957,97.26100556954316,31.280994888227497
1658790135441870,8.270389868009488,95.55199511711317,26.276035706111088
1658790135457862,8.880750743877343,93.7819485770965,23.7125200274661
1658790135473853,10.833905546654478,94.63645380331127,25.909819180590375
1658790135489845,12.603952086671143,95.85717555504698,26.7032883192187
1658790135505837,9.613183794918768,95.7961394674603,24.322880903333953
1658790135521828,1.1902037079423735,95.61303120469984,23.407339589532285
1658790135537820,-2.655069810025225,95.30785076676602,28.351262684061794
1658790135553802,-1.1902037079423735,94.33127336537746,33.661402304112244
1658790135569794,5.096513313496644,93.53780422674936,36.83527885862509
1658790135585785,6.622415503166167,91.5236133363851,36.346990157930804
1658790135601777,11.01701380941472,90.66910811017033,38.727397573815324
1658790135617769,17.120622568093268,87.86144808117797,39.70397497520389
1658790135633761,10.528725108720437,85.48104066529368,35.85870145723652
1658790135649752,5.157549401083315,87.31212329289701,35.55352101930248
1658790135665744,7.598992904554734,87.8004119935913,39.88708323796436
1658790135681736,11.871519035629717,83.03959716182226,38.78843366140222
1658790135697727,17.914091706721592,78.40085450522656,37.628747997253186
1658790135713719,13.946746013580423,73.09071488517611,33.844510566872486
1658790135729711,0.6408789196611906,71.25963225757232,32.01342793926892
1658790135745702,-2.227817196917613,72.60242618448183,34.821087968261054
1658790135761694,-2.8381780727854675,72.05310139620087,32.562752727550105
1658790135777686,1.8616006713969,69.67269398031613,27.98504615854108
1658790135793677,4.058899824521177,66.25467307545614,25.23842221713585
1658790135809669,2.4719615472647547,65.33913176165424,25.787747005416804
1658790135825661,6.195162890058782,67.10917830167091,31.70824750133511
1658790135841652,8.758678568703772,69.06233310444804,32.99000534065749
1658790135857644,3.692683299000464,68.39093614099374,30.792706187533213
1658790135873626,-4.852368963149502,66.43778133821661,31.403067063401068
1658790135889618,-1.0070954451819034,65.64431219958806,36.65217059586462
1658790135905610,5.584802014190927,62.59250782024901,39.09361409933604
1658790135921601,11.810482948043045,60.761425192644765,37.2014953841458
1658790135937593,9.430075532158298,58.13687342641333,35.30937666895534
1658790135953585,-3.4485389486533222,55.51232166018144,32.92896925307082
1658790135969576,-14.618142977035177,53.315022507057165,32.562752727550105
1658790135985568,-16.876478217746126,50.08010986495765,32.92896925307082
1658790136001560,-15.289539940489703,44.281681544212915,30.54856183718607
1658790136017552,-20.05035477225897,37.93392843518723,29.877164873731545
1658790136033543,-23.83459220263967,33.11207751583106,32.501716639963206
1658790136049535,-24.444953078507524,29.38887617303726,33.17311360341796
1658790136065527,-21.210040436408008,30.060273136491787,31.403067063401068
1658790136081518,-17.79201953154802,29.877164873731545,29.633020523384403
1658790136097510,-11.932555123216616,27.313649195086555,27.98504615854108
1658790136113502,-1.3122758831159445,23.590447852292527,26.276035706111088
1658790136129493,8.148317692835917,17.60891126878755,23.83459220263967
1658790136145485,7.537956816968062,11.20012207217519,18.524452582589447
1658790136161477,-0.03051804379333589,5.706874189364498,13.031204699778755
1658790136177468,-11.383230334935433,0.6408789196611906,8.209353780422589
1658790136193451,-16.937514305333025,-6.317235065232353,4.669260700389032
1658790136209442,-17.975127794308264,-13.824673838406852,2.3498893720911838
1658790136225434,-14.98435950255589,-21.087968261234437,0.45777065690094787
1658790136241426,-15.289539940489703,-26.58121614404513,-1.8005645838102282
1658790136257417,-12.23773556115043,-30.670634012359642,-4.42511635004189
1658790136273409,-4.730296787975931,-34.149691004806755,-8.148317692835917
1658790136289401,2.04470893415737,-40.00915541313816,-13.275349050125897
1658790136305392,5.584802014190927,-46.84519722285813,-19.256885633630873
1658790136321384,6.622415503166167,-53.43709468223096,-24.567025253681095
1658790136337376,4.242008087281647,-57.64858472571905,-29.08369573510322
1658790136353367,2.4719615472647547,-61.73800259403379,-33.23414969100486
1658790136369359,-3.875791561760934,-68.20782787823305,-37.56771190966674
1658790136385351,-8.880750743877343,-76.08148317692826,-41.47402151522101
1658790136401342,-13.64156557564661,-82.73441672388799,-47.089341573205274
1658790136417334,-13.76363775082018,-85.9693293659875,-51.5449759670405
1658790136433326,-4.60822461280236,-87.80041199359107,-53.681239032578105
1658790136449318,4.974441138323073,-92.6832990005339,-57.587548638132375
1658790136465309,14.496070801861606,-96.6506446936753,-59.1134508278019
1658790136481301,21.026932173647538,-98.60379949645244,-58.13687342641333
1658790136497293,17.303730830853738,-101.77767605096528,-58.2589456015869
1658790136513275,9.185931181811156,-104.1580834668498,-58.625162127107615
1658790136529266,0.6408789196611906,-107.20988784618908,-57.16029602502476
1658790136545258,-3.936827649347606,-108.36957351033811,-54.840924696726915
1658790136561250,-0.7629510948347615,-107.57610437170979,-52.155336842908355
1658790136577242,4.9134050507361735,-108.0033569848174,-50.50736247806526
1658790136593233,12.726024261844714,-109.52925917448692,-50.08010986495765
1658790136609225,15.045395590142562,-112.6420996414131,-49.04249637598241
1658790136625217,7.598992904554734,-114.10696574349595,-48.85938811322194
1658790136641208,-0.3967345693140487,-111.29930571450382,-45.685511558709095
1658790136657200,-4.9134050507361735,-107.75921263447026,-42.32852674143601
1658790136673192,-0.09155413138023505,-106.96574349584193,-39.82604715037769
1658790136689183,5.2185854886702145,-110.13962005035478,-41.1078049897003
1658790136705175,6.012054627298312,-112.21484702830548,-44.8310063324941
1658790136721167,3.3875028610666504,-109.22407873655311,-43.54924849317172
1658790136737158,1.0681315327688026,-103.97497520408956,-40.13122758831173
1658790136753150,6.561379415579495,-99.76348516060125,-35.98077363241032
1658790136769142,9.796292057679011,-99.88555733577482,-35.91973754482342
1658790136785133,6.439307240405924,-99.45830472266744,-39.093614099336264
1658790136801125,2.227817196917613,-95.30785076676602,-36.4080262455177
1658790136817117,7.598992904554734,-90.24185549706249,-28.778515297169406
1658790136833099,11.01701380941472,-88.65491721980607,-24.444953078507524
1658790136849091,8.33142595559616,-86.70176241702893,-24.628061341267994
1658790136865082,1.739528496223329,-81.69680323491252,-21.942473487449433
1658790136881074,-0.15259021896690683,-77.1801327534904,-16.632333867398984
1658790136897066,0.5188067444876197,-76.02044708934159,-14.312962539101136
1658790136913057,6.134126802471883,-76.08148317692826,-12.4208438239109
1658790136929049,8.33142595559616,-75.41008621347373,-12.787060349431613
1658790136945041,2.655069810025225,-74.61661707484541,-16.632333867398984
1658790136961032,-5.889982452124741,-71.99206530861375,-19.684138246738257
1658790136977024,-10.772869459067579,-66.49881742580305,-18.158236057068734
1658790136993016,-10.101472495613052,-60.33417257953761,-15.045395590142562
1658790137009008,-3.570611123826893,-54.4747081712062,-13.64156557564661
1658790137024999,2.8992141603723667,-50.7515068284124,-14.435034714274707
1658790137040991,7.660028992141633,-46.60105287251099,-18.158236057068734
1658790137056983,9.185931181811156,-40.37537193865887,-19.1348134584573
1658790137072974,3.4485389486533222,-31.647211413748437,-15.777828641183987
1658790137088966,-6.012054627298312,-20.843823910887295,-10.833905546654478
1658790137104958,-15.045395590142562,-9.002822919050914,-3.6316472114137923
1658790137120949,-16.510261692225413,1.4953841458761872,2.7771419851987957
1658790137136941,-9.491111619745197,9.55214770733187,8.148317692835917
1658790137152923,1.0070954451819034,15.899900816357558,11.261158159761862
1658790137168915,9.73525597009234,22.67490653849086,11.627374685282575
1658790137184907,12.481879911497572,31.036850537880355,12.542915999084471
1658790137200898,8.880750743877343,39.27672236209651,14.251926451514464
1658790137216890,4.852368963149502,47.27244983596529,14.557106889448278
1658790137232882,-0.03051804379333589,54.10849164568526,14.679179064621849
1658790137248873,-4.058899824521177,61.49385824368619,14.190890363927565
1658790137264865,-5.096513313496644,68.87922484168803,14.373998626688035
1658790137280857,-4.058899824521177,75.22697795071372,14.068818188753994
1658790137296848,-1.3733119707026162,81.26955062180514,16.876478217746126
1658790137312840,1.0681315327688026,85.17586022735941,20.11139085984587
1658790137328832,1.8616006713969,89.32631418326082,21.27107652399468
1658790137344823,2.4719615472647547,92.98847943846795,21.45418478675515
1658790137360815,-0.15259021896690683,95.91821164263365,24.07873655298681
1658790137376807,-4.669260700389032,98.4206912336922,26.092927443350845
1658790137392799,-12.115663385976859,101.59456778820504,25.970855268177274
1658790137408790,-15.228503852903032,104.52429999237074,25.909819180590375
1658790137424782,-8.392462043183059,107.63714045929646,26.58121614404513
1658790137440774,3.3875028610666504,110.68894483863596,28.290226596475122
1658790137456765,9.67421988250544,110.26169222552835,26.7032883192187
1658790137472747,11.261158159761862,109.77340352483407,26.7032883192187
1658790137488739,11.505302510109004,111.36034180209072,29.633020523384403
1658790137504731,8.51453421835663,113.74074921797501,33.600366216525344
1658790137520722,9.430075532158298,115.93804837109928,36.285954070343905
1658790137536714,9.918364232852582,113.06935225452071,35.49248493171581
1658790137552706,-3.3264667734797513,107.45403219653645,30.975814450293683
1658790137568698,-14.679179064621849,105.43984130617218,31.219958800640825
1658790137584689,-10.89494163424115,106.72159914549502,36.408026245517476
1658790137600681,-8.026245517662346,105.68398565651933,33.722438391698915
1658790137616673,-8.392462043183059,104.52429999237074,29.32784008545036
1658790137632664,1.0070954451819034,103.48668650339505,30.54856183718607
1658790137648656,15.350576028076603,102.0218204013122,34.821087968261054
1658790137664648,23.468375677118956,99.6414129854279,35.126268406195095
1658790137680639,20.538643472953254,97.74929427023744,35.61455710688938
1658790137696631,8.392462043183059,94.02609292744364,35.67559319447605
1658790137712623,-7.965209430075447,90.11978332188937,37.07942320897223
1658790137728614,-19.01274128328373,88.53284504463272,39.76501106279079
1658790137744606,-16.571297779812312,87.55626764324415,41.718165865567926
1658790137760598,-10.650797283894008,83.40581368734274,41.65712977798103
1658790137776589,-5.0354772259097444,78.33981841763944,40.070191500724604
1658790137792572,3.7537193865873633,74.61661707484564,41.474021515220784
1658790137808563,8.758678568703772,72.41931792172136,41.474021515220784
1658790137824555,10.223544670786623,70.89341573205184,39.09361409933604
1658790137840547,8.6366063935302,69.36751354238231,40.375371938658645
1658790137856538,8.026245517662346,66.8039978637371,41.16884107728674
1658790137872530,5.95101853971164,61.9211108567938,40.9857328145265
1658790137888522,3.2654306858930795,56.73304341191715,38.23910887312104
1658790137904513,-1.6784924086366573,53.98641947051192,37.9949645227739
1658790137920505,-4.242008087281647,51.11772335393289,38.30014496070794
1658790137936497,-7.537956816968062,47.15037766079172,35.30937666895534
1658790137952489,-7.904173342488775,44.403753719386486,32.501716639963206
1658790137968480,-6.439307240405924,42.02334630350174,30.670634012359642
1658790137984472,-9.979400320439481,39.45983062485675,29.022659647516548
1658790138000464,-7.537956816968062,38.30014496070794,29.38887617303726
1658790138016455,-0.45777065690094787,37.9949645227739,29.51094834821083
1658790138032447,9.73525597009234,37.87289234760033,29.571984435797503
1658790138048439,12.848096437018285,33.905546654459386,27.86297398336751
1658790138064430,6.927595941100208,29.633020523384403,25.848783093003703
1658790138080422,1.739528496223329,27.435721370260126,25.970855268177274
1658790138096414,-1.6784924086366573,25.05531395437538,23.95666437781324
1658790138112396,-7.721065079728305,19.256885633630873,18.524452582589447
1658790138128388,-14.98435950255589,11.261158159761862,13.45845731288614
1658790138144379,-17.66994735637445,4.303044174868319,10.040436408026153
1658790138160371,-13.031204699778755,0.45777065690094787,8.33142595559616
1658790138176363,-6.805523765926637,-4.60822461280236,5.889982452124741
1658790138192354,-6.378271152819025,-11.749446860456146,2.4719615472647547
1658790138208346,-5.645838101777599,-18.158236057068734,0.5188067444876197
1658790138224338,-5.889982452124741,-23.95666437781324,-2.3498893720911838
1658790138240329,-2.7771419851987957,-30.54856183718607,-5.889982452124741
1658790138256321,-3.2654306858930795,-39.76501106279102,-11.810482948043045
1658790138272313,-4.119935912108076,-49.10353246356908,-18.524452582589447
1658790138288304,-4.974441138323073,-56.91615167467762,-24.628061341267994
1658790138304296,-8.148317692835917,-63.56908522163735,-31.525139238574866
1658790138320288,-16.388189517051842,-70.28305485618375,-39.15465018692316
1658790138336279,-21.820401312275862,-76.3256275272754,-45.31929503318838
1658790138352271,-21.942473487449433,-81.33058670939181,-48.98146028839551
1658790138368263,-15.167467765316132,-85.9693293659875,-52.155336842908355
1658790138384255,-3.1433585107195086,-90.18081940947582,-54.718852521553345
1658790138400246,6.8665598535133086,-93.11055161364152,-56.366826886396666
1658790138416238,11.566338597695903,-96.34546425574126,-57.587548638132375
1658790138432220,10.467689021133765,-98.84794384679958,-56.54993514915691
1658790138448212,5.462729839017356,-100.80109864957672,-54.10849164568549
1658790138464203,3.0212863355459376,-103.05943389028766,-52.76569771877621
1658790138480195,1.3733119707026162,-105.0125886930648,-51.30083161669336
1658790138496187,-0.213626306553806,-107.02677958342883,-50.26321812771812
1658790138512179,-1.4343480582895154,-110.26169222552835,-48.00488288700694
1658790138528170,2.105745021744042,-113.4966048676281,-46.41794460975052
1658790138544162,8.880750743877343,-117.15877012283522,-45.44136720836195
1658790138560154,6.378271152819025,-121.73647669184402,-48.18799114976741
1658790138576145,-4.974441138323073,-123.75066758220805,-52.216372930495254
1658790138592137,-13.885709925993751,-123.56755931944758,-51.85015640497454
1658790138608129,-18.89066910811016,-124.54413672083615,-53.25398641947049
1658790138624120,-14.740215152208748,-125.82589456015876,-54.29159990844596
1658790138640112,-8.819714656290444,-128.1452658884566,-56.73304341191738
1658790138656104,-2.288853284504512,-129.12184328984517,-58.38101777676047
1658790138672095,3.2654306858930795,-126.55832761120018,-56.79407949950405
1658790138688087,7.17174029144735,-121.49233234149688,-55.26817730983453
1658790138704079,13.519493400473038,-115.26665140764476,-53.31502250705739
1658790138720070,12.359807736324,-111.7875944151981,-49.95803768978408
1658790138736062,8.575570305943302,-109.46822308690025,-48.310063324940984
1658790138752014,1.3733119707026162,-106.84367132066836,-44.28168154421314
1658790138768005,-7.4158846417944915,-100.434882124056,-38.48325322346841
1658790138783997,-11.383230334935433,-91.34050507362463,-32.19653620202962
1658790138799989,-12.359807736324,-85.17586022735941,-28.717479209582507
1658790138815981,-0.03051804379333589,-82.36820019836728,-26.031891355763946
1658790138831972,14.557106889448278,-83.1006332494087,-22.369726100556818
1658790138847964,17.120622568093268,-86.21347371633465,-24.994277866788707
1658790138863956,8.819714656290444,-84.19928282597084,-25.36049439230942
1658790138879947,-1.5564202334630863,-78.82810711833372,-21.820401312275862
1658790138895939,-12.298771648737329,-74.00625619897755,-21.51522087434182
1658790138911931,-20.294499122606112,-72.11413748378732,-22.49179827573039
1658790138927922,-22.79697871366443,-71.99206530861375,-23.346303501945386
1658790138943914,-20.35553521019301,-70.71030746929114,-22.430762188143717
1658790138959906,-8.941786831464015,-66.92607003891044,-20.782787823300396
1658790138975897,4.058899824521177,-62.8976882581826,-16.815442130159454
1658790138991889,18.158236057068734,-59.845883878843324,-12.603952086671143
1658790139007881,27.069504844739413,-60.57831692988475,-12.848096437018285
1658790139023872,24.994277866788707,-62.592507820248784,-15.10643167772946
1658790139039864,16.998550392919697,-61.371786068513074,-14.496070801861606
1658790139055856,7.17174029144735,-56.48889906157024,-12.23773556115043
1658790139071869,-5.889982452124741,-48.6762798504617,-10.101472495613052
1658790139087860,-17.730983443961122,-39.03257801174959,-9.55214770733187
1658790139103852,-24.994277866788707,-30.36545357442583,-8.51453421835663
1658790139119844,-23.407339589532285,-22.552834363317288,-4.791332875562603
1658790139135835,-14.068818188753994,-15.228503852903032,-0.7019150072480898
1658790139151827,-3.570611123826893,-8.392462043183059,2.5940337224383256
1658790139167819,4.60822461280236,-0.6408789196611906,5.76791027695117
1658790139183810,8.758678568703772,7.537956816968062,7.476920729381163
1658790139199802,8.392462043183059,14.92332341496899,8.758678568703772
1658790139215794,6.500343327992596,22.552834363317288,9.613183794918768
1658790139231785,4.60822461280236,30.4875257495994,10.162508583199724
1658790139247777,5.157549401083315,37.26253147173247,9.55214770733187
1658790139263769,6.622415503166167,43.79339284351863,9.491111619745197
1658790139279760,6.134126802471883,50.38529030289146,10.162508583199724
1658790139295752,4.486152437628789,57.09925993743764,10.711833371480907
1658790139311744,5.2185854886702145,62.714579995422355,10.650797283894008
1658790139327736,4.486152437628789,67.41435873960518,12.23773556115043
1658790139343727,2.9602502479590385,72.23620965896089,11.749446860456146
1658790139359719,-2.3498893720911838,79.80468451972229,14.740215152208748
1658790139375711,-4.119935912108076,84.62653543907845,17.36476691844041
1658790139391693,-4.180971999694748,88.5938811322194,20.660715648126825
1658790139407684,-2.8992141603723667,88.53284504463272,21.942473487449433
1658790139423676,-2.04470893415737,90.36392767223651,20.782787823300396
1658790139439668,0.7019150072480898,93.29365987640222,22.064545662623004
1658790139455659,1.4343480582895154,96.5896086060884,22.186617837796575
1658790139471651,-1.8005645838102282,98.4206912336922,19.80621042191183
1658790139487643,-3.1433585107195086,100.80109864957649,19.1348134584573
1658790139503635,-1.8616006713969,103.54772259098218,20.416571297779683
1658790139519626,-2.227817196917613,105.13466086823837,20.477607385366582
1658790139535618,-4.60822461280236,106.17227435721361,20.660715648126825
1658790139551610,-4.730296787975931,108.43060959792501,25.726710917830133
1658790139567601,1.4953841458761872,111.23826962691692,29.51094834821083
1658790139583593,9.55214770733187,112.39795529106595,30.121309224078686
1658790139599585,5.706874189364498,109.04097047379264,25.05531395437538
1658790139615576,-2.4719615472647547,107.69817654688359,23.346303501945386
1658790139631568,1.8005645838102282,110.26169222552835,30.914778362706784
1658790139647560,9.063859006637585,110.99412527656978,33.661402304112244
1658790139663551,12.4208438239109,108.43060959792501,29.14473182269012
1658790139679543,0.3967345693140487,102.44907301441981,24.322880903333953
1658790139695535,-13.946746013580423,99.6414129854279,25.970855268177274
1658790139711517,-18.524452582589447,100.80109864957649,34.69901579308748
1658790139727509,-14.496070801861606,101.83871213855218,39.70397497520389
1658790139743500,-7.965209430075447,99.15312428473362,37.567711909666514
1658790139759492,-7.782101167315204,95.18577859159222,35.98077363241009
1658790139775484,-0.6408789196611906,94.75852597848507,41.16884107728674
1658790139791475,5.523765926604028,94.63645380331127,48.06591897459339
1658790139807467,12.176699473563758,94.20920119020366,50.56839856565193
1658790139823459,18.402380407415876,90.36392767223651,50.263218127717664
1658790139839450,12.176699473563758,82.55130846112797,46.47898069733719
1658790139855442,-0.9460593575952316,76.63080796520944,44.34271763179959
1658790139871434,-8.575570305943302,74.86076142519278,45.92965590905601
1658790139887426,-11.810482948043045,73.76211184863087,44.159609369039345
1658790139903417,-15.411612115663274,71.38170443274612,38.727397573815324
1658790139919409,-19.623102159151586,68.8181887541009,34.69901579308748
1658790139935401,-18.219272144655406,68.45197222858042,35.85870145723652
1658790139951392,-13.824673838406852,67.59746700236519,37.567711909666514
1658790139967384,-3.2654306858930795,68.9402609292747,38.849469748988895
1658790139983376,5.3406576638437855,68.63508049134089,40.55848020141889
1658790139999367,3.814755474174035,65.8884565499352,41.535057602807456
1658790140015359,0.9460593575952316,63.56908522163758,44.159609369039345
1658790140031341,-1.4953841458761872,62.714579995422355,47.33348592355219
1658790140047333,-5.523765926604028,60.33417257953761,47.57763027389933
1658790140063325,-15.899900816357558,54.718852521553345,45.92965590905601
1658790140079316,-24.444953078507524,49.16456855115575,44.83100633249387
1658790140095308,-21.087968261234437,45.380331120775054,44.098573281452445
1658790140111300,-11.261158159761862,40.070191500724604,40.192263675898175
1658790140127291,-7.049668116273779,31.097886625467254,34.45487144274034
1658790140143283,-5.706874189364498,22.247653925383247,29.26680399786369
1658790140159275,-1.983672846570471,15.716792553597315,27.252613107499656
1658790140175266,0.5798428320745188,9.124895094224485,23.590447852292527
1658790140191258,-5.2185854886702145,0.15259021896690683,19.256885633630873
1658790140207250,-9.55214770733187,-9.85732814526591,15.289539940489703
1658790140223241,-11.444266422522333,-18.76859693293659,11.627374685282575
1658790140239233,-3.570611123826893,-25.543602655069662,6.805523765926637
1658790140255225,3.3875028610666504,-33.844510566872714,-0.8239871824216607
1658790140271216,1.739528496223329,-44.464789806973386,-10.284580758373295
1658790140287208,0.5798428320745188,-52.52155336842907,-17.54787518120088
1658790140303200,-2.288853284504512,-58.13687342641333,-23.285267414358714
1658790140319192,-8.575570305943302,-63.935301747158064,-29.633020523384403
1658790140335183,-13.824673838406852,-71.07652399481185,-35.91973754482342
1658790140351165,-17.24269474326684,-78.21774624246586,-39.88708323796459
1658790140367157,-13.824673838406852,-83.9551384756237,-43.67132066834529
1658790140383149,-11.383230334935433,-88.5938811322194,-47.028305485618375
1658790140399140,-9.73525597009234,-91.70672159914534,-50.14114595254455
1658790140415132,-4.42511635004189,-94.5143816281377,-50.26321812771812
1658790140431124,2.166781109330941,-98.54276340886554,-49.95803768978408
1658790140447116,7.049668116273779,-103.91393911650266,-49.774929427023835
1658790140463107,5.889982452124741,-107.82024872205693,-50.20218204013122
1658790140479099,0.7629510948347615,-109.40718699931335,-49.53078507667669
1658790140495091,-1.4343480582895154,-111.05516136415667,-47.69970244907313
1658790140511082,-2.8381780727854675,-112.6420996414131,-48.6762798504617
1658790140527074,1.4953841458761872,-116.48737315938047,-48.310063324940984
1658790140543066,3.692683299000464,-122.04165712977806,-48.6152437628748
1658790140559057,3.3264667734797513,-126.13107499809257,-48.18799114976741
1658790140575049,0.5188067444876197,-126.98558022430757,-47.211413748378845
1658790140591041,-2.04470893415737,-126.19211108567947,-45.685511558709095
1658790140607032,-1.739528496223329,-128.81666285191113,-45.990691996643136
1658790140623024,-2.532997634851654,-131.68535896849016,-48.6152437628748
1658790140639016,-2.410925459678083,-131.74639505607684,-49.34767681391622
1658790140655007,-4.180971999694748,-129.61013199053946,-47.39452201113909
1658790140670990,-5.279621576256886,-128.9387350270847,-46.11276417181671
1658790140686981,-8.148317692835917,-129.7932402532997,-48.00488288700694
1658790140702973,-10.711833371480907,-128.32837415121685,-49.83596551461051
1658790140718965,-13.153276874952326,-125.09346150911733,-49.83596551461051
1658790140734956,-15.289539940489703,-121.3702601663233,-49.469748989089794
1658790140750948,-13.76363775082018,-114.41214618142976,-46.47898069733742
1658790140766940,-1.4953841458761872,-106.53849088273455,-38.1170366979477
1658790140782931,7.2938124666209205,-102.44907301441981,-34.51590753032747
1658790140798923,10.711833371480907,-102.143892576486,-39.94811932555126
1658790140814915,4.9134050507361735,-100.3738460364691,-37.38460364690627
1658790140830906,-1.0681315327688026,-96.83375295643555,-32.07446402685605
1658790140846898,-6.317235065232353,-92.3170824750132,-25.909819180590375
1658790140862890,-12.787060349431613,-87.00694285496297,-23.285267414358714
1658790140878882,-16.998550392919697,-82.55130846112752,-25.787747005416804
1658790140894873,-22.49179827573039,-80.35400930800324,-29.51094834821083
1658790140910865,-22.8580148012511,-78.21774624246586,-30.121309224078686
1658790140926857,-18.524452582589447,-73.82314793621731,-27.86297398336751
1658790140942848,-9.979400320439481,-67.59746700236519,-26.52018005645823
1658790140958840,-1.3733119707026162,-60.76142519264522,-24.933241779201808
1658790140974832,7.049668116273779,-54.10849164568549,-21.637293049515392
1658790140990814,14.618142977035177,-48.6152437628748,-18.341344319828977
1658790141006806,15.716792553597315,-41.840238040741724,-15.533684290836845
1658790141022797,10.833905546654478,-34.76005188067461,-13.946746013580423
1658790141038789,0.7019150072480898,-28.717479209582507,-12.726024261844714
1658790141054781,-11.871519035629717,-21.69832913710229,-11.322194247348762
1658790141070772,-17.181658655680167,-11.749446860456146,-6.683451590753066
1658790141086764,-16.998550392919697,-1.1902037079423735,0.09155413138023505
1658790141102756,-9.85732814526591,6.134126802471883,3.1433585107195086
1658790141118747,-0.3967345693140487,10.528725108720437,4.058899824521177
1658790141134739,9.308003356984727,17.059586480506596,5.584802014190927
1658790141150731,14.740215152208748,24.628061341267994,7.843137254901876
1658790141166722,13.336385137712568,32.92896925307082,7.904173342488775
1658790141182714,8.697642481116873,41.474021515220784,9.063859006637585
1658790141198706,3.7537193865873633,48.24902723735386,10.345616845960194
1658790141214697,0.3967345693140487,54.169527733271934,11.444266422522333
1658790141230689,1.1902037079423735,59.540703440909056,13.214312962538997
1658790141246681,0.7629510948347615,66.43778133821661,14.98435950255589
1658790141262673,3.6316472114137923,71.93102922102707,15.472648203250174
1658790141278664,4.42511635004189,77.36324101625087,17.36476691844041
1658790141294656,2.410925459678083,81.45265888456561,19.439993896391115
1658790141310638,-2.166781109330941,87.06797894254987,20.843823910887295
1658790141326630,-5.279621576256886,91.03532463569081,23.163195239185143
1658790141342621,-7.965209430075447,94.51438162813793,25.726710917830133
1658790141358613,-5.889982452124741,97.19996948195649,26.031891355763946
1658790141374605,-6.805523765926637,99.2141603723203,26.092927443350845
1658790141390596,-5.706874189364498,101.3504234378579,26.947432669565842
1658790141406588,-0.3967345693140487,104.1580834668498,29.26680399786369
1658790141422580,1.1902037079423735,106.47745479514788,31.89135576409535
1658790141438572,-3.3875028610666504,107.51506828412312,31.342030975814396
1658790141454563,-9.55214770733187,108.9188982986193,33.3562218661782
1658790141470555,-5.95101853971164,108.36957351033789,37.07942320897223
1658790141486547,-0.213626306553806,106.72159914549502,37.87289234760033
1658790141502538,1.3122758831159445,103.3646143282217,35.73662928206295
1658790141518530,-2.7771419851987957,102.81528953994075,34.51590753032724
1658790141534522,-7.782101167315204,104.21911955443647,34.14969100480653
1658790141550513,-8.575570305943302,105.19569695582504,36.65217059586462
1658790141566505,-6.744487678339738,103.12046997787456,35.065232318608196
1658790141582497,-6.012054627298312,100.74006256198982,33.17311360341796
1658790141598488,-1.6784924086366573,100.86213473716361,34.33279926756677
1658790141614480,5.462729839017356,100.98420691233696,37.506675822079615
1658790141630462,9.002822919050914,99.82452124818792,38.54428931105508
1658790141646454,3.997863736934505,98.48172732127887,35.98077363241009
1658790141662446,-7.537956816968062,98.17654688334505,36.10284580758366
1658790141678437,-16.08300907911803,100.67902647440314,39.88708323796436
1658790141694429,-8.758678568703772,101.89974822613885,48.67627985046147
1658790141710421,4.791332875562603,96.46753643091506,51.30083161669336
1658790141726412,11.01701380941472,90.11978332188937,47.6997024490729
1658790141742404,10.101472495613052,86.76279850461606,46.784161135271006
1658790141758396,2.288853284504512,87.06797894254987,47.82177462424647
1658790141774387,-2.7161058976118966,87.49523155565748,51.23979552910623
1658790141790379,-0.7019150072480898,85.11482413977274,50.446326390478134
1658790141806371,6.195162890058782,80.3540093080037,48.06591897459339
1658790141822363,6.134126802471883,73.64003967345707,45.80758373388244
1658790141838354,1.6784924086366573,70.89341573205184,45.624475471122196
1658790141854346,0.7019150072480898,69.91683833066327,49.16456855115575
1658790141870338,-2.5940337224383256,70.03891050583661,47.82177462424647
1658790141886329,-3.692683299000464,69.24544136720851,45.86861982146934
1658790141902321,-4.974441138323073,66.13260090028234,45.07515068284101
1658790141918313,0.09155413138023505,62.83665217059615,46.540016784923864
1658790141934304,3.936827649347606,57.95376516365286,45.92965590905601
1658790141950256,1.1902037079423735,55.939574273289054,43.54924849317149
1658790141966248,-4.119935912108076,54.65781643396622,44.403753719386486
1658790141982239,-7.2938124666209205,51.667048142213844,45.5634393835353
1658790141998231,-11.322194247348762,46.540016784923864,42.755779354543165
1658790142014223,-5.3406576638437855,42.51163500419602,40.68055237659246
1658790142030214,2.227817196917613,36.469062333104375,37.689784084840085
1658790142046206,5.2185854886702145,27.679865720607268,31.89135576409535
1658790142062198,2.8992141603723667,20.782787823300396,27.252613107499656
1658790142078189,-0.3967345693140487,17.54787518120088,22.79697871366443
1658790142094181,-4.60822461280236,13.031204699778755,19.745174334325156
1658790142110173,-10.040436408026153,3.692683299000464,15.777828641183987
1658790142126165,-12.298771648737329,-7.537956816968062,11.383230334935433
1658790142142156,-8.45349813076973,-16.754406042572555,7.537956816968062
1658790142158148,-7.354848554207592,-24.26184481574728,2.410925459678083
1658790142174140,-10.528725108720437,-32.31860837720319,-5.157549401083315
1658790142190131,-10.650797283894008,-39.76501106279102,-12.726024261844714
1658790142206123,-9.796292057679011,-48.554207675288126,-21.39314869916825
1658790142222115,-6.622415503166167,-57.03822384985119,-29.08369573510322
1658790142238106,-7.721065079728305,-65.52224002441449,-37.14045929655913
1658790142254098,-13.336385137712568,-72.78553444724184,-44.58686198214696
1658790142270111,-17.914091706721592,-77.48531319142444,-49.95803768978408
1658790142286102,-19.9282825970854,-80.23193713282967,-53.86434729533835
1658790142302094,-19.073777370870403,-84.50446326390465,-57.77065690089262
1658790142318086,-13.885709925993751,-89.26527809567392,-60.028992141603794
1658790142334077,-7.721065079728305,-92.80537117570748,-61.06660563057903
1658790142350069,0.5798428320745188,-95.12474250400555,-60.39520866712451
1658790142366061,2.7161058976118966,-98.48172732127887,-59.23552300297547
1658790142382053,-2.8992141603723667,-101.47249561303124,-59.1134508278019
1658790142398044,-7.2938124666209205,-102.57114518959338,-56.91615167467762
1658790142414036,-7.782101167315204,-104.2191195544367,-54.04745555809882
1658790142430028,-6.9886320286868795,-106.29434653238741,-54.10849164568549
1658790142446019,-1.1902037079423735,-107.9423208972305,-51.36186770428026
1658790142462011,4.180971999694748,-110.81101701380953,-49.40871290150312
1658790142478003,4.669260700389032,-114.10696574349595,-49.10353246356908
1658790142493994,7.782101167315204,-114.10696574349595,-48.18799114976741
1658790142509986,12.359807736324,-113.98489356832238,-45.807583733882666
1658790142525978,3.6316472114137923,-118.07431143663689,-48.92042420080884
1658790142541969,-3.5095750362402214,-118.74570840009164,-48.6152437628748
1658790142557961,-4.42511635004189,-117.5860227359426,-45.685511558709095
1658790142573953,-6.927595941100208,-117.89120317387665,-47.211413748378845
1658790142589935,-8.697642481116873,-117.03669794766165,-47.57763027389956
1658790142605927,-5.096513313496644,-115.99908445868618,-44.95307850766767
1658790142621918,3.5095750362402214,-115.32768749523166,-43.91546501869243
1658790142637910,12.603952086671143,-113.25246051728095,-42.32852674143601
1658790142653902,17.79201953154802,-110.68894483863596,-40.37537193865887
1658790142669893,15.655756466010416,-109.7123674372474,-39.76501106279102
1658790142685885,8.819714656290444,-108.97993438620597,-38.78843366140245
1658790142701877,0.45777065690094787,-105.8670939192798,-37.81185626001388
1658790142717868,-8.392462043183059,-101.35042343785767,-34.63797970550104
1658790142733860,-16.998550392919697,-99.64141298542768,-34.149691004806755
1658790142749852,-22.552834363317288,-97.32204165712983,-32.25757228961629
1658790142765843,-18.341344319828977,-92.7443350881208,-27.252613107499656
1658790142781835,-6.805523765926637,-88.10559243152511,-22.8580148012511
1658790142797827,6.073090714885211,-84.44342717631798,-23.83459220263967
1658790142813819,17.120622568093268,-81.025406271458,-23.102159151598244
1658790142829810,17.059586480506596,-82.30716411078038,-24.322880903333953
1658790142845802,9.918364232852582,-82.1850919356068,-25.42153047989609
1658790142861794,-0.6408789196611906,-78.70603494316015,-23.346303501945386
1658790142877785,-9.796292057679011,-70.466163118944,-19.256885633630873
1658790142893777,-16.876478217746126,-63.63012130922402,-15.228503852903032
1658790142909729,-15.289539940489703,-60.94453345540546,-15.960936903944457
1658790142925720,-10.406652933546866,-59.66277561608308,-17.853055619134693
1658790142941712,-3.5095750362402214,-58.86930647745476,-18.158236057068734
1658790142957704,4.730296787975931,-56.79407949950405,-18.524452582589447
1658790142973695,6.500343327992596,-52.338445105668825,-16.26611734187827
1658790142989687,4.486152437628789,-45.685511558709095,-14.496070801861606
1658790143005679,-0.09155413138023505,-38.056000610361025,-12.603952086671143
1658790143021670,-5.889982452124741,-29.877164873731545,-9.491111619745197
1658790143037662,-10.101472495613052,-23.285267414358714,-6.256198977645454
1658790143053654,-10.345616845960194,-17.36476691844041,-3.0212863355459376
1658790143069646,-8.45349813076973,-9.613183794918768,2.532997634851654
1658790143085637,-4.852368963149502,-0.8850232700083325,7.660028992141633
1658790143101629,-1.0681315327688026,8.819714656290444,11.261158159761862
1658790143117621,2.288853284504512,15.777828641183987,12.848096437018285
1658790143133612,7.904173342488775,21.087968261234437,12.726024261844714
1658790143149604,9.124895094224485,26.6422522316318,12.848096437018285
1658790143165596,8.880750743877343,32.99000534065749,11.810482948043045
1658790143181587,5.279621576256886,39.70397497520389,10.162508583199724
1658790143197579,0.7019150072480898,46.23483634699005,8.758678568703772
1658790143213571,-0.3967345693140487,52.2163729304948,8.026245517662346
1658790143229583,2.105745021744042,56.67200732433048,7.660028992141633
1658790143245575,4.9134050507361735,61.86007476920713,9.002822919050914
1658790143261567,6.622415503166167,68.08575570305948,10.955977721828049
1658790143277558,7.11070420386045,74.18936446173802,12.848096437018285
1658790143293550,5.462729839017356,79.4384679942018,14.740215152208748
1658790143309542,4.364080262455218,82.49027237354085,17.42580300602731
1658790143325533,1.6784924086366573,84.0772106507975,19.1348134584573
1658790143341525,-3.2654306858930795,86.03036545357463,20.965896086060866
1658790143357517,-4.791332875562603,89.8146028839551,22.247653925383247
1658790143373509,-3.936827649347606,93.23262378881509,22.247653925383247
1658790143389500,-2.7771419851987957,94.08712901503031,20.538643472953254
1658790143405492,-5.2185854886702145,94.94163424124508,19.9282825970854
1658790143421484,-0.03051804379333589,97.01686121919602,23.468375677118956
1658790143437475,7.17174029144735,99.03105210955982,26.214999618524416
1658790143453467,12.298771648737329,99.58037689784078,24.933241779201808
1658790143469459,13.153276874952326,99.45830472266744,21.39314869916825
1658790143485450,8.697642481116873,99.88555733577505,20.660715648126825
1658790143501442,6.683451590753066,101.96078431372553,23.651483939879427
1658790143517434,3.814755474174035,103.3646143282217,24.933241779201808
1658790143533425,1.3733119707026162,103.60875867856885,23.651483939879427
1658790143549408,-3.2043945983061803,101.71663996337838,21.881437399862534
1658790143565399,-7.476920729381163,98.66483558403934,21.45418478675515
1658790143581391,-5.889982452124741,97.56618600747697,23.89562829022657
1658790143597383,-1.3733119707026162,97.87136644541079,26.031891355763946
1658790143613374,-2.105745021744042,97.74929427023744,25.60463874265656
1658790143629366,-13.885709925993751,96.95582513160934,25.848783093003703
1658790143645358,-16.693369954985883,97.26100556954316,31.097886625467254
1658790143661349,-6.805523765926637,96.83375295643555,37.9949645227739
1658790143677341,7.11070420386045,96.22339208056792,37.506675822079615
1658790143693333,11.932555123216616,93.90402075226984,36.22491798275723
1658790143709324,7.476920729381163,92.19501029983985,36.591134508277946
1658790143725316,2.166781109330941,92.01190203707938,39.94811932555103
1658790143741308,2.532997634851654,92.68329900053413,44.7699702449072
1658790143757300,3.936827649347606,91.40154116121175,43.54924849317149
1658790143773291,0.6408789196611906,88.77698939497986,40.314335851071746
1658790143789283,-8.026245517662346,85.78622110322749,40.314335851071746
1658790143805275,-7.904173342488775,85.42000457770655,42.938887617303635
1658790143821266,-0.6408789196611906,85.90829327840083,47.15037766079172
1658790143837258,4.730296787975931,82.79545281147512,43.42717631799792
1658790143853250,2.4719615472647547,78.27878233005276,38.849469748988895
1658790143869232,-1.739528496223329,74.43350881208517,39.032578011749365
1658790143885223,-0.8850232700083325,72.6634622720685,39.88708323796436
1658790143901215,-2.288853284504512,71.62584878309326,39.64293888761722
1658790143917207,-4.42511635004189,69.67269398031613,37.9949645227739
1658790143933199,-11.932555123216616,66.13260090028234,38.17807278553437
1658790143949190,-11.383230334935433,63.56908522163758,40.1312275883115
1658790143965182,-1.8005645838102282,62.65354390783568,42.57267109178292
1658790143981174,13.214312962538997,61.310749980926175,42.26749065384888
1658790143997165,23.651483939879427,56.67200732433048,39.45983062485675
1658790144013157,23.407339589532285,50.690470740825276,36.469062333104375
1658790144029149,22.369726100556818,45.74654764629577,34.39383535515367
1658790144045140,15.838864728770886,41.16884107728674,30.853742275120112
1658790144061132,-0.5798428320745188,34.51590753032724,24.750133516441565
1658790144077124,-23.102159151598244,27.252613107499656,20.721751735713724
1658790144093115,-34.51590753032747,17.914091706721592,17.66994735637445
1658790144109107,-33.5393301289389,7.598992904554734,14.007782101167322
1658790144125099,-19.378957808804444,-0.2746623941404778,10.162508583199724
1658790144141090,-6.134126802471883,-7.660028992141633,7.4158846417944915
1658790144157082,4.42511635004189,-15.472648203250174,3.4485389486533222
1658790144173074,10.528725108720437,-21.942473487449433,-0.9460593575952316
1658790144189026,12.726024261844714,-27.374685282673227,-4.42511635004189
1658790144205017,8.087281605249018,-34.332799267567,-8.697642481116873
1658790144221009,1.4343480582895154,-42.999923704890534,-12.359807736324
1658790144237001,-6.256198977645454,-52.155336842908355,-17.79201953154802
1658790144252992,-8.51453421835663,-59.60173952849618,-23.041123064011572
1658790144268984,-9.002822919050914,-68.45197222858019,-28.96162355992965
1658790144284976,-10.406652933546866,-77.79049362935825,-35.431448844129136
1658790144300967,-8.6366063935302,-84.13824673838394,-40.80262455176626
1658790144316959,-6.683451590753066,-87.61730373083083,-45.31929503318838
1658790144332951,-6.378271152819025,-90.48599984740963,-48.98146028839551
1658790144348942,-6.134126802471883,-92.56122682536034,-50.50736247806526
1658790144364934,-5.0354772259097444,-95.00267032883198,-49.83596551461051
1658790144380926,-1.0070954451819034,-96.95582513160912,-47.57763027389956
1658790144396917,1.2512397955290453,-97.62722209506387,-46.11276417181671
1658790144412909,4.119935912108076,-96.16235599298102,-42.14541847867554
1658790144428901,4.669260700389032,-95.00267032883198,-38.72739757381555
1658790144444893,3.2654306858930795,-96.52857251850173,-37.56771190966674
1658790144460884,3.6316472114137923,-98.78690775921268,-34.51590753032747
1658790144476876,2.166781109330941,-101.59456778820481,-32.99000534065772
1658790144492868,-1.0070954451819034,-103.42565041580838,-31.036850537880355
1658790144508880,-1.8616006713969,-101.65560387579171,-29.022659647516548
1658790144524872,-3.997863736934505,-103.18150606546124,-30.54856183718607
1658790144540864,-6.805523765926637,-106.59952697032122,-35.370412756542464
1658790144556855,-11.932555123216616,-109.59029526207382,-40.13122758831173
1658790144572847,-15.289539940489703,-109.04097047379264,-43.183031967651004
1658790144588839,-12.970168612191856,-107.27092393377598,-44.403753719386714
1658790144604830,-6.378271152819025,-104.40222781719694,-45.746547646295994
1658790144620822,9.246967269398056,-101.41145952544457,-43.06095979247743
1658790144636814,19.745174334325156,-104.40222781719694,-42.999923704890534
1658790144652805,19.867246509498727,-106.17227435721384,-43.305104142824575
1658790144668797,14.435034714274707,-101.83871213855195,-37.14045929655913
1658790144684789,5.3406576638437855,-95.3688868543527,-30.54856183718607
1658790144700780,-5.584802014190927,-92.56122682536034,-26.153963530937517
1658790144716772,-15.411612115663274,-94.27023727779056,-26.52018005645823
1658790144732764,-24.567025253681095,-95.85717555504698,-26.092927443350845
1658790144748756,-25.848783093003703,-92.7443350881208,-21.942473487449433
1658790144764747,-16.510261692225413,-85.54207675288012,-16.998550392919697
1658790144780739,1.0681315327688026,-80.65918974593728,-10.589761196307336
1658790144796731,12.726024261844714,-83.77203021286323,-14.190890363927565
1658790144812722,16.02197299153113,-88.10559243152511,-21.39314869916825
1658790144828704,12.909132524605184,-88.22766460669868,-21.39314869916825
