Timestamp (microseconds),Accel X (g),Accel Y (g),Accel Z (g)
1658790118922485,0.11114671549553634,-0.45709925993743816,0.8920424200808732
1658790118938483,0.11139085984588348,-0.4564888990615703,0.8931410696574353
1658790118954481,0.10955977721827992,-0.4595407034409096,0.902906843671321
1658790118970479,0.11322194247348705,-0.4599069199664303,0.9077897306782639
1658790118986477,0.12042420080872773,-0.4547798886091403,0.9077897306782639
1658790119002474,0.12664988174258074,-0.4523384451056689,0.9124284733348595
1658790119018472,0.12750438696879574,-0.45172808422980104,0.8998550392919817
1658790119034470,0.11908140688181845,-0.4690623331044481,0.9092545967803467
1658790119050468,0.11151293202105705,-0.4769970244907302,0.9317158770122838
1658790119066466,0.11493095292591704,-0.467963683527886,0.9468528267338066
1658790119082464,0.11749446860456203,-0.460273136491951,0.937331197070268
1658790119098462,0.11908140688181845,-0.4494087129015032,0.9057145037003131
1658790119114460,0.11529716945143775,-0.45966277561608315,0.9091325246051731
1658790119130458,0.1100480659189742,-0.4669871061264974,0.9192645151445795
1658790119146455,0.11334401464866062,-0.4578316929884796,0.929640650034333
1658790119162453,0.1088273441672385,-0.47223620965896096,0.9337911039902345
1658790119178451,0.10772869459067635,-0.4673533226520181,0.9096208133058674
1658790119194449,0.1079728389410235,-0.47724116884107737,0.9164568551155874
1658790119210447,0.10284580758373352,-0.47895017929350736,0.9099870298313881
1658790119226445,0.10308995193408066,-0.46222629129472814,0.9258564126039524
1658790119242431,0.10394445716029566,-0.45807583733882673,0.9245136186770431
1658790119258429,0.10687418936446136,-0.462836652170596,0.9154802777141988
1658790119274427,0.1088273441672385,-0.4724803540093081,0.9137712672617688
1658790119290425,0.10894941634241206,-0.48102540627145807,0.9092545967803467
1658790119306423,0.1117570763714042,-0.4845654993514916,0.9141374837872895
1658790119322421,0.11309987029831348,-0.4892042420080873,0.9217059586480509
1658790119338419,0.11908140688181845,-0.4800488288700695,0.9333028152895402
1658790119354416,0.12713817044327502,-0.4586861982146946,0.9218280308232245
1658790119370414,0.11969176775768631,-0.4557564660105289,0.8910658426794846
1658790119386412,0.10907148851758564,-0.47357900358587024,0.8810559243152518
1658790119402410,0.10370031280994851,-0.49372091248950944,0.9082780193789581
1658790119418408,0.09918364232852639,-0.4863965819790952,0.9141374837872895
1658790119434406,0.10894941634241206,-0.46344701304646385,0.9126726176852067
1658790119450404,0.11285572594796633,-0.4700389105058367,0.9098649576562146
1658790119466402,0.11212329289692491,-0.47394522011139095,0.8853284504463268
1658790119482400,0.11053635461966849,-0.48578622110322733,0.897779812314031
1658790119498397,0.11212329289692491,-0.4838330663004502,0.9145037003128103
1658790119514395,0.11517509727626418,-0.4758983749141681,0.9252460517280845
1658790119530393,0.11737239642938846,-0.4699168383306631,0.9193865873197531
1658790119546391,0.11139085984588348,-0.4737010757610438,0.9091325246051731
1658790119562378,0.10687418936446136,-0.4758983749141681,0.8958266575112539
1658790119578375,0.10650797283894065,-0.48566414892805376,0.9213397421225302
1658790119594373,0.11358815899900776,-0.4846875715266652,0.9451438162813766
1658790119610371,0.11590753032730561,-0.47064927138170454,0.933913176165408
1658790119626369,0.10931563286793278,-0.46478980697337313,0.9264667734798202
1658790119642367,0.10577553978789922,-0.4664988174258031,0.9108415350576031
1658790119658365,0.1024795910582128,-0.47614251926451523,0.9219501029983981
1658790119674363,0.10968184939345349,-0.4740672922865645,0.9204852368963152
1658790119690361,0.11114671549553634,-0.46845197222858026,0.9086442359044788
1658790119706359,0.11041428244449492,-0.46686503395132384,0.915724422064546
1658790119722356,0.11590753032730561,-0.46552224002441456,0.9186541542687117
1658790119738354,0.11969176775768631,-0.46601052872510884,0.9090104524299996
1658790119754352,0.11151293202105705,-0.46979476615548954,0.8861829556725418
1658790119770350,0.10455481803616351,-0.4776073853665981,0.893507286182956
1658790119786348,0.10724040588998207,-0.47138170443274596,0.8964370183871218
1658790119802346,0.11187914854657777,-0.46466773479819956,0.9060807202258339
1658790119818344,0.11615167467765275,-0.4607614251926453,0.9058365758754867
1658790119834342,0.11590753032730561,-0.4657663843747617,0.893507286182956
1658790119850340,0.11541924162661132,-0.46100556954299243,0.8878919661249718
1658790119866337,0.11248950942244562,-0.4694285496299688,0.8972915236133368
1658790119882293,0.1091935606927592,-0.4641794460975053,0.8885023270008396
1658790119898291,0.1100480659189742,-0.47357900358587024,0.9152361333638517
1658790119914288,0.1117570763714042,-0.4699168383306631,0.9162127107652402
1658790119930286,0.12298771648737272,-0.461127641718166,0.9103532463569088
1658790119946283,0.11407644769970204,-0.47101548790722525,0.9008316166933703
1658790119962280,0.11065842679484206,-0.4783398184176395,0.8992446784161139
1658790119978278,0.10479896238651065,-0.4834668497749295,0.908033875028611
1658790119994275,0.11615167467765275,-0.46564431219958813,0.9192645151445795
1658790120010273,0.12188906691081058,-0.465400167849241,0.9171892881666288
1658790120026270,0.12005798428320702,-0.47479972533760595,0.9361104753185323
1658790120042267,0.11493095292591704,-0.47479972533760595,0.9147478446631574
1658790120058265,0.09820706492713782,-0.4674753948271917,0.8919203479056996
1658790120074262,0.10296787975890709,-0.45172808422980104,0.9202410925459681
1658790120090260,0.09234760051880642,-0.4704051270313574,0.9246356908522166
1658790120106257,0.10431067368581637,-0.4678416113527124,0.9248798352025638
1658790120122254,0.1155413138017849,-0.46478980697337313,0.9267109178301673
1658790120138252,0.1138323033493549,-0.45966277561608315,0.9193865873197531
1658790120154249,0.10748455024032921,-0.47772945754177165,0.9173113603418024
1658790120170247,0.10199130235751852,-0.4910353246356909,0.9119401846341653
1658790120186244,0.10601968413824636,-0.49494163424124515,0.9119401846341653
1658790120202118,0.10943770504310635,-0.4845654993514916,0.9225604638742659
1658790120218114,0.1100480659189742,-0.4704051270313574,0.9190203707942324
1658790120234111,0.10760662241550278,-0.47431143663691167,0.906324864576181
1658790120250108,0.1033340962844278,-0.48017090104524307,0.8911879148546582
1658790120266105,0.10748455024032921,-0.48395513847562377,0.9059586480506603
1658790120282102,0.10821698329137064,-0.48871595330739304,0.9234149691004809
1658790120298099,0.11139085984588348,-0.47565423056382095,0.9308613717860688
1658790120314096,0.10772869459067635,-0.4784618905928131,0.9113298237582974
1658790120330093,0.10321202410925423,-0.48529793240253305,0.9132829785610745
1658790120346090,0.10321202410925423,-0.4766308079652095,0.902052338445106
1658790120362087,0.10113679713130352,-0.47443350881208524,0.9103532463569088
1658790120378084,0.1109025711451892,-0.47724116884107737,0.9229266803997866
1658790120394081,0.11358815899900776,-0.4809033340962845,0.9212176699473567
1658790120410078,0.1184710460059506,-0.4711375600823988,0.9179217212176702
1658790120426075,0.1100480659189742,-0.4707713435568781,0.8927748531319146
1658790120442072,0.10748455024032921,-0.47858396276798665,0.8917982757305261
1658790120458068,0.10528725108720494,-0.4874952315556573,0.9024185549706267
1658790120474065,0.10467689021133708,-0.4788281071183338,0.9163347829404138
1658790120490062,0.10809491111619707,-0.4536812390325782,0.9176775768673231
1658790120506059,0.10296787975890709,-0.45624475471122317,0.8953383688105596
1658790120521942,0.1117570763714042,-0.4612497138933396,0.8947280079346918
1658790120537938,0.11566338597695847,-0.47443350881208524,0.9085221637293053
1658790120553935,0.11322194247348705,-0.464545662623026,0.9259784847791259
1658790120569931,0.11322194247348705,-0.45795376516365316,0.9268329900053409
1658790120585928,0.10858319981689135,-0.457709620813306,0.9175555046921495
1658790120601924,0.10601968413824636,-0.466254673075456,0.9129167620355538
1658790120617921,0.10357824063477494,-0.4691844052796217,0.9214618142977038
1658790120633917,0.10016021972991496,-0.465400167849241,0.9146257724879838
1658790120649913,0.10833905546654421,-0.4606393530174717,0.9334248874647137
1658790120665910,0.11444266422522276,-0.4635690852216374,0.9557640955214772
1658790120681906,0.11053635461966849,-0.46344701304646385,0.9261005569542995
1658790120697903,0.11517509727626418,-0.4514839398794539,0.9108415350576031
1658790120713899,0.11114671549553634,-0.4762645914396888,0.9323262378881516
1658790120729896,0.11285572594796633,-0.4614938582436867,0.939894712748913
1658790120745892,0.11627374685282632,-0.4389105058365761,0.939894712748913
1658790120761889,0.1050431067368578,-0.4452582589456018,0.9250019073777374
1658790120777885,0.09979400320439424,-0.455146105134661,0.9024185549706267
1658790120793882,0.09686427100022854,-0.47101548790722525,0.908888380254826
1658790120809878,0.10199130235751852,-0.4623483634699017,0.9065690089265281
1658790120825874,0.10431067368581637,-0.4539253833829253,0.913160906385901
1658790120841797,0.11053635461966849,-0.4737010757610438,0.9137712672617688
1658790120857793,0.10846112764171778,-0.4682078278782331,0.9032730601968417
1658790120873789,0.11065842679484206,-0.4535591668574046,0.8909437705043111
1658790120889786,0.11358815899900776,-0.45929655909056244,0.8961928740367746
1658790120905782,0.11432059205004919,-0.4837109941252766,0.9251239795529109
1658790120921779,0.10980392156862706,-0.4793163958190281,0.9185320820935381
1658790120937775,0.10980392156862706,-0.4552681773098346,0.904615854123751
1658790120953772,0.10308995193408066,-0.45929655909056244,0.9113298237582974
1658790120969768,0.10589761196307279,-0.467963683527886,0.9090104524299996
1658790120985765,0.11493095292591704,-0.46100556954299243,0.912306401159686
1658790121001761,0.12115663385976916,-0.457709620813306,0.9167009994659345
1658790121017758,0.12372014953841415,-0.4557564660105289,0.9219501029983981
1658790121033754,0.11700617990386775,-0.4614938582436867,0.8937514305333032
1658790121049750,0.11700617990386775,-0.47443350881208524,0.9038834210727096
1658790121065747,0.10748455024032921,-0.4822461280231938,0.9102311741817353
1658790121081743,0.11248950942244562,-0.46222629129472814,0.9086442359044788
1658790121097740,0.1109025711451892,-0.46478980697337313,0.9257343404287788
1658790121113736,0.12115663385976916,-0.46308079652094314,0.9152361333638517
1658790121129733,0.11663996337834703,-0.46601052872510884,0.8936293583581296
1658790121145729,0.1138323033493549,-0.47223620965896096,0.8983901731898989
1658790121161621,0.10821698329137064,-0.462836652170596,0.9043717097734039
1658790121177617,0.11236743724727205,-0.45209430075532175,0.9237811856260016
1658790121193613,0.1079728389410235,-0.4603952086671246,0.9278095674067295
1658790121209609,0.11114671549553634,-0.47235828183413453,0.9231708247501338
1658790121225605,0.12176699473563701,-0.47260242618448167,0.9107194628824296
1658790121241601,0.11419851987487561,-0.46979476615548954,0.9081559472037846
1658790121257597,0.10980392156862706,-0.4612497138933396,0.9186541542687117
1658790121273593,0.10235751888303923,-0.44452582589456036,0.911451895933471
1658790121289589,0.10540932326237851,-0.4434271763179982,0.9206073090714888
1658790121305585,0.10992599374380063,-0.4492866407263296,0.9145037003128103
1658790121321581,0.10614175631341993,-0.4652780956740674,0.9069352254520489
1658790121337576,0.11529716945143775,-0.462836652170596,0.9109636072327767
1658790121353572,0.10540932326237851,-0.4708934157320517,0.9334248874647137
1658790121369568,0.11041428244449492,-0.46295872434576957,0.9448996719310294
1658790121385564,0.1050431067368578,-0.45807583733882673,0.9464866102082858
1658790121401560,0.10724040588998207,-0.4469672693980318,0.9232928969253074
1658790121417556,0.10431067368581637,-0.44403753719386607,0.9043717097734039
1658790121433552,0.10431067368581637,-0.45807583733882673,0.9245136186770431
1658790121449548,0.11346608682383419,-0.45294880598153675,0.9391622796978716
1658790121465544,0.12066834515907487,-0.44367132066834536,0.9474631876096744
1658790121481445,0.11480888075074347,-0.45246051728084247,0.9394064240482187
1658790121497440,0.10724040588998207,-0.4545357442587932,0.9107194628824296
1658790121513436,0.10931563286793278,-0.464545662623026,0.9215838864728774
1658790121529431,0.1062638284885935,-0.4711375600823988,0.943312733653773
1658790121545427,0.12567330434119217,-0.4502632181277182,0.9618677042801558
1658790121561422,0.12249942778667844,-0.45539024948500817,0.9583276112001222
1658790121577418,0.11444266422522276,-0.46308079652094314,0.9281757839322502
1658790121593413,0.10931563286793278,-0.45929655909056244,0.9073014419775696
1658790121609409,0.09918364232852639,-0.4831006332494088,0.9309834439612423
1658790121625404,0.1079728389410235,-0.45758754863813245,0.9256122682536052
1658790121641400,0.1129777981231399,-0.4469672693980318,0.930495155260548
1658790121657395,0.10955977721827992,-0.46588845654993527,0.9180437933928438
1658790121673391,0.1091935606927592,-0.4700389105058367,0.9068131532768753
1658790121689386,0.11114671549553634,-0.4721141374837874,0.9008316166933703
1658790121705382,0.12237735561150487,-0.459418631265736,0.8968032349126425
1658790121721377,0.11883726253147131,-0.46137178606851315,0.8905775539787903
1658790121737373,0.12176699473563701,-0.461127641718166,0.8941176470588239
1658790121753368,0.12469672693980272,-0.44782177462424677,0.8893568322270546
1658790121769364,0.12115663385976916,-0.4464789806973375,0.8825207904173347
1658790121785359,0.12249942778667844,-0.4573434042877853,0.8985122453650725
1658790121801269,0.12420843823910843,-0.45465781643396674,0.8841077286945911
1658790121817264,0.12127870603494273,-0.4717479209582667,0.8850843060959797
1658790121833259,0.12884718089570502,-0.4652780956740674,0.8987563897154196
1658790121849254,0.1389791714351114,-0.4729686427100024,0.9171892881666288
1658790121865249,0.1415426871137564,-0.4717479209582667,0.9231708247501338
1658790121881244,0.14752422369726137,-0.4623483634699017,0.8948500801098653
1658790121897239,0.13873502708476426,-0.5012893873502708,0.9257343404287788
1658790121913234,0.12213321126115773,-0.48651865415426876,0.9186541542687117
1658790121929229,0.11017013809414777,-0.4627145799954224,0.9137712672617688
1658790121945224,0.10211337453269209,-0.46015106431677744,0.9236591134508281
1658790121961219,0.09295796139467427,-0.4682078278782331,0.9221942473487452
1658790121977214,0.09332417792019498,-0.47687495231555665,0.932204165712978
1658790121993209,0.1004043640802621,-0.4674753948271917,0.9290302891584652
1658790122009204,0.10528725108720494,-0.4712596322575724,0.9306172274357216
1658790122025200,0.11639581902799989,-0.4657663843747617,0.9405050736247809
1658790122041195,0.12103456168459559,-0.45331502250705746,0.9258564126039524
1658790122057190,0.12384222171358772,-0.44831006332494105,0.939040207522698
1658790122073185,0.12005798428320702,-0.4459906919966432,0.9295185778591595
1658790122089180,0.11859311818112417,-0.44379339284351893,0.9221942473487452
1658790122105175,0.12286564431219915,-0.4531929503318839,0.9383077744716566
1658790122121124,0.11944762340733917,-0.45502403295948746,0.9547875181200887
1658790122137119,0.11773861295490917,-0.44672312504768463,0.9374532692454416
1658790122153114,0.12079041733424845,-0.4380560006103611,0.9231708247501338
1658790122169109,0.11541924162661132,-0.4357366292820628,0.9108415350576031
1658790122185104,0.11615167467765275,-0.43378347447928567,0.9185320820935381
1658790122201099,0.11651789120317346,-0.4240177004654,0.9099870298313881
1658790122217094,0.12274357213702558,-0.42511635004196213,0.9033951323720153
1658790122233089,0.12164492256046344,-0.4435492484931718,0.9042496375982303
1658790122249084,0.1214007782101163,-0.42597085526817713,0.9026626993209739
1658790122265079,0.12030212863355416,-0.43170824750133496,0.908033875028611
1658790122281074,0.12042420080872773,-0.44415960936903964,0.9013199053940646
1658790122297069,0.12579537651636574,-0.4418402380407418,0.9031509880216682
1658790122313064,0.12750438696879574,-0.4345159075303271,0.8970473792629896
1658790122329059,0.12994583047226715,-0.424872205691615,0.8871595330739304
1658790122345054,0.133974212252995,-0.4336614023041121,0.8863050278477154
1658790122361049,0.1310444800488293,-0.45343709468223103,0.912306401159686
1658790122377044,0.12469672693980272,-0.45831998168917387,0.931349660486763
1658790122393039,0.123476005188067,-0.4528267338063632,0.9141374837872895
1658790122409034,0.12249942778667844,-0.45502403295948746,0.8999771114671553
1658790122425029,0.12750438696879574,-0.47101548790722525,0.9252460517280845
1658790122440979,0.12909132524605216,-0.465400167849241,0.9203631647211417
1658790122456974,0.1281147478446636,-0.458564126039521,0.9242694743266959
1658790122472969,0.13043411917296144,-0.4489204242008089,0.916578927290761
1658790122488964,0.1289692530708786,-0.47992675669489593,0.937331197070268
1658790122504959,0.1267719539177543,-0.49665064469367515,0.9240253299763488
1658790122520954,0.11773861295490917,-0.4784618905928131,0.9110856794079503
1658790122536949,0.1129777981231399,-0.4750438696879531,0.9263447013046466
1658790122552944,0.11322194247348705,-0.466254673075456,0.9237811856260016
1658790122568939,0.124330510414282,-0.4574654764629589,0.9247577630273902
1658790122584934,0.12079041733424845,-0.46894026092927454,0.9057145037003131
1658790122600929,0.11822690165560346,-0.47394522011139095,0.902906843671321
1658790122616924,0.11944762340733917,-0.4822461280231938,0.9104753185320824
1658790122632919,0.12262149996185201,-0.4728465705348288,0.9202410925459681
1658790122648914,0.12774853131914288,-0.4737010757610438,0.9259784847791259
1658790122664909,0.12323186083771986,-0.47052719920653097,0.9107194628824296
1658790122680904,0.11956969558251274,-0.47431143663691167,0.9014419775692382
1658790122696899,0.11627374685282632,-0.47272449835965524,0.8987563897154196
1658790122712894,0.12372014953841415,-0.46210421911955457,0.9153582055390252
1658790122728889,0.12384222171358772,-0.4573434042877853,0.9135271229114217
1658790122744884,0.12628366521706003,-0.45722133211261173,0.9179217212176702
1658790122760772,0.12787060349431645,-0.46771953917753883,0.9175555046921495
1658790122776767,0.1251850156404979,-0.4652780956740674,0.912306401159686
1658790122792761,0.12249942778667844,-0.4652780956740674,0.9138933394369424
1658790122808756,0.12201113908598415,-0.4589303425650417,0.9154802777141988
1658790122824751,0.12176699473563701,-0.4561226825360496,0.9274433508812088
1658790122840745,0.12335393301289344,-0.4527046616311896,0.919996948195621
1658790122856740,0.12323186083771986,-0.4590524147402153,0.9158464942397195
1658790122872734,0.12249942778667844,-0.46686503395132384,0.8997329671168082
1658790122888729,0.11871519035629774,-0.46723125047684455,0.9068131532768753
1658790122904723,0.12188906691081058,-0.455146105134661,0.9245136186770431
1658790122920718,0.12860303654535787,-0.4425726710917832,0.939894712748913
1658790122936712,0.1255512321660186,-0.44794384679942034,0.9209735255970095
1658790122952707,0.11956969558251274,-0.45331502250705746,0.8933852140077825
1658790122968701,0.11798275730525631,-0.44953078507667676,0.8889906157015339
1658790122984696,0.11346608682383419,-0.4547798886091403,0.9010757610437174
1658790123000691,0.12335393301289344,-0.4514839398794539,0.9159685664148931
1658790123016685,0.12005798428320702,-0.4557564660105289,0.9169451438162817
1658790123032680,0.12115663385976916,-0.4586861982146946,0.9110856794079503
1658790123048674,0.11981383993285988,-0.46723125047684455,0.9057145037003131
1658790123064669,0.11956969558251274,-0.4623483634699017,0.8905775539787903
1658790123080597,0.1272602426184486,-0.4480659189745939,0.9030289158464946
1658790123096591,0.1167620355535206,-0.45917448691538887,0.913160906385901
1658790123112585,0.12176699473563701,-0.461127641718166,0.9219501029983981
1658790123128579,0.12494087129014986,-0.460273136491951,0.940749217975128
1658790123144573,0.1231097886625463,-0.4552681773098346,0.945021744106203
1658790123160567,0.11627374685282632,-0.4557564660105289,0.9141374837872895
1658790123176561,0.11041428244449492,-0.461127641718166,0.9251239795529109
1658790123192555,0.10724040588998207,-0.47724116884107737,0.9447775997558558
1658790123208549,0.11981383993285988,-0.4511177233539332,0.9365987640192266
1658790123224543,0.12664988174258074,-0.4456244754711225,0.9435568780041201
1658790123240537,0.12457465476462914,-0.4464789806973375,0.918287937743191
1658790123256531,0.12030212863355416,-0.45917448691538887,0.9079118028534374
1658790123272525,0.12091248950942202,-0.47186999313344025,0.9175555046921495
1658790123288519,0.12298771648737272,-0.467963683527886,0.9257343404287788
1658790123304514,0.11944762340733917,-0.46015106431677744,0.9261005569542995
1658790123320508,0.11432059205004919,-0.460273136491951,0.914869916838331
1658790123336502,0.11029221026932134,-0.46771953917753883,0.8998550392919817
1658790123352496,0.11700617990386775,-0.46295872434576957,0.9159685664148931
1658790123368490,0.11712825207904132,-0.4623483634699017,0.9132829785610745
1658790123384484,0.1231097886625463,-0.46002899214160387,0.9193865873197531
1658790123400421,0.12396429388876129,-0.46100556954299243,0.9090104524299996
1658790123416415,0.12262149996185201,-0.467109178301671,0.9158464942397195
1658790123432409,0.12323186083771986,-0.4691844052796217,0.9079118028534374
1658790123448403,0.12091248950942202,-0.4717479209582667,0.9119401846341653
1658790123464397,0.12127870603494273,-0.4657663843747617,0.9074235141527431
1658790123480391,0.12494087129014986,-0.45551232166018174,0.9108415350576031
1658790123496385,0.12188906691081058,-0.46186007476920743,0.9065690089265281
1658790123512379,0.11749446860456203,-0.46967269398031597,0.904615854123751
1658790123528373,0.12005798428320702,-0.4694285496299688,0.9013199053940646
1658790123544367,0.12127870603494273,-0.46430151827267885,0.9113298237582974
1658790123560361,0.12408636606393486,-0.4740672922865645,0.9334248874647137
1658790123576356,0.1272602426184486,-0.466254673075456,0.919996948195621
1658790123592350,0.12384222171358772,-0.45831998168917387,0.9019302662699324
1658790123608344,0.12079041733424845,-0.46051728084229815,0.9077897306782639
1658790123624338,0.11663996337834703,-0.4719920653086138,0.9168230716411081
1658790123640332,0.12115663385976916,-0.4641794460975053,0.9302510109102009
1658790123656326,0.12188906691081058,-0.458564126039521,0.9170672159914552
1658790123672320,0.1193255512321656,-0.4511177233539332,0.9064469367513546
1658790123688314,0.11566338597695847,-0.4704051270313574,0.915724422064546
1658790123704308,0.11737239642938846,-0.464545662623026,0.9109636072327767
1658790123720245,0.123476005188067,-0.4599069199664303,0.919996948195621
1658790123736239,0.1214007782101163,-0.455146105134661,0.9084000915541317
1658790123752232,0.12249942778667844,-0.4544136720836196,0.9167009994659345
1658790123768226,0.12274357213702558,-0.4519722285801482,0.9044937819485774
1658790123784219,0.12201113908598415,-0.4547798886091403,0.9096208133058674
1658790123800213,0.12127870603494273,-0.45807583733882673,0.9167009994659345
1658790123816207,0.11139085984588348,-0.4549019607843139,0.8998550392919817
1658790123832200,0.11541924162661132,-0.45343709468223103,0.9075455863279167
1658790123848194,0.12103456168459559,-0.45429159990844603,0.910597390707256
1658790123864187,0.1259174486915393,-0.4561226825360496,0.9275654230563823
1658790123880181,0.11627374685282632,-0.45050736247806533,0.8898451209277489
1658790123896175,0.1062638284885935,-0.45246051728084247,0.8881361104753189
1658790123912168,0.11163500419623062,-0.46515602349889384,0.9102311741817353
1658790123928162,0.1193255512321656,-0.4702830548561838,0.9196307316701002
1658790123944155,0.12579537651636574,-0.460273136491951,0.9284199282825973
1658790123960149,0.12262149996185201,-0.4632028686961167,0.9323262378881516
1658790123976143,0.11371023117418133,-0.47272449835965524,0.9137712672617688
1658790123992136,0.11871519035629774,-0.47821774624246594,0.919996948195621
1658790124008130,0.11236743724727205,-0.4821240558480202,0.9276874952315559
1658790124024123,0.11810482948042988,-0.4650339513237203,0.9395284962233923
1658790124040069,0.12176699473563701,-0.45807583733882673,0.9345235370412759
1658790124056063,0.11798275730525631,-0.46723125047684455,0.9302510109102009
1658790124072056,0.11261158159761919,-0.48444342717631805,0.9201190203707945
1658790124088050,0.1100480659189742,-0.4788281071183338,0.9163347829404138
1658790124104044,0.10785076676584993,-0.4829785610742352,0.9229266803997866
1658790124120037,0.11590753032730561,-0.46259250782024885,0.9231708247501338
1658790124136031,0.11725032425421489,-0.46173800259403386,0.9245136186770431
1658790124152024,0.1222552834363313,-0.46894026092927454,0.9196307316701002
1658790124168018,0.11139085984588348,-0.4776073853665981,0.9073014419775696
1658790124184012,0.11200122072175134,-0.4673533226520181,0.9073014419775696
1658790124200005,0.11285572594796633,-0.46478980697337313,0.9110856794079503
1658790124215999,0.11517509727626418,-0.4724803540093081,0.9177996490424967
1658790124231992,0.11859311818112417,-0.46845197222858026,0.9167009994659345
1658790124247986,0.11969176775768631,-0.45807583733882673,0.9137712672617688
1658790124263980,0.11578545815213204,-0.456000610360876,0.8885023270008396
1658790124279973,0.11309987029831348,-0.4699168383306631,0.8924086366063939
1658790124295967,0.1146868085755699,-0.4612497138933396,0.8980239566643782
1658790124311960,0.11566338597695847,-0.4447699702449075,0.9047379262989246
1658790124327954,0.11712825207904132,-0.4463569085221639,0.9190203707942324
1658790124343948,0.1222552834363313,-0.4623483634699017,0.9118181124589917
1658790124359924,0.1205462729839013,-0.4805371175707638,0.9176775768673231
1658790124375918,0.11944762340733917,-0.4700389105058367,0.9053482871747924
1658790124391911,0.11712825207904132,-0.4425726710917832,0.896070801861601
1658790124407905,0.11444266422522276,-0.45050736247806533,0.9187762264438852
1658790124423898,0.12079041733424845,-0.45209430075532175,0.9247577630273902
1658790124439892,0.1222552834363313,-0.4599069199664303,0.9279316395819031
1658790124455886,0.1146868085755699,-0.4741893644617381,0.9069352254520489
1658790124471879,0.11114671549553634,-0.45587853818570245,0.8959487296864275
1658790124487873,0.10699626153963493,-0.4754100862134738,0.9228046082246131
1658790124503866,0.11126878767070991,-0.4690623331044481,0.9209735255970095
1658790124519860,0.1231097886625463,-0.45294880598153675,0.9224383916990924
1658790124535853,0.11346608682383419,-0.4523384451056689,0.9013199053940646
1658790124551847,0.10955977721827992,-0.45416952773327246,0.8913099870298318
1658790124567841,0.11029221026932134,-0.46930647745479526,0.9103532463569088
1658790124583834,0.11309987029831348,-0.46894026092927454,0.9242694743266959
1658790124599828,0.11163500419623062,-0.4586861982146946,0.9171892881666288
1658790124615821,0.11065842679484206,-0.46637674525062955,0.9444113832303351
1658790124631815,0.11309987029831348,-0.4812695506218052,0.9496604867627987
1658790124647809,0.11065842679484206,-0.47516594186312666,0.9286640726329445
1658790124663802,0.1088273441672385,-0.47223620965896096,0.9308613717860688
1658790124679779,0.11200122072175134,-0.4599069199664303,0.9427023727779051
1658790124695772,0.1091935606927592,-0.46381322957198456,0.9677271686884872
1658790124711766,0.11541924162661132,-0.47565423056382095,0.9656519417105365
1658790124727759,0.11541924162661132,-0.48114747844663164,0.96406500343328
1658790124743753,0.1184710460059506,-0.4871290150301366,0.9727321278706036
1658790124759747,0.1193255512321656,-0.48944838635843446,0.9861600671396964
1658790124775740,0.11969176775768631,-0.5004348821240558,1.0146028839551384
1658790124791734,0.12787060349431645,-0.5047074082551308,1.0248569466697184
1658790124807727,0.12884718089570502,-0.48822766460669875,1.0171663996337834
1658790124823721,0.13836881055924355,-0.5025101091020066,1.0381628137636376
1658790124839715,0.14215304798962425,-0.537666895551995,1.0522011139085983
1658790124855708,0.1377584496833757,-0.5241168841077286,1.0334019989318683
1658790124871702,0.13739223315785498,-0.4973830777447166,1.034378576333257
1658790124887695,0.13482871747921,-0.5048294804303044,1.0391393911650262
1658790124903689,0.1386129549095907,-0.5360799572747386,1.0507362478065154
1658790124919683,0.15167467765316278,-0.5382772564278628,1.0614785992217897
1658790124935676,0.16595712214847058,-0.5154497596704051,1.0633096818493932
1658790124951670,0.1637598229953463,-0.5149614709697108,1.0509803921568626
1658790124967663,0.16571297779812344,-0.5213092240787365,1.032913710231174
1658790124983657,0.17230487525749627,-0.5237506675822079,1.0489051651789119
1658790124999572,0.18377965972381194,-0.5134966048676279,1.0993209735255967
1658790125015565,0.19806210421911974,-0.509224078736553,1.1391165026321817
1658790125031559,0.21075761043717112,-0.5426718547341114,1.1460746166170752
1658790125047552,0.21820401312275894,-0.5750209811551081,1.1875791561760893
1658790125063545,0.21344319829098968,-0.5501182574196992,1.1728084229800873
1658790125079538,0.205386434729534,-0.5191119249256122,1.1383840695811402
1658790125095531,0.1943999389639126,-0.5348592355230029,1.152422369726101
1658790125111524,0.20318913557640972,-0.5364461738002593,1.1801327534905015
1658790125127517,0.22235446707866036,-0.5031204699778744,1.1930724040589
1658790125143510,0.2208896009765775,-0.4888380254825666,1.144121461814298
1658790125159504,0.24127565423056385,-0.5150835431448844,1.0907759212634467
1658790125175497,0.2592202639810788,-0.5370565346761271,1.0985885404745552
1658790125191490,0.27240405889982444,-0.5170366979476615,1.0817425803006024
1658790125207483,0.3015793087663079,-0.493842984664683,1.054276340886549
1658790125223476,0.3208667124437321,-0.5000686655985351,1.0387731746395055
1658790125239469,0.3305104142824442,-0.4918898298619059,0.9970244907301442
1658790125255462,0.35089646753643056,-0.44782177462424677,0.951857785915923
1658790125271455,0.35126268406195127,-0.42548256656748284,0.9004654001678496
1658790125287449,0.36273746852826694,-0.41998931868467215,0.8722667277027538
1658790125303442,0.3816586556801713,-0.41705958648050645,0.8906996261539639
1658790125319397,0.4041199359121084,-0.3803158617532616,0.8543221179522389
1658790125335390,0.41095597772182835,-0.3436942092011903,0.7324940871290151
1658790125351383,0.4329289692530711,-0.33258564126039536,0.6492408636606397
1658790125367376,0.44831006332494105,-0.380193789578088,0.6997787441824981
1658790125383369,0.4758983749141681,-0.36786449988555736,0.7323720149538415
1658790125399362,0.5042191195544365,-0.33380636301213107,0.6941634241245138
1658790125415355,0.5392538338292514,-0.3421072709239339,0.5664759288929577
1658790125431348,0.5665980010681313,-0.36237125200274667,0.5017776760509651
1658790125447342,0.5817349507896541,-0.35785458152132454,0.498970016021973
1658790125463335,0.6172579537651632,-0.30951400015259,0.5163042648966201
1658790125479328,0.6393530174715805,-0.3302662699320975,0.4674753948271917
1658790125495321,0.6536354619668883,-0.29303425650415793,0.37396810864423546
1658790125511314,0.6658426794842454,-0.2318760967421989,0.3284351873044935
1658790125527307,0.6601052872510875,-0.23285267414358746,0.3368581673914699
1658790125543300,0.6883039597161824,-0.24335088120851456,0.3355153734645606
1658790125559293,0.7370107576104372,-0.23334096284428174,0.3222095063706414
1658790125575286,0.7613031204699778,-0.22113374532692465,0.25226214999618524
1658790125591280,0.8023193713282977,-0.17230487525749583,0.2276035706111239
1658790125607273,0.8031738765545127,-0.18426794842450578,0.24872205691615168
1658790125623266,0.8058594644083312,-0.19769588769359903,0.24542610818646526
1658790125639221,0.815869382772564,-0.19330128938735047,0.26654459449149304
1658790125655214,0.823559929808499,-0.18439002059967935,0.24847791256580454
1658790125671207,0.8347905699244675,-0.1421530479896238,0.18890669108110192
1658790125687200,0.840650034332799,-0.127870603494316,0.14959945067521208
1658790125703193,0.8194094758525976,-0.167421988250553,0.15277332722972492
1658790125719186,0.836377508201724,-0.16852063782711513,0.2048981460288397
1658790125735180,0.8377203021286332,-0.18646524757763006,0.23041123064011604
1658790125751173,0.8731212329289688,-0.12726024261844815,0.16607919432364415
1658790125767166,0.9120622568093388,-0.10357824063477539,0.1079728389410235
1658790125783159,0.8809338521400782,-0.21234454871442754,0.10675211718928779
1658790125799152,0.8480964370183868,-0.24518196383611812,0.14630350194552566
1658790125815145,0.8423590447852289,-0.20050354772259116,0.13495078965438356
1658790125831138,0.8788586251621275,-0.15741206988632017,0.15313954375524563
1658790125847131,0.8861829556725418,-0.17340352483405796,0.14874494544899708
1658790125863124,0.8932631418326089,-0.17853055619134794,0.06622415503166224
1658790125879118,0.9002212558175025,-0.1438620584420538,-0.005920500495918191
1658790125895111,0.900343327992676,-0.15204089417868305,0.07306019684138221
1658790125911104,0.877882047760739,-0.16595712214847014,0.051819638361180864
1658790125927097,0.8628671702143889,-0.15167467765316234,-5.493247882810692E-4
1658790125943090,0.8542000457770653,-0.15838864728770874,-0.08538948653391332
1658790125959045,0.8496833752956432,-0.17059586480506583,-0.08990615701533544
1658790125975038,0.8361333638513768,-0.16974135957885084,-0.06121919584954583
1658790125991030,0.8793469138628218,-0.1362935835812924,-0.0867322804608226
1658790126007023,0.9103532463569088,-0.11969176775768675,-0.20880445563439398
1658790126023016,0.9439230945296408,-0.11322194247348749,-0.315617608911269
1658790126039008,0.9547875181200887,-0.11981383993286032,-0.37592126344701304
1658790126055001,0.9538109407187001,-0.08392462043183047,-0.4092469672693979
1658790126070994,0.945021744106203,-0.05535973144121442,-0.4472114137483789
1658790126086986,0.9276874952315559,-0.01898222323949028,-0.5172808422980086
1658790126102979,0.8898451209277489,-0.0037232013427939137,-0.5868619821469445
1658790126118971,0.8510261692225525,-0.02777141985198739,-0.6247043564507515
1658790126134964,0.8441901274128325,-0.05487144274052014,-0.6245822842755779
1658790126150957,0.8477302204928661,-0.09710841535057613,-0.6398413061722743
1658790126166949,0.8607919432364382,-0.08575570305943403,-0.6551003280689707
1658790126182942,0.8850843060959797,-0.05658045319295013,-0.6422827496757457
1658790126198935,0.8976577401388575,-0.01886015106431671,-0.6450904097047379
1658790126214927,0.9152361333638517,0.014099336232547444,-0.6531471732661935
1658790126230920,0.9091325246051731,-0.0061646448462653325,-0.6642557412069885
1658790126246913,0.9158464942397195,0.02642862592507811,-0.6824444953078506
1658790126262905,0.9147478446631574,0.033875028610665936,-0.6759746700236513
1658790126278869,0.9109636072327767,0.026062409399557396,-0.6399633783474479
1658790126294862,0.8958266575112539,0.021667811093308842,-0.6133516441596094
1658790126310855,0.8783703364614333,0.01873807888914314,-0.5651331349660489
1658790126326847,0.8703135728999767,-3.0518043793392735E-4,-0.5391317616540778
1658790126342840,0.8661631189440753,-0.009216449225604606,-0.5383993286030364
1658790126358832,0.8628671702143889,-0.025085831998168828,-0.4910353246356909
1658790126374825,0.8590829327840082,-0.035217822537575216,-0.4540474555580989
1658790126390818,0.864820325017166,-0.029480430304417382,-0.4447699702449075
1658790126406810,0.857984283207446,-0.033875028610665936,-0.41571679255359717
1658790126422803,0.8294193942168304,-0.03595025558861664,-0.4080262455176622
1658790126438796,0.8091554131380176,-0.017639429312581,-0.39398794537270154
1658790126454788,0.7846189059281299,-0.028747997253375956,-0.34857709620813315
1658790126470781,0.7914549477378499,-0.044251163500419466,-0.2905928130006865
1658790126486774,0.7986572060730905,-0.07196154726482051,-0.22491798275730535
1658790126502766,0.793408102540627,-0.08441290913252475,-0.20636301213092256
1658790126518759,0.7877927824826427,-0.07513542381933336,-0.1795071335927365
1658790126534752,0.7820553902494849,-0.12933546959639886,-0.07684443427176335
1658790126550744,0.7829098954756999,-0.13495078965438312,-0.024597543297474544
1658790126566737,0.7904783703364613,-0.10455481803616395,0.036316472114137355
1658790126582729,0.7830319676508735,-0.15497062638284875,0.09881742580300568
1658790126598693,0.7758297093156328,-0.1610742351415273,0.1616845960173956
1658790126614686,0.7907225146868084,-0.12445258258945602,0.28241397726405726
1658790126630679,0.7691157396810864,-0.1383688105592431,0.352483405813687
1658790126646671,0.7550774395361257,-0.12457465476462959,0.350774395361257
1658790126662664,0.7377431906614786,-0.11139085984588393,0.3351491569390399
1658790126678657,0.7166247043564509,-0.08245975432974761,0.4015564202334634
1658790126694649,0.7058823529411766,-0.0896620126649883,0.4821240558480202
1658790126710642,0.6955062180514231,-0.13006790264744028,0.5573205157549399
1658790126726635,0.7224841687647823,-0.09210345616845972,0.5873502708476384
1658790126742627,0.7133287556267645,-0.12335393301289388,0.5960173952849619
1658790126758620,0.6785381857022967,-0.17389181353475225,0.5762417029068434
1658790126774613,0.6631570916304268,-0.1480125123979552,0.5486533913176164
1658790126790605,0.6442359044785233,-0.15667963683527875,0.6710917830167089
1658790126806598,0.6251926451514462,-0.19830624856946688,0.8083009079118026
1658790126822590,0.6195773250934611,-0.2066071564812697,0.8018310826276034
1658790126838583,0.617624170290684,-0.19720759899290474,0.6874494544899674
1658790126854576,0.6151827267872125,-0.19464408331425975,0.7172350652323187
1658790126870568,0.6178683146410311,-0.18536659800106792,0.8253910124361026
1658790126886561,0.6365453574425883,-0.15497062638284875,0.8937514305333032
1658790126902554,0.6326390478370341,-0.20587472343022828,0.8819104295414668
1658790126918518,0.6088349736781868,-0.2728923476005187,0.7927977416647591
1658790126934510,0.5965056839856562,-0.30719462882429216,0.8491950865949489
1658790126950503,0.5576867322804606,-0.32587167162584896,0.8856946669718475
1658790126966496,0.5535362783245592,-0.28619821469443796,0.8688487067978938
1658790126982488,0.5449912260624092,-0.2909590295262072,0.8095216296635384
1658790126998481,0.5349813076981764,-0.3031662470435643,0.7573968108644236
1658790127014474,0.5220416571297779,-0.3154955367360954,0.8073243305104141
1658790127030466,0.5011673151750973,-0.3522392614633403,0.8803234912642104
1658790127046459,0.5098344396124208,-0.34015411612115676,0.882154573891814
1658790127062451,0.5243610284580758,-0.3648126955062181,0.863111314564736
1658790127078444,0.52484931715877,-0.3589532310978867,0.8764171816586561
1658790127094437,0.48944838635843446,-0.35651178759441526,0.8751964599069204
1658790127110429,0.45331502250705746,-0.3593194476234074,0.8903334096284432
1658790127126422,0.4494087129015032,-0.3382009613183796,0.8660410467689017
1658790127142415,0.44745555809872606,-0.33392843518730464,0.8773937590600447
1658790127158407,0.4212100404364083,-0.3756771190966659,0.8955825131609068
1658790127174400,0.42389562829022687,-0.4256046387426564,0.9569848172732129
1658790127190393,0.42694743266956614,-0.44708934157320535,1.0089875638971542
1658790127206385,0.43060959792477327,-0.4616159304188603,0.9776150148775464
1658790127222378,0.43988708323796466,-0.4518501564049746,1.0148470283054856
1658790127238342,0.428412298771649,-0.46100556954299243,1.073075455863279
1658790127254335,0.4064393072404062,-0.4976272220950637,1.123125047684443
1658790127270327,0.40045777065690125,-0.5010452429999237,1.1988097962920579
1658790127286320,0.39826047150377697,-0.4892042420080873,1.2271305409323263
1658790127302312,0.36224917982757265,-0.5469443808651864,1.259967956054017
1658790127318305,0.37225909819180547,-0.5922331578545816,1.2897535667963682
1658790127334298,0.37726405737392277,-0.6265354390783551,1.3582360570687415
1658790127350290,0.39154650186923057,-0.6131074998092623,1.361532005798428
1658790127366283,0.3952086671244377,-0.6281223773556115,1.3904631113145651
1658790127382276,0.387151903562982,-0.6646219577325092,1.3730067902647436
1658790127398268,0.39716182192721483,-0.6692607003891049,1.359822995345998
1658790127414261,0.3921568627450984,-0.65644312199588,1.3559166857404437
1658790127430254,0.3833676661326013,-0.63422598611429,1.3318684672312502
1658790127446246,0.38117036697947704,-0.6465552758068207,1.2891432059205004
1658790127462239,0.3755550469214928,-0.65473411154345,1.2729076066224154
1658790127478232,0.37396810864423546,-0.5977264057373923,1.2433661402304113
1658790127494224,0.3784847791256585,-0.5808804455634395,1.2270084687571527
1658790127510217,0.3838559548332956,-0.6002899214160373,1.2088197146562907
1658790127526209,0.393133440146487,-0.5946746013580531,1.1798886091401544
1658790127542202,0.394842450598917,-0.5604943923094527,1.1807431143663694
1658790127558166,0.38910505836575915,-0.5136186770428015,1.139848935683223
1658790127574158,0.3902037079423213,-0.504097047379263,1.0874799725337603
1658790127590150,0.4081483176928362,-0.46564431219958813,1.044022278171969
1658790127606143,0.42389562829022687,-0.4273136491950864,1.0208285648889905
1658790127622135,0.4177920195315483,-0.3971618219272144,1.0045929655909056
1658790127638127,0.42096589608606116,-0.38849469748989085,0.9722438391699093
1658790127654119,0.44110780498970037,-0.3854428931105516,0.9060807202258339
1658790127670111,0.45880827038986816,-0.3975280384527351,0.8971694514381632
1658790127686103,0.4678416113527124,-0.3399099717708096,0.8177004654001676
1658790127702096,0.48859388113221947,-0.28448920424200796,0.7743648432135499
1658790127718088,0.49994659342336156,-0.2962081330586708,0.7954833295185777
1658790127734080,0.5191119249256122,-0.2953536278324558,0.7859616998550392
1658790127750072,0.5305867093919279,-0.2805828946364537,0.710032806897078
1658790127766064,0.5288776989394979,-0.2284580758373389,0.5818570229648277
1658790127782056,0.5348592355230029,-0.24249637598229956,0.535957885099565
1658790127798049,0.5585412375066756,-0.24554818036163883,0.53168535896849
1658790127814041,0.5764858472571905,-0.20685130083161685,0.4888380254825666
1658790127830033,0.6092011902037076,-0.15667963683527875,0.43622491798275753
1658790127846025,0.6226291294728004,-0.1660791943236437,0.3633478294041348
1658790127862017,0.6432593270771347,-0.1404440375371938,0.2764324406805523
1658790127878021,0.6786602578774703,-0.1354390783550774,0.2637369344625009
1658790127894014,0.6922102693217367,-0.08429083695735118,0.18744182497901907
1658790127910006,0.7326161593041887,-0.04827954528114731,0.15472648203250206
1658790127925999,0.7406729228656443,-0.07879758907454049,0.11285572594796633
1658790127941991,0.7414053559166858,-0.07940794995040834,0.05511558709086728
1658790127957984,0.7516594186312657,-0.06414892805371197,0.08978408484016143
1658790127973977,0.7508049134050507,-0.058533607995727266,0.06524757763027367
1658790127989969,0.7724116884107728,-0.06305027847714983,-0.004821850919356052
1658790128005962,0.8196536202029447,-0.06768902113374553,0.007263294422827471
1658790128021955,0.8207522697795069,-0.07476920729381265,-0.005920500495918191
1658790128037947,0.8297856107423511,-0.024719615472648115,-0.054627298390172996
1658790128053940,0.8454108491645682,-0.019226367589837423,-0.1581445029373616
1658790128069933,0.8473640039673453,-0.009094377050431035,-0.21686121919584966
1658790128085925,0.8609140154116117,-0.04583810177767589,-0.15374990463111304
1658790128101918,0.8568856336308839,-0.09515526054779899,-0.1493553063248645
1658790128117910,0.9158464942397195,-0.06659037155718339,-0.19586480506599546
1658790128133903,0.9439230945296408,-0.07098496986343195,-0.2348058289463646
1658790128149896,0.950148775463493,-0.037537193865873064,-0.3576104371709774
1658790128165888,0.9418478675516901,-0.0016479743648432077,-0.4190127412832836
1658790128181881,0.9280537117570766,0.022400244144350268,-0.43219653620202925
1658790128197815,0.9081559472037846,0.0289921416037231,-0.43012130922407854
1658790128213807,0.8946059357595182,0.023132677195391693,-0.4096131837949186
1658790128229799,0.907179369802396,0.05560387579156156,-0.4314641031509878
1658790128245791,0.905470359349966,0.0575570305943387,-0.4896925307087816
1658790128261783,0.9053482871747924,0.013366903181506018,-0.5001907377737087
1658790128277775,0.9230487525749602,0.03326466773479808,-0.5132524605172808
1658790128293768,0.9375753414206152,0.07452506294346506,-0.48029297322041664
1658790128309760,0.9300068665598538,0.09515526054779855,-0.4884718089570459
1658790128325752,0.908888380254826,0.08380254825665645,-0.5071488517586022
1658790128341744,0.9038834210727096,0.07794308384832505,-0.5423056382085907
1658790128357736,0.9069352254520489,0.07049668116273722,-0.498115510795758
1658790128373728,0.9096208133058674,0.058289463645380124,-0.4674753948271917
1658790128389721,0.9141374837872895,0.055970092317082276,-0.44000915541313823
1658790128405713,0.9113298237582974,0.06378271152819082,-0.44074158846417966
1658790128421705,0.9104753185320824,0.03045700770580595,-0.4147402151522086
1658790128437697,0.9292744335088123,0.012512397955291021,-0.41828030823224216
1658790128453689,0.9369649805447473,0.0018921187151903496,-0.4186465247577629
1658790128469681,0.9241474021515224,-0.037781338216220206,-0.3681086442359045
1658790128485674,0.9069352254520489,-0.03717097734035235,-0.3710383764400702
1658790128501666,0.8788586251621275,-0.05682459754329727,-0.32465094987411325
1658790128517639,0.8701915007248031,-0.049378194857709445,-0.26642252231631947
1658790128533631,0.8803234912642104,-0.053406576638437286,-0.21600671396963467
1658790128549623,0.8810559243152518,-0.05926604104676869,-0.22784771496147105
1658790128565615,0.8694590676737617,-0.06036469062333083,-0.23285267414358746
1658790128581607,0.8463874265659568,-0.07318226901655622,-0.17352559700923154
1658790128597600,0.8449225604638739,-0.06524757763027411,-0.11114671549553679
1658790128613592,0.8411383230334932,-0.08014038300144977,-0.06817730983443981
1658790128629584,0.8350347142748147,-0.11871519035629818,-0.012024109254596738
1658790128645576,0.8194094758525976,-0.12799267566948958,0.0071412222476539
1658790128661568,0.8219729915312426,-0.12347600518806745,0.08746471351186358
1658790128677560,0.8147707331960019,-0.13641565575646597,0.1456931410696578
1658790128693553,0.8136720836194398,-0.13031204699778742,0.204531929503319
1658790128709545,0.7956054016937513,-0.14654764629587236,0.25311665522240023
1658790128725537,0.7847409781033035,-0.13653772793163954,0.281071183337148
1658790128741529,0.7898680094605934,-0.09466697184710471,0.33124284733348563
1658790128757521,0.7772945754177156,-0.13727016098268097,0.4177920195315483
1658790128773513,0.7614251926451514,-0.18182650492103436,0.4347600518806747
1658790128789506,0.751293202105745,-0.17608911268787653,0.4455024032959489
1658790128805498,0.7239490348668651,-0.1552147707331959,0.4862745098039216
1658790128821490,0.6992904554818038,-0.1906157015335319,0.5894254978255891
1658790128837463,0.7036850537880524,-0.22247653925383393,0.6509498741130697
1658790128853455,0.7188220035095751,-0.22479591058213177,0.6182345311665518
1658790128869447,0.7249256122682537,-0.18597695887693577,0.5578088044556342
1658790128885439,0.6940413519493402,-0.15033188372625306,0.5976043335622183
1658790128901432,0.6706034943160146,-0.18731975280384505,0.682444495307851
1658790128917424,0.6735332265201803,-0.21405355916685753,0.7613031204699778
1658790128933416,0.6894026092927446,-0.21808194094758537,0.7229724574654766
1658790128949408,0.6735332265201803,-0.1952544441901276,0.6226291294728004
1658790128965400,0.6348363469901583,-0.20892652780956755,0.642038605325399
1658790128981392,0.6111543450064847,-0.26861982146944374,0.7580071717402914
1658790128997385,0.6109102006561375,-0.2893720912489508,0.8250247959105819
1658790129013377,0.6070038910505833,-0.26861982146944374,0.8018310826276034
1658790129029369,0.6062714579995419,-0.28290226596475154,0.7310292210269322
1658790129045361,0.5833218890669105,-0.30804913405050716,0.7189440756847487
1658790129061353,0.5639124132143127,-0.2960860608834972,0.800244144350347
1658790129077345,0.5590295262073699,-0.29803921568627434,0.8771496147096975
1658790129093338,0.5562218661783778,-0.28497749294270225,0.8675059128709846
1658790129109330,0.5415732051575493,-0.2923018234531165,0.8096437018387119
1658790129125322,0.5263141832608529,-0.34686808575570316,0.8705577172503238
1658790129141314,0.4997024490730144,-0.3798275730525673,0.9126726176852067
1658790129157287,0.5192339971007858,-0.380193789578088,0.9397726405737394
1658790129173279,0.5474326695658807,-0.3631036850537881,0.9291523613336388
1658790129189272,0.5581750209811549,-0.3117112993057143,0.8925307087815675
1658790129205264,0.520576791027695,-0.3601739528496224,0.9605249103532465
1658790129221256,0.4767528801403831,-0.4110780498970015,0.9352559700923173
1658790129237248,0.45709925993743816,-0.416327153429465,0.9396505683985659
1658790129253240,0.4404974441138325,-0.41449607080186146,0.9478294041351951
1658790129269232,0.430975814450294,-0.44293888761730393,1.0015411612115663
1658790129285225,0.4271915770199133,-0.45331502250705746,1.0021515220874342
1658790129301217,0.4447699702449075,-0.44293888761730393,1.010452429999237
1658790129317209,0.44879835202563534,-0.4335393301289385,1.0197299153124284
1658790129333201,0.4287785152971697,-0.4185244525825893,0.9994659342336156
1658790129349193,0.3976501106279091,-0.4276798657206071,0.9900663767452507
1658790129365185,0.3784847791256585,-0.459418631265736,1.0220492866407263
1658790129381178,0.3787289234760056,-0.4758983749141681,1.0324254215304798
1658790129397170,0.39923704890516554,-0.4686961165789274,1.0706340123598075
1658790129413162,0.4119325551232169,-0.4876173037308309,1.0927290760662238
1658790129429154,0.42389562829022687,-0.5711146715495539,1.1278858625162131
1658790129445146,0.4146181429770355,-0.6654764629587242,1.2378728923476006
1658790129461138,0.40204470893415767,-0.6469214923323414,1.2965896086060882
1658790129477111,0.42865644312199613,-0.6461890592813,1.3200274662394138
1658790129493104,0.45636682688639674,-0.6604715037766078,1.3004959182116425
1658790129509096,0.47431143663691167,-0.5886930647745481,1.2304264896620127
1658790129525088,0.4892042420080873,-0.5418173495078964,1.2344548714427406
1658790129541080,0.4834668497749295,-0.5340047302967879,1.2271305409323263
1658790129557072,0.45807583733882673,-0.5746547646295874,1.2126039520866714
1658790129573064,0.43244068055237683,-0.6395971618219272,1.205889982452125
1658790129589057,0.42853437094682256,-0.6477759975585564,1.1901426718547343
1658790129605049,0.4234073395895326,-0.6403295948729686,1.1736629282063022
1658790129621041,0.4136415655756469,-0.6094453345540551,1.1270313572899981
1658790129637033,0.4265812161440454,-0.5728236820019839,1.1070115205615316
1658790129653025,0.4514839398794539,-0.5200885023270008,1.0749065384908825
1658790129669017,0.46478980697337313,-0.46637674525062955,1.0460975051499197
1658790129685010,0.466254673075456,-0.459418631265736,1.0150911726558327
1658790129701002,0.47345693141069667,-0.4909132524605173,0.9988555733577478
1658790129716994,0.48871595330739304,-0.4674753948271917,0.9762722209506371
1658790129732986,0.4967727168688487,-0.4439154650186925,1.0236362249179827
1658790129748978,0.4826123445487145,-0.4050965133134965,0.9761501487754636
1658790129764970,0.49335469596398873,-0.36408026245517666,0.8867933165484096
1658790129780963,0.5037308308537423,-0.3736018921187152,0.8374761577782861
1658790129796936,0.509224078736553,-0.34857709620813315,0.8006103608758677
1658790129812928,0.5011673151750973,-0.34137483787289247,0.7940184634164948
1658790129828920,0.5084916456855115,-0.30597390707255645,0.7636224917982757
1658790129844912,0.5235065232318608,-0.30975814450293715,0.7184557869840544
1658790129860904,0.5514610513466085,-0.2603189135576409,0.6038300144960704
1658790129876896,0.6083466849774926,-0.23920042725261315,0.5969939726863505
1658790129892889,0.6199435416189818,-0.2537270160982681,0.5764858472571905
1658790129908881,0.6561989776455333,-0.19501029983978047,0.5199664301518272
1658790129924873,0.6641336690318154,-0.17669947356374438,0.4287785152971697
1658790129940865,0.677317463950561,-0.18243686579690221,0.3662775616083005
1658790129956857,0.6937972075989931,-0.1727931639581901,0.3361257343404285
1658790129972849,0.7118638895246816,-0.17694361791409152,0.3955748836499584
1658790129988842,0.7238269626916916,-0.18304722667277007,0.37616540779736063
1658790130004834,0.7405508506904708,-0.1862211032272829,0.2683756771190966
1658790130020826,0.7405508506904708,-0.1765774013885708,0.13543907835507785
1658790130036818,0.7534905012588693,-0.1421530479896238,0.13629358358129284
1658790130052810,0.7693598840314335,-0.1589990081635766,0.23334096284428174
1658790130068802,0.802807660028992,-0.16046387426565945,0.28619821469443796
1658790130084795,0.8629892423895624,-0.12079041733424889,0.1860990310521098
1658790130100787,0.8767833981841768,-0.11090257114518964,0.06182955672541368
1658790130116790,0.8638437476157774,-0.13409628442816812,0.08636606393530144
1658790130132783,0.8289311055161361,-0.13311970702677955,0.10687418936446136
1658790130148775,0.8299076829175247,-0.10247959105821325,0.12298771648737272
1658790130164767,0.8332036316472111,-0.11187914854657821,0.09918364232852639
1658790130180759,0.8731212329289688,-0.07806515602349906,0.06646829938200938
1658790130196751,0.8981460288395517,-0.041565575646600905,-0.055970092317082276
1658790130212743,0.9079118028534374,-0.046814679179064456,-0.08526741435873975
1658790130228736,0.8878919661249718,-0.09503318837262542,-0.044129091325245895
1658790130244728,0.868238345922026,-0.08953994048981473,-0.02252231631952384
1658790130260720,0.8633554589150831,-0.07989623865110262,-0.007385366598001042
1658790130276712,0.8621347371633474,-0.09332417792019543,-0.010437170977340315
1658790130292704,0.8754406042572676,-0.12188906691081103,-0.03338673990997165
1658790130308696,0.9091325246051731,-0.11834897383077747,-0.08599984740978117
1658790130324689,0.9409933623254751,-0.06439307240405912,-0.11261158159761964
1658790130340681,0.9676050965133136,-0.03582818341344307,-0.09283588921950114
1658790130356673,0.9622339208056765,-0.03143358510719452,-0.08441290913252475
1658790130372665,0.9434348058289466,-0.0357061112382695,-0.11004806591897465
1658790130388657,0.9391622796978716,-0.06170748455024011,-0.14325169756618594
1658790130404649,0.9243915465018695,-0.06903181506065481,-0.17730983443961224
1658790130420642,0.9202410925459681,-0.09796292057679112,-0.13519493400473026
1658790130436615,0.9185320820935381,-0.10992599374380108,-0.12054627298390175
1658790130452606,0.9340352483405816,-0.07977416647592905,-0.18426794842450578
1658790130468598,0.9514915693904022,-0.08490119783321903,-0.21649500267032895
1658790130484590,0.9387960631723509,-0.0774547951476312,-0.2833905546654458
1658790130500581,0.9220721751735717,-0.058289463645380124,-0.28705271992065295
1658790130516573,0.9162127107652402,-0.050598916609445155,-0.28668650339513224
1658790130532565,0.9158464942397195,-0.04132143129625376,-0.3311207751583125
1658790130548556,0.9302510109102009,-0.01886015106431671,-0.4101014724956129
1658790130564548,0.9486839093614101,-0.027649347676813818,-0.4324406805523764
1658790130580540,0.970046540016785,-0.008850232700083893,-0.4717479209582667
1658790130596531,0.9933623254749371,0.0061646448462653325,-0.4837109941252766
1658790130612523,0.9801785305561914,-0.009216449225604606,-0.5029983978027008
1658790130628515,0.9455100328068973,-0.008972304875257464,-0.5022659647516594
1658790130644507,0.9224383916990924,-0.024841687647821686,-0.48529793240253305
1658790130660498,0.9210955977721831,-0.04229800869764233,-0.4561226825360496
1658790130676490,0.9214618142977038,-0.04193179217212162,-0.4683299000534067
1658790130692482,0.9180437933928438,-0.034973678187228074,-0.45160601205462747
1658790130708473,0.9223163195239188,-0.036438544289310926,-0.45050736247806533
1658790130724465,0.9353780422674909,-0.04132143129625376,-0.4484321355001146
1658790130740457,0.9422140840772109,-0.04449530785076661,-0.4345159075303271
1658790130756439,0.9306172274357216,-0.05242999923704872,-0.40119020370794223
1658790130772431,0.9285420004577709,-0.09332417792019543,-0.36993972686350807
1658790130788422,0.9253681239032581,-0.1039444571602961,-0.3798275730525673
1658790130804414,0.9141374837872895,-0.10894941634241251,-0.37079423208972306
1658790130820406,0.9154802777141988,-0.10553139543755252,-0.31586175326161614
1658790130836397,0.9149919890135045,-0.11895933470664533,-0.2821698329137101
1658790130852389,0.9031509880216682,-0.10846112764171822,-0.3131761654077976
1658790130868381,0.897779812314031,-0.11798275730525676,-0.3151293202105747
1658790130884372,0.871656366826886,-0.12982375829709314,-0.2886396581979094
1658790130900364,0.860547798886091,-0.14496070801861594,-0.2343175402456703
1658790130916356,0.8654306858930338,-0.14373998626688023,-0.19769588769359903
1658790130932347,0.8598153658350496,-0.130434119172961,-0.21368734264133682
1658790130948339,0.853711757076371,-0.08624399176012831,-0.22833600366216533
1658790130964331,0.8344243533989468,-0.1022354467078661,-0.1812161440451665
1658790130980322,0.8223392080567633,-0.11322194247348749,-0.10528725108720538
1658790130996314,0.8178225375753412,-0.12054627298390175,-0.05535973144121442
1658790131012306,0.8189211871519033,-0.09906157015335326,-0.035217822537575216
1658790131028298,0.8004882887006941,-0.10321202410925467,0.015442130159456724
1658790131044289,0.7681391622796978,-0.1115129320210575,0.08453498130769788
1658790131060281,0.7457999542229343,-0.12774853131914243,0.1809719996948198
1658790131076263,0.7277332722972458,-0.11566338597695891,0.2116121156633861
1658790131092255,0.7290760662241551,-0.10089265278095683,0.2857099259937437
1658790131108246,0.7261463340199894,-0.11505302510109106,0.3881284809643706
1658790131124238,0.7318837262531472,-0.1190814068818189,0.43195239185168255
1658790131140230,0.727977416647593,-0.14288548104066523,0.4401312275883118
1658790131156221,0.717723353933013,-0.13202105745021742,0.45416952773327246
1658790131172213,0.6934309910734724,-0.16046387426565945,0.5573205157549399
1658790131188205,0.674753948271916,-0.18133821622034008,0.6489967193102926
1658790131204197,0.6602273594262611,-0.1832913710231172,0.6391088731212333
1658790131220188,0.6598611429007404,-0.17352559700923154,0.6381322957198448
1658790131236180,0.6448462653543912,-0.19708552681773117,0.7312733653772794
1658790131252172,0.6214084077210646,-0.24969863431754025,0.7775387197680628
1658790131268163,0.6259250782024877,-0.2385900663767453,0.7862058442053863
1658790131284155,0.6493629358358133,-0.2276035706111239,0.7776607919432363
1658790131300147,0.6328831921873812,-0.19476615548943332,0.7562981612878614
1658790131316138,0.6071259632257568,-0.24383916990920884,0.8178225375753412
1658790131332130,0.5805142290379184,-0.29584191653315006,0.8452887769893946
1658790131348122,0.5907682917524983,-0.2752117189288166,0.8249027237354083
1658790131364113,0.5819790951400012,-0.31744869153887256,0.8251468680857554
1658790131380105,0.5658655680170899,-0.32587167162584896,0.8122072175173569
1658790131396087,0.5474326695658807,-0.2730144197756923,0.7576409552147707
1658790131412079,0.5315632867933164,-0.312077515831235,0.8574959945067517
1658790131428071,0.5169146257724879,-0.3563897154192417,0.8698252841992824
1658790131444062,0.5153276874952315,-0.3773861295490959,0.8415045395590139
1658790131460054,0.4879835202563516,-0.36920729381246664,0.7829098954756999
1658790131476046,0.48029297322041664,-0.35870908674753954,0.8606698710612646
1658790131492037,0.4724803540093081,-0.38983749141680013,0.9115739681086446
1658790131508029,0.4757763027389945,-0.34393835355153746,0.8609140154116117
1658790131524021,0.4874952315556573,-0.32587167162584896,0.8621347371633474
1658790131540012,0.45673304341191745,-0.354314488441291,0.8477302204928661
1658790131556004,0.41144426642252263,-0.34979781795986886,0.8522468909742882
1658790131571996,0.37824063477531134,-0.3832455939574273,0.8816662851911197
1658790131587988,0.3640802624551762,-0.4088807507438772,0.8858167391470211
1658790131603979,0.3822690165560392,-0.38971541924162656,0.9219501029983981
1658790131619971,0.3860532539864199,-0.4193789578088043,0.9671168078126193
1658790131635963,0.3847104600595106,-0.43048752574959925,0.9735866330968186
1658790131651954,0.36774242771038335,-0.44782177462424677,0.9909208819714657
1658790131667946,0.3633478294041348,-0.42047760738536644,1.0187533379110398
1658790131683938,0.3449149309529256,-0.4046082246128022,1.0657511253528646
1658790131699929,0.3368581673914699,-0.3849546044098573,1.0865033951323717
1658790131715911,0.3414969100480656,-0.42548256656748284,1.110307469291218
1658790131731903,0.35016403448538913,-0.4522163729304953,1.1485160601205466
1658790131747895,0.3451590753032727,-0.4716258487830931,1.1780575265125508
1658790131763887,0.3222095063706414,-0.5211871519035629,1.2057679102769514
1658790131779878,0.3067063401235979,-0.579903868162051,1.2375066758220798
1658790131795870,0.2944991226062408,-0.6482642862592507,1.3244220645456624
1658790131811862,0.3065842679484243,-0.6322728313115129,1.3441977569237809
1658790131827853,0.33405050736247777,-0.6503395132372014,1.3584802014190887
1658790131843845,0.35687800411993553,-0.6605935759517814,1.3255207141222245
1658790131859837,0.34369420920118987,-0.6529030289158464,1.3029373617151139
1658790131875828,0.32062256809338496,-0.6278782330052644,1.3391927977416644
1658790131891820,0.306950484473945,-0.6369115739681086,1.344441901274128
1658790131907812,0.29217975127794293,-0.6748760204470892,1.319417105363546
1658790131923803,0.28155947203784226,-0.7464103150988022,1.3059891660944531
1658790131939795,0.3012130922407872,-0.7051499198901352,1.3106279087510488
1658790131955787,0.31012436102845786,-0.6830548561837184,1.2898756389715418
1658790131971778,0.3098802166781107,-0.6752422369726099,1.249958037689784
1658790131987770,0.3242847333485921,-0.6417944609750514,1.2022278171969178
1658790132003762,0.32526131074998066,-0.6078583962767987,1.1641412985427637
1658790132019754,0.31805905241474,-0.5554894331273363,1.0762493324177917
1658790132035736,0.3208667124437321,-0.5503624017700464,1.075883115892271
1658790132051727,0.3523613336385134,-0.5327840085450521,1.0917524986648353
1658790132067719,0.39069199664301557,-0.530830853742275,1.090409704737926
1658790132083711,0.3955748836499584,-0.5076371404592965,1.0124055848020141
1658790132099702,0.39252307927061914,-0.49335469596398873,0.9245136186770431
1658790132115694,0.40961318379491907,-0.48151369497215235,0.9538109407187001
1658790132131686,0.43695735103379896,-0.4414740215152211,0.9641870756084536
1658790132147678,0.44831006332494105,-0.3883726253147173,0.8963149462119482
1658790132163669,0.4717479209582667,-0.3400320439459832,0.7613031204699778
1658790132179661,0.48700694285496304,-0.35028610666056315,0.7852292668039977
1658790132195653,0.5038529030289158,-0.31219958800640857,0.7853513389791713
1658790132211644,0.5145952544441901,-0.2804608224612801,0.7403067063401236
1658790132227636,0.5159380483710994,-0.26312657358663305,0.6811017013809417
1658790132243628,0.5147173266193636,-0.2632486457618066,0.6465552758068212
1658790132259619,0.5547570000762949,-0.24518196383611812,0.6703593499656675
1658790132275611,0.560128175783932,-0.20526436255436042,0.5665980010681313
1658790132291603,0.5849088273441669,-0.15399404898146019,0.4762645914396888
1658790132307594,0.5974822613870447,-0.15362783245593947,0.4484321355001146
1658790132323586,0.6234836346990154,-0.15118638895246805,0.4700389105058367
1658790132339578,0.6333714808880755,-0.14618142977035165,0.427557793545434
1658790132355560,0.6669413290608075,-0.10345616845960182,0.31891355764095497
1658790132371552,0.6924544136720838,-0.06720073243305125,0.2086823834592204
1658790132387543,0.7071030746929123,-0.0896620126649883,0.24042114900434886
1658790132403535,0.7132066834515909,-0.0993057145037004,0.33661402304112276
1658790132419527,0.7227283131151294,-0.08355840390630975,0.33954375524528846
1658790132435518,0.7439688715953308,-0.08258182650492119,0.24115358205539028
1658790132451510,0.7931639581902798,-0.03924620431830306,0.1318989852750443
1658790132467502,0.8208743419546805,-0.009094377050431035,0.06500343327992653
1658790132483493,0.8429694056610968,-0.02276646066987098,0.08514534218356573
1658790132499485,0.8294193942168304,-0.03826962691691449,0.1129777981231399
1658790132515477,0.8125734340428776,-0.04351873044937804,0.13080033569848215
1658790132531468,0.840650034332799,-0.034973678187228074,0.0949111161974514
1658790132547460,0.8529793240253296,-0.05951018539711583,0.03997863736934448
1658790132563452,0.8611581597619589,-0.092591744869154,5.493247882810692E-4
1658790132579444,0.8626230258640417,-0.09234760051880686,0.011291676203555312
1658790132595435,0.8594491493095289,-0.036194399938963784,0.03668268863965807
1658790132611427,0.8864271000228889,0.04986648355840373,0.03424124513618665
1658790132627419,0.8950942244602125,0.047913328755626594,-0.033752956435492365
1658790132643410,0.8892347600518811,-0.01373311970702673,-0.07000839246204338
1658790132659402,0.8917982757305261,-0.060852979324025114,-0.061097123674372256
1658790132675384,0.9245136186770431,0.015564202334630295,-0.06451514457923269
1658790132691376,0.9740749217975129,0.039124132143129486,-0.12384222171358816
1658790132707368,0.9721217669947357,0.002990768291752488,-0.15240711070420376
1658790132723359,0.9661402304112308,-0.005676356145571049,-0.18341344319829078
1658790132739351,0.9741969939726864,-0.020935378042267416,-0.1765774013885708
1658790132755343,0.9823758297093157,-0.019592584115358136,-0.19513237201495404
1658790132771334,0.9658960860608836,-0.01104753185320817,-0.2783855954833294
1658790132787326,0.9634546425574122,0.007873655298695326,-0.33002212558175037
1658790132803318,0.9661402304112308,0.014099336232547444,-0.36334782940413524
1658790132819309,0.9713893339436943,0.037781338216220206,-0.3899595635919737
1658790132835301,0.9824979018844893,0.053040360112916574,-0.40778210116731506
1658790132851293,0.9951934081025406,0.06012054627298369,-0.4358587014572364
1658790132867284,0.9881132219424735,0.08087281605249075,-0.5094682230869001
1658790132883276,0.9573510337987337,0.0756237125200272,-0.4993362325474937
1658790132899268,0.9270771343556881,0.05658045319295013,-0.47614251926451523
1658790132915259,0.9059586480506603,0.06268406195162868,-0.465400167849241
1658790132931251,0.8976577401388575,0.04693675135423803,-0.4442816815442132
1658790132947243,0.8928969253070882,0.01239032578011745,-0.4033875028610665
1658790132963235,0.9014419775692382,0.00848401617456318,-0.4004577706569008
1658790132979226,0.9043717097734039,-0.005310139620050336,-0.4085145342183565
1658790132995208,0.9070572976272224,0.024719615472648115,-0.3866636148622873
1658790133011200,0.9069352254520489,0.03289845120927737,-0.36542305638208594
1658790133027192,0.9147478446631574,0.03607232776379021,-0.34528114747844674
1658790133043183,0.9052262149996189,0.008239871824216038,-0.30353246356908503
1658790133059175,0.8834973678187232,-0.023743038071259548,-0.25592431525139236
1658790133075167,0.8650644693675131,-0.0432745860990309,-0.2322423132677196
1658790133091158,0.8567635614557103,-0.06939803158617552,-0.19562066071564832
1658790133107150,0.857129777981231,-0.07721065079728406,-0.1392233157854581
1658790133123142,0.851148241397726,-0.0631723506523234,-0.09869535362783255
1658790133139134,0.8314946211947811,-0.03472953383688093,-0.07611200122072193
1658790133155125,0.8146486610208283,-0.032288090333409514,-0.026916914625772392
1658790133171117,0.8072022583352405,-0.05914396887159512,0.011413748378728883
1658790133187109,0.7945067521171891,-0.07977416647592905,0.03155565728236809
1658790133203100,0.7879148546578163,-0.08014038300144977,0.09759670405126997
1658790133219092,0.7710688944838635,-0.10443274586099038,0.20526436255436042
1658790133235084,0.7553215838864729,-0.11602960250247962,0.28497749294270225
1658790133251075,0.7543450064850843,-0.11224536507209892,0.32025635156786425
1658790133267067,0.7400625619897765,-0.11969176775768675,0.3667658503089948
1658790133283059,0.7184557869840544,-0.18158236057068722,0.44110780498970037
1658790133299050,0.6983138780804152,-0.20648508430609613,0.4881055924315252
1658790133315033,0.7085679407949952,-0.12323186083772031,0.5177691309987029
1658790133331024,0.7112535286488137,-0.1077286945906768,0.6348363469901583
1658790133347016,0.6814679179064624,-0.167421988250553,0.6663309681849396
1658790133363008,0.6558327611200125,-0.15790035858701446,0.6010223544670783
1658790133378999,0.6563210498207068,-0.1517967498283359,0.6256809338521405
1658790133394991,0.6610818646524761,-0.161440451667048,0.7650873579003585
1658790133410983,0.6460669871061269,-0.19562066071564832,0.7970702677958341
1658790133426974,0.6295872434576948,-0.17145037003128083,0.7138170443274587
1658790133442966,0.6160372320134275,-0.19012741283283763,0.7172350652323187
1658790133458958,0.6115205615320054,-0.23382925154497602,0.7661860074769207
1658790133474949,0.5753871976806284,-0.26947432669565874,0.8067139696345462
1658790133490941,0.5531700617990385,-0.2638590066376745,0.834668497749294
1658790133506933,0.5321736476691843,-0.2932784008545051,0.8109864957656212
1658790133522925,0.5586633096818492,-0.23273060196841389,0.7732661936369878
1658790133538916,0.5443808651865414,-0.2654459449149309,0.834668497749294
1658790133554908,0.5163042648966201,-0.28119325551232155,0.9225604638742659
1658790133570900,0.49335469596398873,-0.27191577019913016,0.901197833218891
1658790133586891,0.48786144808117804,-0.2692301823453116,0.8618905928130003
1658790133602883,0.5016556038757916,-0.26691081101701375,0.8980239566643782
1658790133618875,0.4967727168688487,-0.3436942092011903,0.9744411383230336
1658790133634857,0.48480964370183877,-0.3218432898451211,0.914015411612116
1658790133650848,0.47943846799420164,-0.31744869153887256,0.8814221408407725
1658790133666840,0.47809567406729236,-0.33099870298313894,0.8933852140077825
1658790133682832,0.4507515068284125,-0.35907530327306025,0.8930189974822618
1658790133698824,0.41510643167772976,-0.4066834515907529,0.9605249103532465
1658790133714815,0.38361181048294846,-0.4518501564049746,1.0105745021744106
1658790133730807,0.3986266880292977,-0.4018005645838101,0.9569848172732129
1658790133746799,0.42572671091783043,-0.3600518806744488,0.916578927290761
1658790133762790,0.42352941176470615,-0.3488212405584803,0.9429465171282523
1658790133778782,0.38739604791332916,-0.33942168307011533,0.9824979018844893
1658790133794774,0.3556572823681998,-0.32892347600518823,0.9776150148775464
1658790133810765,0.3325856412603949,-0.3621271076523995,0.9590600442511636
1658790133826757,0.315495536736095,-0.3944762340733958,0.9685816739147022
1658790133842749,0.2804608224612801,-0.41461814297703503,0.9859159227893493
1658790133858740,0.26520180056458376,-0.44794384679942034,1.018142977035172
1658790133874732,0.2893720912489508,-0.46137178606851315,1.063065537499046
1658790133890724,0.31854734111543426,-0.3761654077973602,1.0072785534447242
1658790133906715,0.313786526283665,-0.3982604715037765,1.0242465857938505
1658790133922707,0.2855878538185701,-0.4370794232089721,1.0418249790188447
1658790133938699,0.27704280155642014,-0.4463569085221639,1.0608682383459218
1658790133954681,0.27533379110399014,-0.44757763027389963,1.1144579232471195
1658790133970673,0.2818036163881894,-0.44794384679942034,1.17769130998703
1658790133986664,0.2621499961852445,-0.4935988403143359,1.2329900053406577
1658790134002656,0.2377355611505303,-0.5608606088349735,1.248004882887007
1658790134018648,0.2377355611505303,-0.5984588387884338,1.3178301670862895
1658790134034639,0.26312657358663305,-0.5918669413290609,1.3460288395513844
1658790134050631,0.28363469901579297,-0.6212863355458915,1.3926604104676894
1658790134066623,0.3023117418173493,-0.6658426794842449,1.3958342870222022
1658790134082615,0.3218432898451207,-0.672922865644312,1.4257419699397271
1658790134098606,0.34003204394598274,-0.6347142748149843,1.3891203173876558
1658790134114598,0.3401541161211563,-0.6345922026398108,1.3821622034027623
1658790134130590,0.3242847333485921,-0.6159151598382544,1.3551842526894022
1658790134146581,0.3067063401235979,-0.6127412832837416,1.3186846723125045
1658790134162573,0.27618829633020514,-0.5950408178835738,1.2907301441977568
1658790134178565,0.25799954222934307,-0.5595178149080642,1.2414129854276341
1658790134194556,0.25421530479896237,-0.569649805447471,1.221271076523995
1658790134210548,0.27447928587777515,-0.563668268863966,1.195635919737545
1658790134226540,0.2990157930876629,-0.5206988632028686,1.213824673838407
1658790134242531,0.3117112993057143,-0.48822766460669875,1.19990844586862
1658790134258523,0.31512932021057427,-0.4552681773098346,1.1088426031891352
1658790134274505,0.33319600213626277,-0.46295872434576957,1.0871137560082396
1658790134290497,0.35419241626611697,-0.42584878309300356,1.0623331044480047
1658790134306489,0.3621271076523991,-0.36041809719996953,1.0111848630502784
1658790134322480,0.35687800411993553,-0.3764095521477073,0.9884794384679942
1658790134338472,0.37775234607461705,-0.352605477988861,0.9374532692454416
1658790134354464,0.39154650186923057,-0.37555504692149233,0.9258564126039524
1658790134370455,0.4091248950942248,-0.349187457084001,0.8904554818036168
1658790134386447,0.41144426642252263,-0.32257572289616254,0.8323491264209961
1658790134402439,0.45160601205462747,-0.31830319676508756,0.7936522468909741
1658790134418430,0.4822461280231938,-0.3231860837720304,0.7611810482948043
1658790134434422,0.5060502021820401,-0.33087663080796537,0.746166170748455
1658790134450414,0.5189898527504386,-0.3239185168230718,0.7318837262531472
1658790134466405,0.5457236591134507,-0.29205767910276936,0.6500953688868547
1658790134482397,0.5680628671702141,-0.2670328831921873,0.5597619592584113
1658790134498389,0.6019989318684669,-0.23358510719462888,0.5249713893339436
1658790134514381,0.5950408178835733,-0.22235446707866036,0.5232623788815136
1658790134530372,0.6109102006561375,-0.1990386816205083,0.5182574196993972
1658790134546364,0.6135957885099561,-0.22577248798352034,0.44379339284351893
1658790134562356,0.6500953688868547,-0.18573281452658863,0.3301441977569235
1658790134578347,0.6800030518043796,-0.20856031128404684,0.36176089112687837
1658790134594329,0.6889143205920503,-0.1923247119859619,0.3950865949492641
1658790134610321,0.6990463111314567,-0.1275043869687953,0.3355153734645606
1658790134626313,0.7310292210269322,-0.11847104600595104,0.2339513237201496
1658790134642305,0.7593499656672007,-0.12469672693980316,0.22064545662623036
1658790134658296,0.7595941100175478,-0.15680170901045232,0.2991378652628365
1658790134674288,0.7561760891126879,-0.12359807736324102,0.2985275043869686
1658790134690280,0.7670405127031357,-0.07940794995040834,0.24225223163195242
1658790134706271,0.7812008850232699,-0.029602502479590953,0.1071183337148085
1658790134722263,0.8042725261310748,0.03033493553063238,-0.01361104753185316
1658790134738255,0.8288090333409626,0.027649347676813818,0.038757915617608774
1658790134754246,0.8386968795300218,-0.03448538948653379,0.1410543984130621
1658790134770238,0.8323491264209961,-0.10797283894102394,0.1957427328908219
1658790134786230,0.8347905699244675,-0.1328755626764324,0.09417868314640998
1658790134802221,0.8651865415426867,-0.1249408712901503,-0.018127718013275285
1658790134818213,0.8819104295414668,-0.09198138399328615,-0.07428091859311836
1658790134834205,0.8927748531319146,-0.032410162508583085,-0.09283588921950114
1658790134850196,0.9073014419775696,0.04888990615701516,-0.09747463187609684
1658790134866188,0.9224383916990924,0.05218585488670158,-0.12176699473563746
1658790134882180,0.9146257724879838,-6.103608758678547E-5,-0.1497215228503852
1658790134898172,0.8957045853360803,-0.015930418860151008,-0.18439002059967935
1658790134914154,0.8909437705043111,-0.030945296406500233,-0.18536659800106792
1658790134930145,0.8903334096284432,-0.00579842832074462,-0.20025940337224402
1658790134946137,0.8874036774242775,0.028381780727855244,-0.24664682993820097
1658790134962129,0.8897230487525754,0.07733272297245719,-0.3125658045319297
1658790134978120,0.9197528038452738,0.12127870603494273,-0.3436942092011903
1658790134994112,0.9584496833752958,0.11480888075074347,-0.3467460135805296
1658790135010104,0.9899443045700771,0.10321202410925423,-0.3839780270084687
1658790135026095,0.9976348516060121,0.07928587777523433,-0.42169832913710215
1658790135042087,0.9928740367742428,0.04901197833218873,-0.43268482490272353
1658790135058079,0.9800564583810178,0.02020294499122599,-0.44745555809872606
1658790135074071,0.9739528496223393,-0.013000686655985305,-0.424872205691615
1658790135090062,0.9672388799877929,7.934691386282111E-4,-0.41449607080186146
1658790135106054,0.9583276112001222,0.001159685664148924,-0.4219424734874493
1658790135122046,0.9480735484855423,0.01605249103532458,-0.4535591668574046
1658790135138037,0.9235370412756545,0.009338521400778177,-0.47980468451972236
1658790135154029,0.9068131532768753,0.026184481574730967,-0.48407721065079734
1658790135170021,0.9096208133058674,0.03607232776379021,-0.4114442664225222
1658790135186012,0.9062027924010074,0.04510566872663446,-0.3820248722056916
1658790135202004,0.8866712443732361,0.023254749370565264,-0.3621271076523995
1658790135217996,0.8675059128709846,-0.006652933546959616,-0.35199511711299314
1658790135233978,0.8693369954985881,-0.019348439765010994,-0.2864423590447851
1658790135249970,0.8773937590600447,-0.053284504463263715,-0.23590447852292673
1658790135265961,0.8941176470588239,-0.04840161745632088,-0.20404364080262472
1658790135281953,0.8931410696574353,-0.010559243152513886,-0.18878461890592835
1658790135297945,0.8756847486076147,-0.0039673456931410556,-0.17523460746166153
1658790135313936,0.8578622110322724,-0.04449530785076661,-0.1022354467078661
1658790135329928,0.8529793240253296,-0.07122911421377909,-0.02423132677195383
1658790135345920,0.8434576943617911,-0.0657358663309684,0.030212863355458808
1658790135361911,0.8284428168154419,-0.040344853894865196,0.049256122682535874
1658790135377903,0.8093995574883648,-0.07208361943999408,0.11956969558251274
1658790135393895,0.7880369268329899,-0.13788052185854882,0.202822919050889
1658790135409886,0.768383306630045,-0.17230487525749583,0.25677882047760736
1658790135425878,0.7677729457541771,-0.14923323414969092,0.29498741130693507
1658790135441870,0.76069275959411,-0.11700617990386819,0.32648203250171637
1658790135457862,0.7566643778133821,-0.14056610971236738,0.3725032425421526
1658790135473853,0.7569085221637293,-0.14569314106965736,0.41058976119630763
1658790135489845,0.7440909437705043,-0.12335393301289388,0.43073167009994684
1658790135505837,0.7333485923552301,-0.09393453879606328,0.4439154650186925
1658790135521828,0.7174792095826659,-0.11163500419623107,0.500679026474403
1658790135537820,0.7014877546349281,-0.14520485236896308,0.5202105745021743
1658790135553802,0.7014877546349281,-0.19635309376668975,0.5840543221179519
1658790135569794,0.6886701762417031,-0.15838864728770874,0.6211642633707175
1658790135585785,0.684153505760281,-0.1774319066147858,0.6992904554818038
1658790135601777,0.6659647516594189,-0.19562066071564832,0.7022201876859695
1658790135617769,0.6579079880979632,-0.15790035858701446,0.6510719462882433
1658790135633761,0.6415503166247047,-0.19171435111009405,0.7536125734340429
1658790135649752,0.6060273136491947,-0.24628061341268026,0.8159914549477376
1658790135665744,0.5952849622339205,-0.23578240634775316,0.8274662394140533
1658790135681736,0.5977264057373919,-0.2797283894102387,0.8379644464789804
1658790135697727,0.6002899214160369,-0.23334096284428174,0.7541008621347371
1658790135713719,0.5952849622339205,-0.20514229037918685,0.7693598840314335
1658790135729711,0.5582970931563285,-0.27618829633020514,0.8335698481727318
1658790135745702,0.5266803997863736,-0.27618829633020514,0.8166018158236055
1658790135761694,0.509224078736553,-0.2888838025482565,0.8288090333409626
1658790135777686,0.4997024490730144,-0.30926985580224287,0.7801022354467078
1658790135793677,0.4778515297169452,-0.30719462882429216,0.7967040512703134
1658790135809669,0.464545662623026,-0.3516289005874724,0.8526131074998089
1658790135825661,0.4896925307087816,-0.3082932784008543,0.8906996261539639
1658790135841652,0.49164568551155874,-0.2687418936446173,0.8559090562294953
1658790135857644,0.4788281071183338,-0.27325856412603944,0.852857251850156
1658790135873626,0.4481879911497675,-0.35565728236820027,0.9419699397268637
1658790135889618,0.429266803997864,-0.3706721599145495,0.9589379720759901
1658790135905610,0.43952086671244395,-0.36786449988555736,0.9925078202487221
1658790135921601,0.44379339284351893,-0.3559014267185474,0.9776150148775464
1658790135937593,0.4414740215152211,-0.31232166018158214,0.9689478904402229
1658790135953585,0.3988708323796448,-0.33270771343556893,1.0075226977950713
1658790135969576,0.349919890135042,-0.38983749141680013,1.0364538033112076
1658790135985568,0.3212329289692528,-0.3970397497520408,0.9999542229343099
1658790136001560,0.32147707331959996,-0.36200503547722596,0.9851834897383078
1658790136017552,0.34589150835431415,-0.3790951400015259,1.0575722896162354
1658790136033543,0.3762874799725342,-0.4235294117647057,1.0561074235141525
1658790136049535,0.38788433661402344,-0.4843213550011445,1.096635385671778
1658790136065527,0.3640802624551762,-0.5111772335393301,1.1410696574349588
1658790136081518,0.3583428702220184,-0.5076371404592965,1.1798886091401544
1658790136097510,0.3561455710688941,-0.5641565575646603,1.2372625314717327
1658790136113502,0.3309987029831385,-0.5944304570077059,1.1891660944533458
1658790136129493,0.3255054551003278,-0.5591515983825435,1.1599908445868623
1658790136145485,0.3246509498741128,-0.5460898756389714,1.227496757457847
1658790136161477,0.3372243839169906,-0.5287556267643243,1.2736400396734568
1658790136177468,0.3334401464866099,-0.5733119707026781,1.2794995040817883
1658790136193451,0.3461356527046613,-0.6132295719844358,1.2201724269474328
1658790136209442,0.3825131609063863,-0.6692607003891049,1.2417792019531548
1658790136225434,0.4140077821011676,-0.6666971847104599,1.2598458838788433
1658790136241426,0.40753795681696836,-0.686594949263752,1.2890211337453268
1658790136257417,0.38031586175326204,-0.7073472190432595,1.2560616464484626
1658790136273409,0.3628595407034405,-0.6951400015259024,1.1933165484092472
1658790136289401,0.35297169451438126,-0.6941634241245138,1.2089417868314642
1658790136305392,0.3213550011444264,-0.680613412680247,1.1945372701609829
1658790136321384,0.31512932021057427,-0.6665751125352863,1.2055237659266043
1658790136337376,0.32355230029755067,-0.6430151827267871,1.2028381780727857
1658790136353367,0.35297169451438126,-0.5795376516365303,1.1634088654917223
1658790136369359,0.36188296330205194,-0.5901579308766309,1.1397268635080495
1658790136385351,0.3804379339284356,-0.5720912489509424,1.1021286335545888
1658790136401342,0.38959334706645343,-0.5717250324254217,1.1053025101091016
1658790136417334,0.4019226367589841,-0.5905241474021516,1.1335011825741974
1658790136433326,0.41437399862668833,-0.54535744258793,1.0769817654688332
1658790136449318,0.41437399862668833,-0.5495078965438314,1.018142977035172
1658790136465309,0.42816815442130185,-0.5175249866483558,0.9967803463797971
1658790136481301,0.44208438239108894,-0.4320744640268557,0.9512474250400551
1658790136497293,0.45539024948500817,-0.36713206683451594,0.9303730830853745
1658790136513275,0.4522163729304953,-0.34821087968261244,0.832104982070649
1658790136529266,0.46466773479819956,-0.351750972762646,0.7969481956206605
1658790136545258,0.4867627985046159,-0.35358205539024956,0.8047608148317691
1658790136561250,0.49921416037232014,-0.3253833829251547,0.8247806515602347
1658790136577242,0.5148393987945372,-0.2944991226062408,0.8147707331960019
1658790136593233,0.5155718318455786,-0.2717936980239566,0.6726787212939653
1658790136609225,0.5426718547341114,-0.19708552681773117,0.54023041123064
1658790136625217,0.5624475471122299,-0.18390173189898507,0.5620813305867092
1658790136641208,0.5739223315785456,-0.16168459601739515,0.5963836118104826
1658790136657200,0.5658655680170899,-0.18133821622034008,0.5994354161898219
1658790136673192,0.5883268482490269,-0.17376974135957868,0.45209430075532175
1658790136689183,0.614206149385824,-0.14911116197451735,0.3502861066605627
1658790136705175,0.6509498741130697,-0.12335393301289388,0.3696955825131605
1658790136721167,0.6687724116884111,-0.10504310673685824,0.3902037079423213
1658790136737158,0.6634012359807739,-0.11956969558251318,0.3443045700770577
1658790136753150,0.6915999084458688,-0.09295796139467472,0.21783779659723823
1658790136769142,0.74189364461738,-0.04376287479972518,0.13531700617990428
1658790136785133,0.7732661936369878,-0.025696192874036683,0.16388189517051988
1658790136801125,0.7728999771114671,-0.07061875333791123,0.21637293049515538
1658790136817117,0.7664301518272678,-0.053406576638437286,0.11322194247348705
1658790136833099,0.7947508964675363,-0.001159685664148924,0.04718089570458517
1658790136849091,0.8091554131380176,0.03045700770580595,0.05426108186465228
1658790136865082,0.8125734340428776,0.010803387502861028,0.05926604104676869
1658790136881074,0.8178225375753412,0.00579842832074462,0.03826962691691449
1658790136897066,0.8080567635614555,-0.010193026626993174,-0.014587624933241727
1658790136913057,0.8600595101853967,0.01483176928358887,-0.08258182650492119
1658790136929049,0.8988784618905932,0.036194399938963784,-0.16119630731670087
1658790136945041,0.9019302662699324,0.05523765926604085,-0.19085984588387905
1658790136961032,0.8930189974822618,0.05535973144121442,-0.18805218585488692
1658790136977024,0.8866712443732361,0.02020294499122599,-0.20148012512397973
1658790136993016,0.9062027924010074,0.022156099794003126,-0.242374303807126
1658790137009008,0.9345235370412759,0.003479056992446772,-0.32513923857480753
1658790137024999,0.9622339208056765,0.013000686655985305,-0.41461814297703503
1658790137040991,0.9622339208056765,0.0462043183031966,-0.44965285725185034
1658790137056983,0.9513694972152287,0.10565346761272565,-0.47235828183413453
1658790137072974,0.9528343633173115,0.15020981155107993,-0.5048294804303044
1658790137088966,0.9297627222095066,0.12262149996185201,-0.5375448233768214
1658790137104958,0.9129167620355538,0.10162508583199781,-0.5452353704127564
1658790137120949,0.9147478446631574,0.08783093003738429,-0.5300984206912336
1658790137136941,0.9212176699473567,0.06817730983443937,-0.49616235599298086
1658790137152923,0.9110856794079503,0.07696650644693648,-0.5293659876401922
1658790137168915,0.8897230487525754,0.0718394750896465,-0.5423056382085907
1658790137184907,0.8806897077897311,0.06915388723582794,-0.5543907835507742
1658790137200898,0.8870374608987568,0.08075074387731718,-0.505806057831693
1658790137216890,0.8899671931029225,0.0785534447241929,-0.4549019607843139
1658790137232882,0.8914320592050053,0.05902189669642155,-0.43256275272754996
1658790137248873,0.8852063782711532,0.03826962691691449,-0.4155947203784236
1658790137264865,0.8693369954985881,0.02020294499122599,-0.34442664225223174
1658790137280857,0.870801861600671,0.007385366598001042,-0.25799954222934307
1658790137296848,0.849439230945296,-0.014221408407721015,-0.21576256961928753
1658790137312840,0.8383306630045011,-0.032532234683756656,-0.14923323414969092
1658790137328832,0.8230716411078047,-0.020691233691920274,-0.14398413061722737
1658790137344823,0.8153810940718698,-0.00982681010147246,-0.08221560997940047
1658790137360815,0.8146486610208283,-0.0060425726710917615,0.011779964904249596
1658790137376807,0.8067139696345462,-0.017029068436713146,0.07501335164415934
1658790137392799,0.7727779049362935,-0.05242999923704872,0.06878767071030722
1658790137408790,0.7417715724422065,-0.11187914854657821,0.1453269245441371
1658790137424782,0.7238269626916916,-0.1471580071717402,0.2695963988708323
1658790137440774,0.7266346227206837,-0.10455481803616395,0.30926985580224287
1658790137456765,0.7035629816128788,-0.09857328145265898,0.2999923704890515
1658790137472747,0.6768291752498667,-0.12384222171358816,0.3382009613183792
1658790137488739,0.6670634012359811,-0.12140077821011674,0.43524834058136896
1658790137504731,0.6681620508125432,-0.12066834515907532,0.5582970931563285
1658790137520722,0.7006332494087131,-0.12567330434119173,0.5722133211261156
1658790137536714,0.691844052796216,-0.07293812466620908,0.4837109941252766
1658790137552706,0.6518043793392847,-0.11261158159761964,0.5570763714045928
1658790137568698,0.610788128480964,-0.21014724956130326,0.6380102235446712
1658790137584689,0.5842984664682991,-0.20172426947432687,0.697825589379721
1658790137600681,0.5613488975356677,-0.167421988250553,0.7342030975814451
1658790137616673,0.5247272449835965,-0.22162203402761893,0.8064698252841991
1658790137632664,0.5050736247806515,-0.2709391927977416,0.8219729915312426
1658790137648656,0.5188677805752651,-0.23248645761806674,0.828686961165789
1658790137664648,0.5474326695658807,-0.1911039902342262,0.8659189745937281
1658790137680639,0.5447470817120621,-0.13604943923094526,0.8748302433813988
1658790137696631,0.5160601205462729,-0.11712825207904176,0.8637216754406039
1658790137712623,0.48786144808117804,-0.166567483024338,0.8853284504463268
1658790137728614,0.4649118791485467,-0.23968871595330743,0.9589379720759901
1658790137744606,0.4509956511787596,-0.27069504844739445,0.9907988097962921
1658790137760598,0.41095597772182835,-0.2763103685053787,1.0304722667277026
1658790137776589,0.4019226367589841,-0.3075608453498129,1.0573281452658883
1658790137792572,0.4053406576638441,-0.31012436102845786,0.9895780880445564
1658790137808563,0.42316319523918544,-0.2976729991607536,0.9969024185549706
1658790137824555,0.4024109254596784,-0.32001220721751755,1.0669718471046004
1658790137840547,0.39154650186923057,-0.30511940184634145,1.117998016327153
1658790137856538,0.37482261387045046,-0.29669642175936506,1.068802929732204
1658790137872530,0.3734798199435412,-0.2990157930876629,1.0197299153124284
1658790137888522,0.36261539635309337,-0.3291676203555354,1.036087586785687
1658790137904513,0.34039826047150346,-0.3438162813763639,1.1002975509269852
1658790137920505,0.3255054551003278,-0.33759060044251177,1.098344396124208
1658790137936497,0.32648203250171637,-0.37555504692149233,1.0590371557183182
1658790137952489,0.3284351873044935,-0.37933928435187303,1.0248569466697184
1658790137968480,0.30548561837186217,-0.3631036850537881,1.0094758525978484
1658790137984472,0.2905928130006865,-0.4046082246128022,1.0310826276035705
1658790138000464,0.2894941634241244,-0.4414740215152211,1.0550087739375904
1658790138016455,0.3062180514229036,-0.4650339513237203,1.1255664911879153
1658790138032447,0.2935225452048522,-0.43085374227511997,1.0797894254978253
1658790138048439,0.27240405889982444,-0.40814831769283577,1.063920042725261
1658790138064430,0.25604638742656594,-0.4422064545662625,1.1067673762111845
1658790138080422,0.26019684138246735,-0.45246051728084247,1.1778133821622037
1658790138096414,0.2571450370031281,-0.45465781643396674,1.20503547722591
1658790138112396,0.24750133516441597,-0.4686961165789274,1.2101625085832
1658790138128388,0.26813153276874946,-0.5152056153200579,1.2434882124055848
1658790138144379,0.27362478065156015,-0.5922331578545816,1.2941481651026168
1658790138160371,0.29889372091248934,-0.6052948805981537,1.3514000152590215
1658790138176363,0.32367437247272424,-0.5891813534752424,1.364095521477073
1658790138192354,0.34174105439841274,-0.604928664072633,1.36946669718471
1658790138208346,0.32953383688105564,-0.5999237048905166,1.3443198290989544
1658790138224338,0.31012436102845786,-0.6400854505226214,1.3656824597543293
1658790138240329,0.2864423590447851,-0.6330052643625543,1.3628747997253372
1658790138256321,0.2695963988708323,-0.6271457999542229,1.3621423666742958
1658790138272313,0.2675211718928816,-0.6290989547570001,1.3413900968947887
1658790138288304,0.2700846875715266,-0.6002899214160373,1.302327000839246
1658790138304296,0.2772869459067673,-0.5589074540321963,1.2423895628290227
1658790138320288,0.2842450598916608,-0.5611047531853206,1.231769283588922
1658790138336279,0.28168154421301583,-0.5736781872281989,1.2184634164950028
1658790138352271,0.28070496681162727,-0.5979705500877395,1.1984435797665371
1658790138368263,0.3045090409704736,-0.578194857709621,1.1891660944533458
1658790138384255,0.3262378881513692,-0.5529259174486914,1.1626764324406809
1658790138400246,0.3489433127336534,-0.501533531700618,1.0725871671625846
1658790138416238,0.35809872587167124,-0.45673304341191745,1.0442664225223162
1658790138432220,0.36823071641107763,-0.4118104829480429,1.0429236285954069
1658790138448212,0.3955748836499584,-0.37506675822079805,1.051712825207904
1658790138464203,0.4136415655756469,-0.35455863279163813,1.0257114518959334
1658790138480195,0.4368352788586254,-0.32880140383001466,0.9839627679865721
1658790138496187,0.43353933012893897,-0.3274586099031054,0.9402609292744337
1658790138512179,0.4359807736324104,-0.32294193942168326,0.9453879606317237
1658790138528170,0.4259708552681776,-0.32928969253070894,0.937331197070268
1658790138544162,0.4397650110627911,-0.2570229648279545,0.856275272755016
1658790138560154,0.4547798886091403,-0.21258869306477468,0.7841306172274356
1658790138576145,0.4589303425650417,-0.22211032272831321,0.7597161821927214
1658790138592137,0.48151369497215235,-0.19562066071564832,0.7186999313344016
1658790138608129,0.5005569542992294,-0.24286259250782027,0.6644998855573361
1658790138624120,0.52143129625391,-0.22870222018768604,0.5541466392004271
1658790138640112,0.5362020294499121,-0.20721751735713756,0.4757763027389945
1658790138656104,0.5554894331273363,-0.18097199969481936,0.43317311360341826
1658790138672095,0.5878385595483326,-0.15045395590142663,0.3423514152742806
1658790138688087,0.6253147173266198,-0.13092240787365528,0.33539330128938705
1658790138704079,0.6269016556038762,-0.07379262989242408,0.2544594491493095
1658790138720070,0.6570534828717483,-0.017029068436713146,0.1973296711680783
1658790138736062,0.6828107118333717,0.010193026626993174,0.0764782177462422
1658790138752014,0.7443350881208515,0.017639429312581,0.0499885557335773
1658790138768005,0.753002212558175,0.007629510948348184,0.08636606393530144
1658790138783997,0.749584191653315,0.028503852903028815,0.1138323033493549
1658790138799989,0.7373769741359579,-0.009094377050431035,0.16388189517051988
1658790138815981,0.7389639124132144,-0.03546196688792236,0.07830930037384576
1658790138831972,0.7760738536659799,0.03302052338445094,-0.050720988784618726
1658790138847964,0.8429694056610968,0.08429083695735073,-0.04486152437628732
1658790138863956,0.8628671702143889,0.08368047608148288,-0.024963759822995257
1658790138879947,0.8672617685206374,0.1214007782101163,-0.024475471122300974
1658790138895939,0.8695811398489353,0.12396429388876129,-0.04437323567559304
1658790138911931,0.8704356450751503,0.07782101167315147,-0.08746471351186402
1658790138927922,0.8788586251621275,0.036316472114137355,-0.14740215152208735
1658790138943914,0.9010757610437174,0.007385366598001042,-0.07122911421377909
1658790138959906,0.9145037003128103,0.03460746166170736,9.15541313801782E-4
1658790138975897,0.9120622568093388,0.02911421377889667,-0.005432211795223907
1658790138991889,0.9286640726329445,0.05889982452124798,-0.14923323414969092
1658790139007881,0.948439765011063,0.1109025711451892,-0.26727702754253446
1658790139023872,0.9486839093614101,0.12164492256046344,-0.3256275272755018
1658790139039864,0.9495384145876251,0.15020981155107993,-0.36908522163729307
1658790139055856,0.9536888685435265,0.16437018387121416,-0.40119020370794223
1658790139071869,0.9564965285725187,0.17572289616235626,-0.4452582589456018
1658790139087860,0.9567406729228658,0.18573281452658907,-0.48236820019836735
1658790139103852,0.9225604638742659,0.1301899748226143,-0.5031204699778744
1658790139119844,0.896070801861601,0.09613183794918712,-0.5313191424429693
1658790139135835,0.8970473792629896,0.10150301365682424,-0.5216754406042572
1658790139151827,0.9033951323720153,0.11017013809414777,-0.5322957198443579
1658790139167819,0.915724422064546,0.12018005645838059,-0.5580529488059813
1658790139183810,0.9130388342107274,0.12774853131914288,-0.5894254978255895
1658790139199802,0.9099870298313881,0.12567330434119217,-0.5661097123674375
1658790139215794,0.908033875028611,0.12188906691081058,-0.5272907606622415
1658790139231785,0.9068131532768753,0.11065842679484206,-0.5303425650415807
1658790139247777,0.9091325246051731,0.10406652933546923,-0.5121538109407187
1658790139263769,0.9108415350576031,0.09417868314640998,-0.49335469596398873
1658790139279760,0.9057145037003131,0.07953002212558147,-0.4531929503318839
1658790139295752,0.9025406271458003,0.0844129091325243,-0.4236514839398793
1658790139311744,0.8981460288395517,0.06817730983443937,-0.37836270695048446
1658790139327736,0.8987563897154196,0.10113679713130352,-0.33978789959563604
1658790139343727,0.8842298008697647,0.053162432288090145,-0.2700846875715266
1658790139359719,0.8728770885786217,0.04986648355840373,-0.25506981002517737
1658790139375711,0.8638437476157774,0.035217822537575216,-0.16852063782711513
1658790139391693,0.8462653543907832,0.006775005722133187,-0.12262149996185245
1658790139407684,0.8427252613107497,0.02655069810025168,-0.07550164034485407
1658790139423676,0.8301518272678718,0.0014038300144960658,-0.055970092317082276
1658790139439668,0.8212405584802012,-0.010803387502861028,-0.009338521400778177
1658790139455659,0.8093995574883648,-0.015808346684977437,0.01483176928358887
1658790139471651,0.7943846799420156,-0.029724574654764524,0.09088273441672357
1658790139487643,0.7753414206149385,-0.029846646829938095,0.15387197680628706
1658790139503635,0.75385671778439,-0.014465552758068156,0.1448386358434428
1658790139519626,0.759838254367895,-0.009338521400778177,0.1961089494163426
1658790139535618,0.7295643549248494,-0.05242999923704872,0.26642252231631947
1658790139551610,0.716014343480583,-0.08526741435873975,0.3842221713588163
1658790139567601,0.7006332494087131,-0.0888075074387733,0.4158388647287712
1658790139583593,0.6931868467231252,-0.011413748378728883,0.34967574578469485
1658790139599585,0.685862516212711,4.272526131074983E-4,0.46515602349889384
1658790139615576,0.6631570916304268,-0.06659037155718339,0.5810025177386127
1658790139631568,0.6613260090028232,-0.08148317692835905,0.6284885938811327
1658790139647560,0.674753948271916,-0.06024261844815726,0.6367895017929355
1658790139663551,0.651438162813764,-0.0036011291676203427,0.5812466620889598
1658790139679543,0.6111543450064847,0.0252079041733424,0.6074921797512776
1658790139695535,0.5753871976806284,-0.04718089570458517,0.7238269626916916
1658790139711517,0.5662317845426106,-0.09124895094224472,0.7812008850232699
1658790139727509,0.5645227740901806,-0.1098039215686275,0.7708247501335164
1658790139743500,0.5513389791714349,-0.09686427100022899,0.7588616769665064
1658790139759492,0.5283894102388036,-0.15277332722972448,0.8717784390020595
1658790139775484,0.5149614709697108,-0.1607080186160066,0.9295185778591595
1658790139791475,0.529121843289845,-0.1602197299153123,0.9821316853589686
1658790139807467,0.53852140077821,-0.20514229037918685,0.9966582742046235
1658790139823459,0.5191119249256122,-0.15082017242694734,0.8996108949416346
1658790139839450,0.4979934386205844,-0.13897917143511096,0.8842298008697647
1658790139855442,0.46564431219958813,-0.18609903105210934,0.946730754558633
1658790139871434,0.42694743266956614,-0.2124666208896011,0.9446555275806823
1658790139887426,0.4070496681162741,-0.22211032272831321,0.9101091020065617
1658790139903417,0.40045777065690125,-0.2330968184939346,0.8816662851911197
1658790139919409,0.4032654306858934,-0.3024338139925229,0.9217059586480509
1658790139935401,0.3742122529945826,-0.3148851758602276,0.9030289158464946
1658790139951392,0.36273746852826694,-0.33771267261768534,0.9652857251850158
1658790139967384,0.37396810864423546,-0.3391775387197682,0.9813992523079271
1658790139983376,0.3830014496070806,-0.2981612878614479,0.9489280537117573
1658790139999367,0.36481269550621764,-0.31134508278019357,0.9861600671396964
1658790140015359,0.34833295185778557,-0.3206225680933854,1.0578164339665825
1658790140031341,0.3527275501640341,-0.3345387960631725,1.1076218814373995
1658790140047333,0.35297169451438126,-0.3324635690852218,1.1212939650568394
1658790140063325,0.32819104295414636,-0.3638361181048295,1.1540093080033573
1658790140079316,0.29596398870832363,-0.46979476615548954,1.236896314946212
1658790140095308,0.2886396581979094,-0.5286335545891507,1.3240558480201416
1658790140111300,0.3036545357442586,-0.5182574196993972,1.3533531700617987
1658790140127291,0.31012436102845786,-0.5447470817120621,1.3877775234607466
1658790140143283,0.3237964446478978,-0.6054169527733273,1.412680247196155
1658790140159275,0.35468070496681126,-0.6157930876630808,1.436850537880522
1658790140175266,0.37653162432288134,-0.6012664988174259,1.4243991760128178
1658790140191258,0.37946135652704704,-0.6240939955748837,1.4458838788433663
1658790140207250,0.36261539635309337,-0.6604715037766078,1.4149996185244529
1658790140223241,0.3427176317998013,-0.7210193026626994,1.4694438086518655
1658790140239233,0.30719462882429216,-0.7140611886778059,1.4549172198062106
1658790140255225,0.29877164873731576,-0.6518043793392843,1.3628747997253372
1658790140271216,0.2943770504310672,-0.6615701533531699,1.3459067673762108
1658790140287208,0.30353246356908503,-0.6510719462882428,1.3378500038147552
1658790140303200,0.3002365148393986,-0.6166475928892958,1.3178301670862895
1658790140319192,0.29340047302967864,-0.5778286411841003,1.256794079499504
1658790140335183,0.2944991226062408,-0.5625696192874039,1.21870756084535
1658790140351165,0.3104905775539786,-0.569649805447471,1.2162661173418785
1658790140367157,0.3292896925307085,-0.5454795147631035,1.192217898832685
1658790140383149,0.34637979705500843,-0.5088578622110322,1.2012512397955293
1658790140399140,0.3406424048218506,-0.4939650568398566,1.134477759975586
1658790140415132,0.3557793545433734,-0.47394522011139095,1.0967574578469517
1658790140431124,0.36896314946211906,-0.4455024032959489,1.0620889600976575
1658790140447116,0.36932936598763977,-0.39655146105134653,1.0381628137636376
1658790140463107,0.39996948195620696,-0.33270771343556893,1.0185091935606927
1658790140479099,0.41181048294804334,-0.33563744563973463,0.9918974593728542
1658790140495091,0.43781185626001395,-0.3028000305180436,0.9745632104982072
1658790140511082,0.42059967956054045,-0.32843518730449395,0.9669947356374458
1658790140527074,0.4312199588006411,-0.2905928130006865,0.875318532082094
1658790140543066,0.45209430075532175,-0.29083695735103365,0.8311284046692604
1658790140559057,0.4771190966659038,-0.2562905317769131,0.7999999999999998
1658790140575049,0.4997024490730144,-0.22870222018768604,0.8306401159685661
1658790140591041,0.48407721065079734,-0.21271076523994825,0.7515373464560922
1658790140607032,0.48700694285496304,-0.1969634546425576,0.5991912718394747
1658790140623024,0.5037308308537423,-0.19623102159151617,0.5232623788815136
1658790140639016,0.5281452658884564,-0.17303730830853725,0.5388876173037307
1658790140655007,0.5571984435797663,-0.15570305943389018,0.5258258945601586
1658790140670990,0.5709925993743799,-0.12188906691081103,0.3611505302510105
1658790140686981,0.5958953231097883,-0.09710841535057613,0.2671549553673609
1658790140702973,0.6209201190203704,-0.08282597085526833,0.1919584954604412
1658790140718965,0.6277561608300912,-0.07061875333791123,0.15802243076218847
1658790140734956,0.6425268940260933,-0.06671244373235696,0.19427786678873904
1658790140750948,0.6731670099946596,-0.1228656443121996,0.19891660944533474
1658790140766940,0.715159838254368,-0.1022354467078661,0.047913328755626594
1658790140782931,0.7818112458991378,-0.019470511940184565,-0.019226367589837423
1658790140798923,0.7794918745708399,0.016540779736018862,-0.0394903486686502
1658790140814915,0.7770504310673685,0.04180971999694805,-0.025940337224383825
1658790140830906,0.7771725032425421,0.030823224231326662,-0.07647821774624264
1658790140846898,0.8069581139848934,0.05914396887159512,-0.14239719233997095
1658790140862890,0.8323491264209961,0.07122911421377864,-0.1644922560463873
1658790140878882,0.8600595101853967,0.0949111161974514,-0.18487830930037363
1658790140894873,0.8747081712062252,0.08343633173113574,-0.21222247653925397
1658790140910865,0.8883802548256661,0.04388494697489875,-0.2692301823453116
1658790140926857,0.8871595330739304,0.04461738002594018,-0.3126878767071033
1658790140942848,0.8942397192339975,0.05926604104676869,-0.2926680399786372
1658790140958840,0.9101091020065617,0.09222552834363285,-0.31964599069199684
1658790140974832,0.9344014648661023,0.10870527199206492,-0.37006179903868164
1658790140990814,0.9627222095063708,0.11651789120317346,-0.4549019607843139
1658790141006806,0.9750514991989014,0.14679179064621994,-0.507515068284123
1658790141022797,0.976882581826505,0.17962920576791053,-0.5321736476691843
1658790141038789,0.970901045243,0.22015716792553608,-0.5598840314335849
1658790141054781,0.9309834439612423,0.17279316395819055,-0.5383993286030364
1658790141070772,0.8849622339208061,0.1532616159304192,-0.5318074311436636
1658790141086764,0.8637216754406039,0.15399404898146063,-0.5144731822690165
1658790141102756,0.8693369954985881,0.14203097581445068,-0.5399862668802928
1658790141118747,0.8820325017166404,0.13153276874952358,-0.5180132753490501
1658790141134739,0.8939955748836503,0.13238727397573857,-0.5177691309987029
1658790141150731,0.9093766689555203,0.16974135957885128,-0.5347371633478293
1658790141166722,0.9169451438162817,0.1604638742656599,-0.5178912031738765
1658790141182714,0.9119401846341653,0.16314946211947845,-0.5045853360799573
1658790141198706,0.9026626993209739,0.16571297779812344,-0.4901808194094759
1658790141214697,0.8964370183871218,0.13373006790264785,-0.4324406805523764
1658790141230689,0.8780041199359125,0.10516517891203137,-0.3799496452277409
1658790141246681,0.8617685206378267,0.07891966124971361,-0.3476005188067446
1658790141262673,0.8668955519951167,0.09637598229953426,-0.29413290608072007
1658790141278664,0.8686045624475467,0.10370031280994851,-0.25970855268177306
1658790141294656,0.8595712214847024,0.0936903944457157,-0.20819409475852613
1658790141310638,0.839795529106584,0.06646829938200938,-0.17291523613336368
1658790141326630,0.8146486610208283,0.048035400930800165,-0.12176699473563746
1658790141342621,0.7957274738689248,0.02679484245059882,-0.045349813076981604
1658790141358613,0.7927977416647591,0.022400244144350268,0.005554283970397478
1658790141374605,0.7841306172274356,-0.017029068436713146,0.09710841535057568
1658790141390596,0.784863050278477,-0.03399710078583951,0.17669947356374482
1658790141406588,0.7754634927901121,-0.04046692607003877,0.14630350194552566
1658790141422580,0.7801022354467078,-0.004699778744182481,0.1528953994048985
1658790141438572,0.7635004196231021,-0.022278171969176697,0.2683756771190966
1658790141454563,0.7373769741359579,-0.07940794995040834,0.40424200808728195
1658790141470555,0.7130846112764173,-0.09625391012436113,0.43744563973449324
1658790141486547,0.7191882200350959,-0.06634622720683625,0.4022888532845048
1658790141502538,0.6994125276569774,-0.07257190814068837,0.3977721828030827
1658790141518530,0.6808575570305946,-0.07098496986343195,0.5081254291599908
1658790141534522,0.6610818646524761,-0.1068741893644618,0.5673304341191727
1658790141550513,0.6516823071641111,-0.11200122072175178,0.5741664759288927
1658790141566505,0.6477759975585569,-0.11676203555352105,0.5255817502098115
1658790141582497,0.612497138933394,-0.1555809872587166,0.5757534142061491
1658790141598488,0.5901579308766305,-0.17291523613336368,0.6763408865491725
1658790141614480,0.575509269855802,-0.17022964827954512,0.7263904783703365
1658790141630462,0.5752651255054548,-0.12652780956740672,0.7019760433356224
1658790141646454,0.5568322270542456,-0.10516517891203181,0.6113984893568318
1658790141662446,0.5377889677271686,-0.12774853131914243,0.7370107576104372
1658790141678437,0.5303425650415807,-0.2146639200427254,0.9397726405737394
1658790141694429,0.5139848935683222,-0.2427405203326467,0.9590600442511636
1658790141710421,0.522285801480125,-0.21441977569237824,0.857984283207446
1658790141726412,0.5082475013351644,-0.22455176623178463,0.8083009079118026
1658790141742404,0.5010452429999237,-0.18976119630731692,0.8722667277027538
1658790141758396,0.463691157396811,-0.21344319829098968,0.98286411841001
1658790141774387,0.43903257801174966,-0.24921034561684596,1.036087586785687
1658790141790379,0.42023346303501974,-0.3024338139925229,0.99140917067216
1658790141806371,0.40094605935759553,-0.2747234302281223,0.8955825131609068
1658790141822363,0.393133440146487,-0.27570000762951086,0.9752956435492486
1658790141838354,0.3817807278553449,-0.31415274280918615,1.030960555428397
1658790141854346,0.38202487220569203,-0.2915693904020751,1.026932173647669
1658790141870338,0.36444647898069693,-0.305241474021515,1.0268101014724955
1658790141886329,0.3338063630121306,-0.32135500114442683,1.035233081559472
1658790141902321,0.3225757228961621,-0.3866636148622873,1.0868696116578924
1658790141918313,0.3174486915388721,-0.3954528114747844,1.0490272373540854
1658790141934304,0.33539330128938705,-0.3621271076523995,1.0528114747844661
1658790141950256,0.34503700312809915,-0.38007171740291446,1.1061570153353166
1658790141966248,0.3268482490272371,-0.4038757915617608,1.151567864499886
1658790141982239,0.29791714351110077,-0.4159609369039443,1.1173876554512852
1658790141998231,0.2813153276874951,-0.5174029144731822,1.1818417639429315
1658790142014223,0.25677882047760736,-0.5579308766308078,1.221515220874342
1658790142030214,0.24982070649271382,-0.535957885099565,1.2675364309147783
1658790142046206,0.2516517891203174,-0.5292439154650186,1.2879224841687646
1658790142062198,0.2965743495841915,-0.566231784542611,1.3412680247196151
1658790142078189,0.32452887769893923,-0.5967498283360038,1.3999847409781037
1658790142094181,0.32562752727550137,-0.614328221560998,1.4252536812390328
1658790142110173,0.3124437323567557,-0.6411841000991836,1.3846036469062337
1658790142126165,0.3014572365911343,-0.6964827954528117,1.3764248111696045
1658790142142156,0.3174486915388721,-0.6897688258182653,1.4077973601892122
1658790142158148,0.31097886625467286,-0.6706034943160142,1.4379491874570842
1658790142174140,0.29681849393453863,-0.6917219806210424,1.422934309910735
1658790142190131,0.2857099259937437,-0.6985580224307624,1.354695963988708
1658790142206123,0.27411306935225443,-0.7105210955977723,1.3147783627069503
1658790142222115,0.26984054322117945,-0.6663309681849392,1.295246814679179
1658790142238106,0.2763103685053787,-0.6242160677500572,1.2607003891050583
1658790142254098,0.28363469901579297,-0.600656137941558,1.218951705195697
1658790142270111,0.3141527428091857,-0.5675745784695203,1.1971007858396279
1658790142286102,0.31940184634164925,-0.555855649652857,1.19136339360647
1658790142302094,0.31683833066300426,-0.5509727626459142,1.1429007400625624
1658790142318086,0.32111085679407925,-0.5365682459754328,1.0907759212634467
1658790142334077,0.350774395361257,-0.5070267795834287,1.0799114976729989
1658790142350069,0.3683527885862512,-0.4430609597924775,1.050003814755474
1658790142366061,0.3864194705119406,-0.3710383764400702,1.0026398107881285
1658790142382053,0.40473029678797623,-0.34430457007705817,1.0012970168612192
1658790142398044,0.4070496681162741,-0.3374685282673382,0.9776150148775464
1658790142414036,0.4485542076752882,-0.32257572289616254,0.9241474021515224
1658790142430028,0.45673304341191745,-0.35199511711299314,0.910597390707256
1658790142446019,0.4595407034409096,-0.30389868009460574,0.8754406042572676
1658790142462011,0.45917448691538887,-0.2545815213244831,0.822705424582284
1658790142478003,0.47687495231555665,-0.25384908827344166,0.830395971618219
1658790142493994,0.4812695506218052,-0.2658121614404516,0.8118410009918362
1658790142509986,0.5081254291599908,-0.162294956893263,0.6774395361257346
1658790142525978,0.5292439154650186,-0.17291523613336368,0.6533913176165411
1658790142541969,0.5279011215381093,-0.19635309376668975,0.6012664988174254
1658790142557961,0.5585412375066756,-0.15802243076218803,0.5593957427328906
1658790142573953,0.5913786526283662,-0.15008773937590592,0.5434042877851528
1658790142589935,0.608224612802319,-0.16998550392919798,0.49115739681086446
1658790142605927,0.6258030060273141,-0.16705577172503228,0.421576256961929
1658790142621918,0.6382543678950183,-0.16131837949187444,0.3650568398565648
1658790142637910,0.6343480582894641,-0.15155260547798877,0.37323567559319404
1658790142653902,0.6475318532082097,-0.07684443427176335,0.3075608453498129
1658790142669893,0.6682841229877168,-0.02154573891813527,0.2200350957503625
1658790142685885,0.7024643320363166,-0.00457770656900891,0.16498054474708201
1658790142701877,0.730540932326238,-0.023010605020218122,0.10699626153963493
1658790142717868,0.7580071717402914,0.010315098802166744,0.07928587777523433
1658790142733860,0.7694819562066071,0.01239032578011745,0.07208361943999364
1658790142749852,0.7898680094605934,-0.017639429312581,0.08087281605249075
1658790142765843,0.789990081635767,-0.05535973144121442,0.023132677195391693
1658790142781835,0.819287403677424,-0.050476844434271584,0.006775005722133187
1658790142797827,0.828686961165789,-0.04864576180666802,0.013977264057373873
1658790142813819,0.8393072404058897,0.028747997253375956,-0.06500343327992697
1658790142829810,0.858838788433661,0.06854352635996008,-0.16241702906843658
1658790142845802,0.8798352025635161,0.06939803158617508,-0.24261844815747313
1658790142861794,0.8941176470588239,0.0613412680247194,-0.18268101014724936
1658790142877785,0.8970473792629896,0.06536964980544724,-0.12774853131914243
1658790142893777,0.895216296635386,0.06329442282749653,-0.13238727397573813
1658790142909729,0.9151140611886781,0.03448538948653379,-0.21930266269932108
1658790142925720,0.907179369802396,0.0022583352407110624,-0.3131761654077976
1658790142941712,0.9064469367513546,0.028259708552681673,-0.30426489662012646
1658790142957704,0.9389181353475244,0.07403677424277078,-0.30780498970016
1658790142973695,0.947585259784848,0.11163500419623062,-0.3593194476234074
1658790142989687,0.954421301594568,0.1343404287785157,-0.42755779354543355
1658790143005679,0.9729762722209507,0.15863279163805633,-0.4879835202563516
1658790143021670,0.9746852826733807,0.15509269855802277,-0.5022659647516594
1658790143037662,0.9600366216525522,0.1398336766613264,-0.5038529030289158
1658790143053654,0.9439230945296408,0.11920347905699202,-0.492133974212253
1658790143069646,0.9342793926909287,0.11322194247348705,-0.49701686121919586
1658790143085637,0.9223163195239188,0.1167620355535206,-0.4951857785915923
1658790143101629,0.8998550392919817,0.1012588693064771,-0.5363241016250857
1658790143117621,0.8843518730449382,0.0659800106813151,-0.5208209353780422
1658790143133612,0.8954604409857332,0.05926604104676869,-0.5031204699778744
1658790143149604,0.9015640497444117,0.0756237125200272,-0.47235828183413453
1658790143165596,0.9051041428244453,0.06939803158617508,-0.4728465705348288
1658790143181587,0.9004654001678496,0.06768902113374509,-0.4805371175707638
1658790143197579,0.8953383688105596,0.04522774090180803,-0.44660105287251106
1658790143213571,0.8955825131609068,0.04229800869764233,-0.41583886472877074
1658790143229583,0.8946059357595182,0.03070115205615309,-0.35748836499580383
1658790143245575,0.9043717097734039,0.04132143129625376,-0.31097886625467286
1658790143261567,0.9038834210727096,0.04718089570458517,-0.2848554207675287
1658790143277558,0.9016861219195853,0.04901197833218873,-0.2592202639810788
1658790143293550,0.8867933165484096,0.029846646829938095,-0.201968413824674
1658790143309542,0.8744640268558781,0.04852368963149445,-0.15484855420767518
1658790143325533,0.8587167162584874,0.03448538948653379,-0.08941786831464116
1658790143341525,0.8417486839093611,0.007263294422827471,-0.028137636377508102
1658790143357517,0.8308842603189133,-0.024353398947127403,0.019348439765010994
1658790143373509,0.8220950637064162,-0.04205386434729519,0.02288853284504455
1658790143389500,0.8189211871519033,-0.03607232776379021,0.07037460898756365
1658790143405492,0.8124513618677041,-0.09185931181811258,0.1923247119859619
1658790143421484,0.7923094529640649,-0.10736247806515609,0.23150988021667818
1658790143437475,0.7906004425116349,-0.09356832227054257,0.2545815213244831
1658790143453467,0.7775387197680628,-0.07086289768825837,0.2594644083314259
1658790143469459,0.7718013275349049,-0.05633630884260299,0.27362478065156015
1658790143485450,0.7643549248493171,-0.08551155870908689,0.3466239414053556
1658790143501442,0.7442130159456779,-0.08477912565804546,0.40131227588311624
1658790143517434,0.7329823758297094,-0.0800183108262762,0.4446478980697339
1658790143533425,0.7152819104295416,-0.05865568017090084,0.45050736247806533
1658790143549408,0.6931868467231252,-0.05548180361638799,0.4754100862134738
1658790143565399,0.6818341344319832,-0.09002822919050901,0.5390096894789043
1658790143581391,0.6740215152208746,-0.10357824063477539,0.5888151369497212
1658790143597383,0.6624246585793854,-0.07428091859311836,0.5862516212710762
1658790143613374,0.643747615777829,-0.03057907988097952,0.5839322499427784
1658790143629366,0.6398413061722747,-0.07977416647592905,0.6762188143739989
1658790143645358,0.6085908293278397,-0.1745021744106201,0.6813458457312889
1658790143661349,0.6156710154879068,-0.1795071335927365,0.7213855191882201
1658790143677341,0.6151827267872125,-0.1502098115510795,0.7133287556267645
1658790143693333,0.5923552300297548,-0.11786068513008319,0.7097886625467309
1658790143709324,0.5722133211261156,-0.13006790264744028,0.7761959258411535
1658790143725316,0.5364461738002593,-0.1749904631113144,0.8119630731670098
1658790143741308,0.504951552605478,-0.1832913710231172,0.8271000228885326
1658790143757300,0.5012893873502708,-0.16083009079118016,0.8322270542458226
1658790143773291,0.47223620965896096,-0.1493553063248645,0.8156252384222169
1658790143789283,0.46723125047684455,-0.18805218585488692,0.9253681239032581
1658790143805275,0.4484321355001146,-0.25763332570382236,0.9617456321049822
1658790143821266,0.44293888761730393,-0.24603646906233312,0.9335469596398873
1658790143837258,0.43024338139925256,-0.2091706721599147,0.906324864576181
1658790143853250,0.4064393072404062,-0.23651483939879459,0.9413595788509959
1658790143869232,0.37909514000152633,-0.2923018234531165,1.0047150377660792
1658790143885223,0.3621271076523991,-0.2822919050888837,0.9873807888914321
1658790143901215,0.3847104600595106,-0.2705729762722209,1.0049591821164263
1658790143917207,0.3814145113298242,-0.271671625848783,0.9818875410086214
1658790143933199,0.3692072938124662,-0.33295185778591607,1.0412146181429769
1658790143949190,0.3443045700770577,-0.4068055237659265,1.1090867475394823
1658790143965182,0.35138475623712484,-0.4298771648737314,1.183672846570535
1658790143981174,0.3428397039749749,-0.41535057602807646,1.1641412985427637
1658790143997165,0.32355230029755067,-0.3959411001754787,1.1732967116807815
1658790144013157,0.3028000305180436,-0.4142519264515143,1.2461738002594034
1658790144029149,0.2796063172350651,-0.39020370794232084,1.2650949874113069
1658790144045140,0.2717936980239566,-0.35700007629510955,1.232623788815137
1658790144061132,0.2670328831921873,-0.3698176546883345,1.261676966506447
1658790144077124,0.28754100862134724,-0.43256275272754996,1.3411459525444416
1658790144093115,0.2952315556572822,-0.5346150911726557,1.3709315632867929
1658790144109107,0.31903562981612854,-0.640207522697795,1.4318455786984057
