Timestamp (microseconds),Accel X (g),Accel Y (g),Accel Z (g)
1658790021776214,-0.17865262836652152,0.9624780651560236,0.29047074082551294
1658790021792211,-0.17816433966582723,0.9427023727779051,0.2789959563591973
1658790021808208,-0.18536659800106792,0.941603723201343,0.2805828946364537
1658790021824205,-0.18268101014724936,0.9704127565423057,0.28583199816891725
1658790021840202,-0.1867093919279772,0.9660181582360572,0.2898603799496451
1658790021856199,-0.17853055619134794,0.9436789501792937,0.29462119478141435
1658790021872196,-0.18255893797207579,0.9314717326619366,0.2923018234531165
1658790021888193,-0.19427786678873904,0.9533226520180058,0.2953536278324558
1658790021904190,-0.18512245365072078,0.9799343862058443,0.28961623559929794
1658790021920187,-0.1745021744106201,0.96919203479057,0.2944991226062408
1658790021936184,-0.18255893797207579,0.9479514763103687,0.2923018234531165
1658790021952180,-0.19171435111009405,0.9342793926909287,0.2926680399786372
1658790021968177,-0.19073777370870548,0.9425803006027316,0.2898603799496451
1658790021984174,-0.18011749446860437,0.9619897764553293,0.2835126268406194
1658790022000171,-0.18219272144655507,0.9481956206607158,0.28827344167238866
1658790022016168,-0.19330128938735047,0.9560082398718244,0.2864423590447851
1658790022032165,-0.1990386816205083,0.97602807660029,0.28656443121995867
1658790022048162,-0.1799954222934308,0.9626001373311972,0.28656443121995867
1658790022064159,-0.16302738994430443,0.9170672159914552,0.29633020523384435
1658790022080156,-0.1753566796368351,0.9198748760204474,0.2962081330586708
1658790022096161,-0.1881742580300605,0.9594262607766844,0.2926680399786372
1658790022112157,-0.19391165026321833,0.982009613183795,0.28912794689860366
1658790022128154,-0.19159227893492048,0.96406500343328,0.2926680399786372
1658790022144151,-0.18512245365072078,0.9463645380331123,0.29217975127794293
1658790022160148,-0.18927290760662263,0.9505149919890137,0.3003585870145722
1658790022176145,-0.18988326848249049,0.9707789730678265,0.30255588616769646
1658790022192142,-0.1841458762493322,0.9491721980621044,0.2974288548104065
1658790022208139,-0.18048371099412508,0.9274433508812088,0.2910811017013808
1658790022224136,-0.18793011367971335,0.9372091248950944,0.29376668955519936
1658790022240133,-0.19171435111009405,0.9632104982070651,0.2842450598916608
1658790022256130,-0.1799954222934308,0.9849393453879607,0.28534370946822296
1658790022272127,-0.1799954222934308,0.9596704051270315,0.27533379110399014
1658790022288124,-0.17816433966582723,0.9616235599298086,0.2754558632791637
1658790022304121,-0.18109407186999293,0.9776150148775464,0.30341039139391146
1658790022320118,-0.17694361791409152,0.9715114061188679,0.3158617532616157
1658790022336115,-0.18072785534447222,0.9540550850690472,0.31183337148088786
1658790022352111,-0.18609903105210934,0.9177996490424967,0.2981612878614479
1658790022368108,-0.19794003204394617,0.9104753185320824,0.30560769054703574
1658790022384105,-0.19134813458457334,0.9384298466468302,0.30438696879530003
1658790022400102,-0.18316929884794364,0.9638208590829329,0.2919356069275958
1658790022416107,-0.17975127794308365,0.9833524071107043,0.2888838025482565
1658790022432104,-0.1803616388189515,0.9723659113450829,0.3096360723277636
1658790022448101,-0.18731975280384505,0.9503929198138401,0.3136644541084914
1658790022464098,-0.18316929884794364,0.9446555275806823,0.3090257114518957
1658790022480095,-0.1749904631113144,0.9308613717860688,0.2960860608834972
1658790022496091,-0.17755397878995938,0.9346456092164495,0.30389868009460574
1658790022512088,-0.17938506141756294,0.9491721980621044,0.31061264972915215
1658790022528085,-0.17010757610437155,0.9550316624704358,0.3029221026932172
1658790022544082,-0.17084000915541298,0.9340352483405816,0.2944991226062408
1658790022560079,-0.17608911268787653,0.9427023727779051,0.28668650339513224
1658790022576076,-0.17474631876096725,0.9699244678416115,0.29791714351110077
1658790022592073,-0.17010757610437155,0.9881132219424735,0.30719462882429216
1658790022608070,-0.17059586480506583,0.9755397878995957,0.3174486915388721
1658790022624067,-0.16498054474708157,0.9430685893034259,0.3165941863126571
1658790022640064,-0.16888685435263584,0.9179217212176702,0.3098802166781107
1658790022656061,-0.18182650492103436,0.9220721751735717,0.30438696879530003
1658790022672058,-0.17804226749065366,0.9445334554055087,0.30255588616769646
1658790022688055,-0.16351567864499872,0.9514915693904022,0.2831464103150987
1658790022704052,-0.15802243076218803,0.9479514763103687,0.2788738841840237
1658790022720049,-0.1703517204547187,0.9303730830853745,0.28961623559929794
1658790022735901,-0.17352559700923154,0.9546654459449151,0.3031662470435643
1658790022751897,-0.17267109178301654,0.9610131990539408,0.31403067063401213
1658790022767893,-0.16058594644083302,0.952712291142138,0.3108567940794993
1658790022783890,-0.1660791943236437,0.9311055161364159,0.29303425650415793
1658790022799886,-0.1745021744106201,0.946730754558633,0.3125658045319293
1658790022815883,-0.16791027695124727,0.9540550850690472,0.29303425650415793
1658790022831879,-0.16791027695124727,0.9643091477836272,0.29803921568627434
1658790022847876,-0.16510261692225514,0.953566796368353,0.30634012359807716
1658790022863872,-0.16253910124361015,0.9298847943846802,0.30353246356908503
1658790022879869,-0.16791027695124727,0.9177996490424967,0.2990157930876629
1658790022895865,-0.17645532921339724,0.9405050736247809,0.2974288548104065
1658790022911862,-0.17218280308232226,0.9584496833752958,0.305241474021515
1658790022927858,-0.16839856565194156,0.9470969710841537,0.31390859845883856
1658790022943854,-0.17389181353475225,0.9279316395819031,0.31989013504234354
1658790022959851,-0.17401388570992582,0.942458228427558,0.30804913405050716
1658790022975847,-0.17108415350576012,0.9694361791409172,0.30182345311665504
1658790022991844,-0.17145037003128083,0.9689478904402229,0.30548561837186217
1658790023007840,-0.16290531776913086,0.9396505683985659,0.3058518348973829
1658790023023837,-0.1795071335927365,0.9259784847791259,0.3087815671015486
1658790023039833,-0.18890669108110192,0.9584496833752958,0.31061264972915215
1658790023055664,-0.17474631876096725,0.9678492408636608,0.3070725566491186
1658790023071660,-0.16253910124361015,0.9511253528648815,0.29840543221179505
1658790023087656,-0.16119630731670087,0.9414816510261694,0.2962081330586708
1658790023103652,-0.17425803006027296,0.9491721980621044,0.2991378652628365
1658790023119648,-0.1820706492713815,0.9663843747615779,0.30719462882429216
1658790023135644,-0.1782864118410008,0.9687037460898758,0.31012436102845786
1658790023151640,-0.1690089265278094,0.9511253528648815,0.30341039139391146
1658790023167636,-0.18060578316929865,0.933058670939193,0.30926985580224287
1658790023183632,-0.18573281452658863,0.9784695201037614,0.3087815671015486
1658790023199628,-0.16974135957885084,0.9778591592278936,0.30475318532082074
1658790023215623,-0.16302738994430443,0.9324483100633252,0.29254596780346365
1658790023231619,-0.16510261692225514,0.9163347829404138,0.28668650339513224
1658790023247615,-0.1779201953154801,0.9317158770122838,0.2976729991607536
1658790023263611,-0.18805218585488692,0.9639429312581065,0.306950484473945
1658790023279607,-0.1757228961623558,0.985427634088655,0.3015793087663079
1658790023295603,-0.16375982299534586,0.9566186007476922,0.2995040817883572
1658790023311599,-0.16681162737468513,0.928786144808118,0.2998702983138779
1658790023327595,-0.18719768062867148,0.9403830014496073,0.3096360723277636
1658790023343591,-0.1799954222934308,0.9605249103532465,0.3015793087663079
1658790023359587,-0.1770656900892651,0.9558861676966508,0.28668650339513224
1658790023375396,-0.15704585336079946,0.9340352483405816,0.27911802853437084
1658790023391391,-0.16876478217746227,0.919996948195621,0.2919356069275958
1658790023407386,-0.18475623712520006,0.9505149919890137,0.31097886625467286
1658790023423381,-0.18402380407415864,0.9687037460898758,0.3075608453498129
1658790023439376,-0.1736476691844051,0.9635767147325858,0.2982833600366215
1658790023455371,-0.16388189517051943,0.9442893110551616,0.2943770504310672
1658790023471367,-0.1812161440451665,0.940749217975128,0.3002365148393986
1658790023487362,-0.20392156862745114,0.9901884489204242,0.3158617532616157
1658790023503357,-0.19220263981078833,1.0066681925688563,0.31989013504234354
1658790023519352,-0.16510261692225514,0.971755550469215,0.2932784008545051
1658790023535347,-0.14862287327382306,0.9314717326619366,0.2947432669565879
1658790023551342,-0.15118638895246805,0.9110856794079503,0.28583199816891725
1658790023567337,-0.1724269474326694,0.9394064240482187,0.2818036163881894
1658790023583332,-0.17987335011825722,0.9534447241931794,0.2747234302281223
1658790023599327,-0.1757228961623558,0.951003280689708,0.2721599145494773
1658790023615322,-0.1698634317540244,0.9569848172732129,0.2860761425192644
1658790023631317,-0.16644541084916442,0.9546654459449151,0.2976729991607536
1658790023647312,-0.17352559700923154,0.9597924773022051,0.30304417486839075
1658790023663307,-0.17560082398718224,0.9584496833752958,0.3142748149843593
1658790023679302,-0.18146028839551365,0.9440451667048144,0.31696040283817783
1658790023695190,-0.1846341649500265,0.9486839093614101,0.32355230029755067
1658790023711185,-0.17584496833752938,0.9542992294193944,0.3158617532616157
1658790023727179,-0.17254901960784297,0.9578393224994279,0.30353246356908503
1658790023743174,-0.17315938048371082,0.949294270237278,0.30133516441596075
1658790023759168,-0.1762111848630501,0.9376974135957887,0.30438696879530003
1658790023775163,-0.17486839093614082,0.9395284962233923,0.30939192797741644
1658790023791157,-0.17401388570992582,0.945876249332418,0.3074387731746393
1658790023807152,-0.17425803006027296,0.9412375066758223,0.3079270618753336
1658790023823146,-0.18744182497901862,0.9502708476386665,0.3150072480354007
1658790023839141,-0.1799954222934308,0.9615014877546351,0.3184252689402607
1658790023855136,-0.16815442130159441,0.9496604867627987,0.30682841229877145
1658790023871130,-0.1636377508201723,0.9278095674067295,0.2926680399786372
1658790023887125,-0.17901884489204223,0.9350118257419702,0.29633020523384435
1658790023903119,-0.19012741283283763,0.9644312199588008,0.31488517586022713
1658790023919114,-0.16791027695124727,0.9617456321049822,0.30133516441596075
1658790023935108,-0.15252918287937733,0.9369649805447473,0.2797283894102387
1658790023951103,-0.15863279163805588,0.9314717326619366,0.2789959563591973
1658790023967097,-0.17438010223544653,0.9550316624704358,0.27704280155642014
1658790023983092,-0.17865262836652152,0.9817654688334478,0.2977950713359272
1658790023999086,-0.1719386587319751,0.9710231174181736,0.30341039139391146
1658790024014923,-0.16852063782711513,0.9358663309681852,0.2962081330586708
1658790024030917,-0.1808499275196458,0.9353780422674909,0.3070725566491186
1658790024046911,-0.18072785534447222,0.951857785915923,0.2985275043869686
1658790024062905,-0.17962920576791008,0.96577401388571,0.28790722514686795
1658790024078899,-0.1741359578850994,0.9671168078126193,0.2977950713359272
1658790024094893,-0.16815442130159441,0.9567406729228658,0.2905928130006865
1658790024110887,-0.1753566796368351,0.9622339208056765,0.2915693904020751
1658790024126881,-0.16595712214847014,0.9503929198138401,0.29083695735103365
1658790024142875,-0.16827649347676799,0.9234149691004809,0.28168154421301583
1658790024158869,-0.18451209277485292,0.9340352483405816,0.2915693904020751
1658790024174863,-0.1862211032272829,0.9737087052719922,0.3117112993057143
1658790024190858,-0.1741359578850994,0.9821316853589686,0.2993820096131836
1658790024206852,-0.1610742351415273,0.9506370641641873,0.28741893644617367
1658790024222846,-0.17218280308232226,0.9274433508812088,0.2926680399786372
1658790024238840,-0.1812161440451665,0.945021744106203,0.3020675974670022
1658790024254834,-0.1817044327458608,0.9673609521629665,0.30597390707255645
1658790024270828,-0.1712062256809337,0.9595483329518579,0.29169146257724865
1658790024286822,-0.16046387426565945,0.9412375066758223,0.28363469901579297
1658790024302816,-0.17682154573891795,0.9303730830853745,0.29462119478141435
1658790024318810,-0.1890287632562755,0.9624780651560236,0.3134203097581443
1658790024334686,-0.18219272144655507,0.9716334782940415,0.3091477836270693
1658790024350679,-0.17181658655680154,0.9618677042801558,0.29962615396353076
1658790024366673,-0.16351567864499872,0.9434348058289466,0.2973067826352329
1658790024382667,-0.1749904631113144,0.9318379491874573,0.3048752574959943
1658790024398660,-0.18194857709620793,0.9442893110551616,0.306950484473945
1658790024414654,-0.17022964827954512,0.9503929198138401,0.29205767910276936
1658790024430647,-0.1787747005416951,0.9246356908522166,0.277653162432288
1658790024446641,-0.18695353627832434,0.9604028381780729,0.2840009155413137
1658790024462635,-0.18634317540245648,0.9685816739147022,0.3065842679484243
1658790024478628,-0.17730983443961224,0.9470969710841537,0.31219958800640857
1658790024494622,-0.16839856565194156,0.9151140611886781,0.29462119478141435
1658790024510615,-0.18023956664377794,0.910597390707256,0.2991378652628365
1658790024526609,-0.18646524757763006,0.9678492408636608,0.3019455252918286
1658790024542603,-0.17596704051270295,0.9921416037232014,0.3057297627222093
1658790024558596,-0.16815442130159441,0.966628519111925,0.2935225452048522
1658790024574590,-0.17645532921339724,0.9429465171282523,0.2944991226062408
1658790024590583,-0.18927290760662263,0.9499046311131458,0.30975814450293715
1658790024606577,-0.1832913710231172,0.9741969939726864,0.30341039139391146
1658790024622571,-0.1770656900892651,0.978591592278935,0.29840543221179505
1658790024638564,-0.166567483024338,0.9489280537117573,0.2888838025482565
1658790024654449,-0.1736476691844051,0.9361104753185323,0.28363469901579297
1658790024670442,-0.18439002059967935,0.9536888685435265,0.2813153276874951
1658790024686435,-0.17755397878995938,0.9677271686884872,0.2766765850308994
1658790024702428,-0.1724269474326694,0.9556420233463037,0.2852216372930494
1658790024718422,-0.1795071335927365,0.9389181353475244,0.2962081330586708
1658790024734415,-0.19012741283283763,0.9445334554055087,0.3115892271305407
1658790024750408,-0.19562066071564832,0.9617456321049822,0.3087815671015486
1658790024766401,-0.18231479362172864,0.9746852826733807,0.29889372091248934
1658790024782394,-0.1736476691844051,0.9589379720759901,0.2926680399786372
1658790024798387,-0.17560082398718224,0.9473411154345008,0.3062180514229036
1658790024814380,-0.18316929884794364,0.9446555275806823,0.3007248035400929
1658790024830373,-0.18231479362172864,0.9414816510261694,0.2940108339055465
1658790024846367,-0.1782864118410008,0.9358663309681852,0.2915693904020751
1658790024862360,-0.17145037003128083,0.9333028152895402,0.29034866865033937
1658790024878353,-0.1829251544975965,0.954421301594568,0.30548561837186217
1658790024894346,-0.18316929884794364,0.9744411383230336,0.31232166018158214
1658790024910339,-0.17010757610437155,0.9574731059739072,0.30084687571526647
1658790024926332,-0.16498054474708157,0.9245136186770431,0.2886396581979094
1658790024942325,-0.18280308232242293,0.9259784847791259,0.3041428244449529
1658790024958318,-0.18646524757763006,0.9712672617685207,0.3334401464866099
1658790024974212,-0.17755397878995938,0.9813992523079271,0.3200122072175171
1658790024990205,-0.16827649347676799,0.9660181582360572,0.2981612878614479
1658790025006198,-0.16961928740367727,0.9367208361944002,0.28912794689860366
1658790025022190,-0.1703517204547187,0.9298847943846802,0.29083695735103365
1658790025038183,-0.1757228961623558,0.9425803006027316,0.2880292973220415
1658790025054175,-0.16852063782711513,0.9502708476386665,0.28925001907377723
1658790025070168,-0.16803234912642084,0.9452658884565501,0.2944991226062408
1658790025086161,-0.18390173189898507,0.945021744106203,0.2973067826352329
1658790025102153,-0.18060578316929865,0.9572289616235601,0.308659494926375
1658790025118146,-0.17596704051270295,0.9591821164263372,0.3108567940794993
1658790025134139,-0.17547875181200867,0.9575951781490808,0.30438696879530003
1658790025150131,-0.17315938048371082,0.9677271686884872,0.3029221026932172
1658790025166124,-0.1812161440451665,0.9562523842221715,0.30975814450293715
1658790025182117,-0.1817044327458608,0.9579613946746015,0.30890363927672215
1658790025198109,-0.17022964827954512,0.9479514763103687,0.2977950713359272
1658790025214102,-0.16644541084916442,0.9282978561074238,0.27862973983367656
1658790025230095,-0.1753566796368351,0.939040207522698,0.28632028686961153
1658790025246087,-0.17816433966582723,0.9500267032883194,0.29462119478141435
1658790025262080,-0.17596704051270295,0.9532005798428322,0.2947432669565879
1658790025278072,-0.17022964827954512,0.9568627450980394,0.30341039139391146
1658790025293945,-0.165712977798123,0.9456321049820708,0.29840543221179505
1658790025309937,-0.16534676127260228,0.9406271457999544,0.3014572365911343
1658790025325929,-0.16888685435263584,0.9457541771572444,0.3058518348973829
1658790025341921,-0.1727931639581901,0.9486839093614101,0.29681849393453863
1658790025357914,-0.16827649347676799,0.9516136415655758,0.2890058747234301
1658790025373906,-0.17096208133058655,0.9529564354924851,0.2969405661097122
1658790025389898,-0.17206073090714868,0.9563744563973451,0.2927901121538108
1658790025405890,-0.16644541084916442,0.9485618371862365,0.30048065918974576
1658790025421882,-0.16644541084916442,0.9225604638742659,0.2990157930876629
1658790025437874,-0.1745021744106201,0.9292744335088123,0.3081712062256807
1658790025453867,-0.17486839093614082,0.9436789501792937,0.31818112458991354
1658790025469859,-0.1837796597238115,0.9557640955214772,0.3087815671015486
1658790025485851,-0.17596704051270295,0.9813992523079271,0.3158617532616157
1658790025501843,-0.17022964827954512,0.9723659113450829,0.30853742275120144
1658790025517835,-0.16534676127260228,0.9468528267338066,0.30597390707255645
1658790025533827,-0.1745021744106201,0.9350118257419702,0.2991378652628365
1658790025549820,-0.18280308232242293,0.9427023727779051,0.3028000305180436
1658790025565812,-0.1870756084534979,0.9617456321049822,0.29669642175936506
1658790025581804,-0.1795071335927365,0.9689478904402229,0.28876173037308295
1658790025597796,-0.17853055619134794,0.9490501258869308,0.2974288548104065
1658790025613708,-0.1762111848630501,0.9420920119020373,0.3067063401235979
1658790025629700,-0.18182650492103436,0.9417257953765166,0.31781490806439283
1658790025645692,-0.1841458762493322,0.9643091477836272,0.31122301060502
1658790025661685,-0.17230487525749583,0.966628519111925,0.2943770504310672
1658790025677677,-0.16766613260090013,0.944167238879988,0.29291218432898436
1658790025693669,-0.18451209277485292,0.9380636301213094,0.30011444266422505
1658790025709661,-0.1885404745555812,0.9654077973601893,0.30426489662012646
1658790025725653,-0.18426794842450578,0.9574731059739072,0.30646219577325073
1658790025741645,-0.17206073090714868,0.9429465171282523,0.2962081330586708
1658790025757638,-0.16766613260090013,0.9292744335088123,0.2926680399786372
1658790025773630,-0.17108415350576012,0.9423361562523844,0.30096894789044004
1658790025789622,-0.16998550392919798,0.9516136415655758,0.2985275043869686
1658790025805614,-0.17938506141756294,0.9577172503242544,0.2910811017013808
1658790025821606,-0.18426794842450578,0.9663843747615779,0.29974822613870433
1658790025837598,-0.17047379262989226,0.9578393224994279,0.3041428244449529
1658790025853591,-0.17425803006027296,0.9324483100633252,0.30475318532082074
1658790025869583,-0.17596704051270295,0.9411154345006487,0.2932784008545051
1658790025885575,-0.17486839093614082,0.9590600442511636,0.2935225452048522
1658790025901567,-0.17206073090714868,0.96577401388571,0.2998702983138779
1658790025917559,-0.17084000915541298,0.9466086823834594,0.29877164873731576
1658790025933502,-0.17438010223544653,0.9389181353475244,0.29376668955519936
1658790025949494,-0.17730983443961224,0.9431906614785994,0.2982833600366215
1658790025965485,-0.17779812314030652,0.9431906614785994,0.3074387731746393
1658790025981477,-0.17694361791409152,0.9551537346456094,0.31024643320363143
1658790025997469,-0.18023956664377794,0.9583276112001222,0.34247348744945416
1658790026013460,-0.18072785534447222,0.9541771572442208,0.3170824750133514
1658790026029452,-0.18609903105210934,0.9788357366292821,0.30133516441596075
1658790026045444,-0.19330128938735047,0.9881132219424735,0.2973067826352329
1658790026061435,-0.17462424658579367,0.99140917067216,0.2952315556572822
1658790026077427,-0.1552147707331959,0.9574731059739072,0.28876173037308295
1658790026093419,-0.1576562142366673,0.9274433508812088,0.27399099717708086
1658790026109410,-0.1817044327458608,0.9387960631723509,0.28839551384756223
1658790026125402,-0.18182650492103436,0.9604028381780729,0.28168154421301583
1658790026141394,-0.17022964827954512,0.9368429083695737,0.2735027084763866
1658790026157385,-0.16815442130159441,0.9271992065308616,0.2888838025482565
1658790026173377,-0.17010757610437155,0.9306172274357216,0.306950484473945
1658790026189369,-0.17901884489204223,0.9594262607766844,0.30939192797741644
1658790026205361,-0.17486839093614082,0.9521019302662701,0.30939192797741644
1658790026221352,-0.16559090562294942,0.933913176165408,0.31476310368505356
1658790026237344,-0.17096208133058655,0.9311055161364159,0.3347829404135192
1658790026253234,-0.17425803006027296,0.9553978789959565,0.33295185778591563
1658790026269226,-0.16937514305333012,0.9652857251850158,0.3128099488822764
1658790026285217,-0.164003967345693,0.9584496833752958,0.3012130922407872
1658790026301208,-0.16705577172503228,0.933913176165408,0.305241474021515
1658790026317199,-0.17975127794308365,0.9247577630273902,0.3157396810864421
1658790026333191,-0.18243686579690221,0.942458228427558,0.3125658045319293
1658790026349182,-0.16766613260090013,0.9496604867627987,0.3023117418173493
1658790026365173,-0.16119630731670087,0.9308613717860688,0.30475318532082074
1658790026381164,-0.17267109178301654,0.9358663309681852,0.32233157854581496
1658790026397155,-0.1808499275196458,0.9577172503242544,0.3192797741664757
1658790026413147,-0.17938506141756294,0.9792019531548029,0.3153734645609214
1658790026429138,-0.17181658655680154,0.9661402304112308,0.31390859845883856
1658790026445129,-0.1703517204547187,0.9341573205157552,0.3053635461966886
1658790026461120,-0.16913099870298298,0.9391622796978716,0.3224536507209885
1658790026477111,-0.17511253528648796,0.951857785915923,0.30060273136491933
1658790026493103,-0.17682154573891795,0.9636987869077593,0.2974288548104065
1658790026509094,-0.16754406042572656,0.9528343633173115,0.30096894789044004
1658790026525085,-0.16791027695124727,0.9186541542687117,0.3158617532616157
1658790026541076,-0.17303730830853725,0.916578927290761,0.31354238193331785
1658790026557067,-0.17926298924238937,0.9346456092164495,0.31012436102845786
1658790026572998,-0.1820706492713815,0.9636987869077593,0.30463111314564717
1658790026588989,-0.18109407186999293,0.9771267261768521,0.30463111314564717
1658790026604980,-0.17462424658579367,0.9757839322499429,0.3074387731746393
1658790026620971,-0.1727931639581901,0.9451438162813766,0.30353246356908503
1658790026636963,-0.1799954222934308,0.9345235370412759,0.30926985580224287
1658790026652954,-0.1837796597238115,0.9318379491874573,0.30926985580224287
1658790026668945,-0.1757228961623558,0.9568627450980394,0.3014572365911343
1658790026684936,-0.16424811169604014,0.9551537346456094,0.29083695735103365
1658790026700927,-0.17474631876096725,0.9438010223544673,0.28839551384756223
1658790026716919,-0.18182650492103436,0.9365987640192266,0.30511940184634145
1658790026732910,-0.1862211032272829,0.9411154345006487,0.3107347219043257
1658790026748901,-0.18097199969481936,0.9623559929808501,0.3062180514229036
1658790026764892,-0.17352559700923154,0.9816433966582743,0.29718471046005934
1658790026780883,-0.17096208133058655,0.9617456321049822,0.29755092698558006
1658790026796875,-0.17560082398718224,0.9500267032883194,0.3136644541084914
1658790026812866,-0.18158236057068722,0.9346456092164495,0.30634012359807716
1658790026828857,-0.18439002059967935,0.9488059815365837,0.29962615396353076
1658790026844848,-0.17730983443961224,0.9701686121919586,0.2974288548104065
1658790026860839,-0.17352559700923154,0.9630884260318915,0.29974822613870433
1658790026876831,-0.17889677271686866,0.9563744563973451,0.30011444266422505
1658790026892730,-0.18243686579690221,0.9562523842221715,0.29413290608072007
1658790026908721,-0.17376974135957868,0.9517357137407494,0.29169146257724865
1658790026924712,-0.17340352483405796,0.9495384145876251,0.2927901121538108
1658790026940703,-0.17511253528648796,0.9525902189669644,0.2981612878614479
1658790026956693,-0.1770656900892651,0.9455100328068973,0.29791714351110077
1658790026972684,-0.1928130006866562,0.945876249332418,0.30511940184634145
1658790026988675,-0.1893949797817962,0.9295185778591595,0.30096894789044004
1658790027004665,-0.17633325703822367,0.9340352483405816,0.2960860608834972
1658790027020656,-0.17755397878995938,0.9590600442511636,0.3062180514229036
1658790027036647,-0.17315938048371082,0.9925078202487221,0.3010910200656136
1658790027052638,-0.17047379262989226,0.9810330357824064,0.2872968642710001
1658790027068628,-0.1690089265278094,0.952712291142138,0.2886396581979094
1658790027084619,-0.1774319066147858,0.9290302891584652,0.29755092698558006
1658790027100610,-0.18048371099412508,0.9298847943846802,0.30597390707255645
1658790027116601,-0.17511253528648796,0.9406271457999544,0.29681849393453863
1658790027132591,-0.1703517204547187,0.9511253528648815,0.28925001907377723
1658790027148582,-0.17340352483405796,0.9586938277256429,0.2969405661097122
1658790027164573,-0.17108415350576012,0.9529564354924851,0.30597390707255645
1658790027180564,-0.16510261692225514,0.9383077744716566,0.30304417486839075
1658790027196554,-0.1762111848630501,0.9309834439612423,0.30426489662012646
1658790027212463,-0.1890287632562755,0.9569848172732129,0.30731670099946573
1658790027228454,-0.1779201953154801,0.964919508659495,0.31818112458991354
1658790027244444,-0.17145037003128083,0.944167238879988,0.30768291752498644
1658790027260435,-0.16388189517051943,0.9540550850690472,0.3065842679484243
1658790027276426,-0.17511253528648796,0.9457541771572444,0.2999923704890515
1658790027292417,-0.18524452582589435,0.9445334554055087,0.30731670099946573
1658790027308407,-0.17401388570992582,0.9284199282825973,0.2977950713359272
1658790027324398,-0.17352559700923154,0.9278095674067295,0.29755092698558006
1658790027340389,-0.17718776226443866,0.9442893110551616,0.3070725566491186
1658790027356380,-0.17975127794308365,0.9680933852140079,0.3108567940794993
1658790027372370,-0.17730983443961224,0.9655298695353629,0.2909590295262072
1658790027388361,-0.17352559700923154,0.970046540016785,0.2804608224612801
1658790027404352,-0.17254901960784297,0.9606469825284201,0.2915693904020751
1658790027420343,-0.17962920576791008,0.9516136415655758,0.2962081330586708
1658790027436333,-0.1741359578850994,0.9466086823834594,0.30560769054703574
1658790027452324,-0.17816433966582723,0.9474631876096744,0.3002365148393986
1658790027468315,-0.17584496833752938,0.9529564354924851,0.29803921568627434
1658790027484305,-0.17901884489204223,0.9541771572442208,0.2991378652628365
1658790027500296,-0.1829251544975965,0.9538109407187001,0.3041428244449529
1658790027516287,-0.17608911268787653,0.9412375066758223,0.29803921568627434
1658790027532226,-0.17694361791409152,0.9478294041351951,0.29498741130693507
1658790027548216,-0.18109407186999293,0.9507591363393608,0.29340047302967864
1658790027564207,-0.18390173189898507,0.9539330128938737,0.3053635461966886
1658790027580197,-0.17901884489204223,0.9519798580910965,0.30182345311665504
1658790027596187,-0.17584496833752938,0.9481956206607158,0.2938887617303729
1658790027612177,-0.1669336995498587,0.9353780422674909,0.29755092698558006
1658790027628168,-0.18072785534447222,0.9480735484855423,0.29254596780346365
1658790027644158,-0.17511253528648796,0.9716334782940415,0.30804913405050716
1658790027660148,-0.1749904631113144,0.953566796368353,0.3048752574959943
1658790027676139,-0.1782864118410008,0.9365987640192266,0.29498741130693507
1658790027692129,-0.18048371099412508,0.9473411154345008,0.29974822613870433
1658790027708119,-0.18475623712520006,0.9516136415655758,0.3024338139925229
1658790027724109,-0.17730983443961224,0.96577401388571,0.3019455252918286
1658790027740100,-0.16888685435263584,0.9739528496223393,0.29596398870832363
1658790027756090,-0.16620126649881728,0.9423361562523844,0.29718471046005934
1658790027772080,-0.18219272144655507,0.9270771343556881,0.2953536278324558
1658790027788070,-0.18011749446860437,0.9447775997558558,0.2973067826352329
1658790027804061,-0.1715724422064544,0.9540550850690472,0.2935225452048522
1658790027820051,-0.1741359578850994,0.9596704051270315,0.2860761425192644
1658790027836041,-0.1876859693293662,0.9711451895933472,0.30634012359807716
1658790027851989,-0.19208056763561476,0.9718776226443886,0.31476310368505356
1658790027867980,-0.17767605096513295,0.9488059815365837,0.30768291752498644
1658790027883970,-0.17206073090714868,0.9239032578011752,0.29217975127794293
1658790027899960,-0.17022964827954512,0.9234149691004809,0.28827344167238866
1658790027915950,-0.18951705195696977,0.951003280689708,0.2952315556572822
1658790027931941,-0.1890287632562755,0.97261005569543,0.2932784008545051
1658790027947931,-0.18146028839551365,0.9643091477836272,0.2923018234531165
1658790027963921,-0.17047379262989226,0.940749217975128,0.2981612878614479
1658790027979911,-0.1741359578850994,0.9352559700923173,0.29669642175936506
1658790027995902,-0.18695353627832434,0.9590600442511636,0.3010910200656136
1658790028011892,-0.1870756084534979,0.96748302433814,0.3020675974670022
1658790028027882,-0.18451209277485292,0.9568627450980394,0.30011444266422505
1658790028043872,-0.17669947356374438,0.9346456092164495,0.2982833600366215
1658790028059863,-0.17523460746166153,0.9331807431143666,0.29340047302967864
1658790028075853,-0.17962920576791008,0.9572289616235601,0.2885175860227358
1658790028091843,-0.1812161440451665,0.9695582513160907,0.2923018234531165
1658790028107833,-0.17547875181200867,0.9632104982070651,0.2999923704890515
1658790028123824,-0.17047379262989226,0.9362325474937059,0.29217975127794293
1658790028139814,-0.18243686579690221,0.9280537117570766,0.28656443121995867
1658790028155804,-0.1876859693293662,0.9466086823834594,0.29376668955519936
1658790028171753,-0.18573281452658863,0.9571068894483865,0.2924238956282901
1658790028187742,-0.17987335011825722,0.9572289616235601,0.2885175860227358
1658790028203732,-0.18011749446860437,0.9427023727779051,0.30890363927672215
1658790028219722,-0.18194857709620793,0.9477073319600215,0.3053635461966886
1658790028235712,-0.18719768062867148,0.9759060044251164,0.3062180514229036
1658790028251701,-0.18695353627832434,0.9940947585259785,0.3087815671015486
1658790028267691,-0.18219272144655507,0.9718776226443886,0.30218966964217575
1658790028283681,-0.17938506141756294,0.9384298466468302,0.28583199816891725
1658790028299671,-0.18597695887693577,0.9301289387350273,0.2868085755703058
1658790028315661,-0.19159227893492048,0.9422140840772109,0.29034866865033937
1658790028331650,-0.18182650492103436,0.9607690547035936,0.2890058747234301
1658790028347640,-0.17962920576791008,0.9590600442511636,0.2886396581979094
1658790028363630,-0.17560082398718224,0.9499046311131458,0.2905928130006865
1658790028379620,-0.18219272144655507,0.9308613717860688,0.29681849393453863
1658790028395609,-0.19122606240939977,0.9456321049820708,0.2872968642710001
1658790028411599,-0.1812161440451665,0.9722438391699093,0.29169146257724865
1658790028427589,-0.17608911268787653,0.9594262607766844,0.30182345311665504
1658790028443579,-0.1779201953154801,0.9365987640192266,0.2880292973220415
1658790028459569,-0.19085984588387905,0.9561303120469979,0.28168154421301583
1658790028475558,-0.18597695887693577,0.9694361791409172,0.2877851529716944
1658790028491485,-0.17352559700923154,0.951003280689708,0.2831464103150987
1658790028507475,-0.16583504997329657,0.9314717326619366,0.2864423590447851
1658790028523465,-0.1715724422064544,0.9218280308232245,0.2775310902571144
1658790028539455,-0.18341344319829078,0.939894712748913,0.25763332570382236
1658790028555444,-0.19708552681773117,0.9621118486305029,0.2781414511329823
1658790028571434,-0.19256885633630905,0.9511253528648815,0.29962615396353076
1658790028587424,-0.1867093919279772,0.942458228427558,0.3014572365911343
1658790028603414,-0.18695353627832434,0.9665064469367515,0.30926985580224287
1658790028619403,-0.18683146410315077,0.9771267261768521,0.3090257114518957
1658790028635393,-0.17608911268787653,0.9796902418554971,0.29413290608072007
1658790028651383,-0.17645532921339724,0.9638208590829329,0.28961623559929794
1658790028667373,-0.1837796597238115,0.9478294041351951,0.281071183337148
1658790028683363,-0.1906157015335319,0.9503929198138401,0.27777523460746156
1658790028699352,-0.19012741283283763,0.9500267032883194,0.2763103685053787
1658790028715342,-0.1850003814755472,0.952712291142138,0.2763103685053787
1658790028731332,-0.18011749446860437,0.9529564354924851,0.2840009155413137
1658790028747322,-0.19159227893492048,0.9539330128938737,0.29132524605172794
1658790028763311,-0.1978179598687726,0.96748302433814,0.2985275043869686
1658790028779301,-0.1881742580300605,0.9564965285725187,0.2924238956282901
1658790028795291,-0.1906157015335319,0.9506370641641873,0.28290226596475154
1658790028811248,-0.19073777370870548,0.9621118486305029,0.2877851529716944
1658790028827238,-0.19305714503700333,0.9646753643091479,0.2897383077744715
1658790028843227,-0.18146028839551365,0.9602807660028994,0.28876173037308295
1658790028859216,-0.1707179369802394,0.9336690318150609,0.2747234302281223
1658790028875206,-0.17718776226443866,0.9352559700923173,0.27570000762951086
1658790028891195,-0.1820706492713815,0.9619897764553293,0.29047074082551294
1658790028907184,-0.19012741283283763,0.96919203479057,0.29681849393453863
1658790028923174,-0.17669947356374438,0.9529564354924851,0.2847333485923551
1658790028939163,-0.17523460746166153,0.9245136186770431,0.2850995651178758
1658790028955152,-0.1829251544975965,0.9418478675516901,0.28448920424200796
1658790028971141,-0.17975127794308365,0.9752956435492486,0.28961623559929794
1658790028987131,-0.1770656900892651,0.9710231174181736,0.2918135347524222
1658790029003120,-0.17132829785610726,0.9281757839322502,0.2796063172350651
1658790029019109,-0.18023956664377794,0.9119401846341653,0.28253604943923083
1658790029035099,-0.1881742580300605,0.9352559700923173,0.2944991226062408
1658790029051088,-0.18390173189898507,0.9646753643091479,0.29217975127794293
1658790029067077,-0.17926298924238937,0.9641870756084536,0.2969405661097122
1658790029083067,-0.17853055619134794,0.9524681467917908,0.2914473182269015
1658790029099056,-0.19098191805905262,0.9556420233463037,0.30255588616769646
1658790029115045,-0.19012741283283763,0.9652857251850158,0.31219958800640857
1658790029130981,-0.1850003814755472,0.9413595788509959,0.29376668955519936
1658790029146970,-0.17315938048371082,0.9414816510261694,0.2857099259937437
1658790029162960,-0.18316929884794364,0.9439230945296408,0.2752117189288166
1658790029178949,-0.1940337224383919,0.9772487983520257,0.2919356069275958
1658790029194938,-0.1854886701762415,0.9864042114900435,0.29755092698558006
1658790029210928,-0.1779201953154801,0.9575951781490808,0.2860761425192644
1658790029226917,-0.1782864118410008,0.9254901960784316,0.3002365148393986
1658790029242906,-0.1940337224383919,0.9284199282825973,0.30731670099946573
1658790029258895,-0.19000534065766406,0.9593041886015108,0.29925993743801005
1658790029274885,-0.18841840238040763,0.9693141069657436,0.2881513694972151
1658790029290874,-0.1820706492713815,0.9721217669947357,0.2809491111619744
1658790029306863,-0.18658731975280363,0.9521019302662701,0.28754100862134724
1658790029322853,-0.19427786678873904,0.9599145494773786,0.2986495765621422
1658790029338842,-0.18719768062867148,0.9419699397268637,0.3045090409704736
1658790029354831,-0.17938506141756294,0.9187762264438852,0.29633020523384435
1658790029370821,-0.1832913710231172,0.9289082169832916,0.30011444266422505
1658790029386810,-0.19244678416113548,0.9617456321049822,0.2872968642710001
1658790029402799,-0.19366750591287119,0.9889677271686885,0.28998245212481866
1658790029418789,-0.18353551537346435,0.9774929427023729,0.2893720912489508
1658790029434778,-0.17682154573891795,0.9341573205157552,0.2953536278324558
1658790029450744,-0.18475623712520006,0.9167009994659345,0.2976729991607536
1658790029466734,-0.19159227893492048,0.9422140840772109,0.30609597924773
1658790029482723,-0.18487830930037363,0.9586938277256429,0.3014572365911343
1658790029498712,-0.18390173189898507,0.9634546425574122,0.29376668955519936
1658790029514701,-0.18390173189898507,0.9682154573891815,0.29010452429999223
1658790029530691,-0.17853055619134794,0.9584496833752958,0.2902265964751658
1658790029546680,-0.17767605096513295,0.9480735484855423,0.29718471046005934
1658790029562669,-0.17584496833752938,0.9442893110551616,0.29340047302967864
1658790029578659,-0.1870756084534979,0.9466086823834594,0.29047074082551294
1658790029594648,-0.1893949797817962,0.9690699626153965,0.28961623559929794
1658790029610637,-0.17608911268787653,0.9595483329518579,0.2907148851758601
1658790029626627,-0.17682154573891795,0.937331197070268,0.28632028686961153
1658790029642616,-0.18341344319829078,0.9386739909971773,0.30133516441596075
1658790029658605,-0.19415579461356547,0.9591821164263372,0.29974822613870433
1658790029674595,-0.1829251544975965,0.9650415808346686,0.30609597924773
1658790029690584,-0.17633325703822367,0.9455100328068973,0.30511940184634145
1658790029706573,-0.1779201953154801,0.953566796368353,0.31464103150988
1658790029722562,-0.1870756084534979,0.9790798809796293,0.3032883192187379
1658790029738552,-0.18609903105210934,0.9783474479285879,0.3053635461966886
1658790029754541,-0.17547875181200867,0.9418478675516901,0.2944991226062408
1658790029770477,-0.17682154573891795,0.916578927290761,0.2931563286793315
1658790029786466,-0.19098191805905262,0.9362325474937059,0.30084687571526647
1658790029802455,-0.18756389715419264,0.9586938277256429,0.3012130922407872
1658790029818443,-0.17669947356374438,0.9453879606317237,0.2965743495841915
1658790029834432,-0.1669336995498587,0.9245136186770431,0.2974288548104065
1658790029850421,-0.17938506141756294,0.9229266803997866,0.3124437323567557
1658790029866410,-0.18439002059967935,0.9502708476386665,0.3157396810864421
1658790029882399,-0.17584496833752938,0.973464560921645,0.308659494926375
1658790029898388,-0.17315938048371082,0.9545433737697415,0.2977950713359272
1658790029914376,-0.16925307087815655,0.942458228427558,0.30475318532082074
1658790029930365,-0.17352559700923154,0.9325703822384988,0.30719462882429216
1658790029946354,-0.17376974135957868,0.9351338979171437,0.31732661936369855
1658790029962343,-0.17755397878995938,0.9394064240482187,0.30768291752498644
1658790029978332,-0.17926298924238937,0.9486839093614101,0.3142748149843593
1658790029994320,-0.17645532921339724,0.9521019302662701,0.31061264972915215
1658790030010309,-0.16632333867399085,0.9457541771572444,0.3002365148393986
1658790030026298,-0.17291523613336368,0.9264667734798202,0.30218966964217575
1658790030042287,-0.18243686579690221,0.9403830014496073,0.3024338139925229
1658790030058276,-0.18243686579690221,0.9555199511711301,0.3082932784008543
1658790030074265,-0.17840848401617437,0.9678492408636608,0.30060273136491933
1658790030090271,-0.17315938048371082,0.9545433737697415,0.2991378652628365
1658790030106259,-0.1732814526588844,0.9346456092164495,0.29840543221179505
1658790030122248,-0.18280308232242293,0.9418478675516901,0.30560769054703574
1658790030138237,-0.17547875181200867,0.9474631876096744,0.3040207522697793
1658790030154226,-0.1829251544975965,0.9539330128938737,0.29803921568627434
1658790030170215,-0.18793011367971335,0.9629663538567179,0.2998702983138779
1658790030186204,-0.1841458762493322,0.9512474250400551,0.30267795834287003
1658790030202192,-0.1902494850080112,0.9549095902952622,0.3074387731746393
1658790030218181,-0.1829251544975965,0.9586938277256429,0.2981612878614479
1658790030234170,-0.1749904631113144,0.9500267032883194,0.29340047302967864
1658790030250159,-0.1867093919279772,0.9406271457999544,0.30096894789044004
1658790030266148,-0.19562066071564832,0.9562523842221715,0.3107347219043257
1658790030282137,-0.18561074235141506,0.9654077973601893,0.3029221026932172
1658790030298125,-0.18573281452658863,0.9679713130388343,0.29596398870832363
1658790030314114,-0.17938506141756294,0.9673609521629665,0.28912794689860366
1658790030330103,-0.18158236057068722,0.949294270237278,0.29291218432898436
1658790030346092,-0.18536659800106792,0.9529564354924851,0.31403067063401213
1658790030362081,-0.18756389715419264,0.9549095902952622,0.3158617532616157
1658790030378070,-0.18060578316929865,0.9508812085145344,0.3036545357442586
1658790030394058,-0.17486839093614082,0.941603723201343,0.2894941634241244
1658790030410034,-0.19000534065766406,0.9370870527199209,0.3031662470435643
1658790030426023,-0.18634317540245648,0.9610131990539408,0.3200122072175171
1658790030442011,-0.18304722667277007,0.9536888685435265,0.31464103150988
1658790030458000,-0.17486839093614082,0.950148775463493,0.30475318532082074
1658790030473989,-0.17096208133058655,0.9370870527199209,0.30133516441596075
1658790030489978,-0.17389181353475225,0.9257343404287788,0.312077515831235
1658790030505967,-0.18841840238040763,0.9384298466468302,0.3233081559472035
1658790030521956,-0.19159227893492048,0.9656519417105365,0.3136644541084914
1658790030537944,-0.1753566796368351,0.98115510795758,0.31769283588921926
1658790030553933,-0.17389181353475225,0.9562523842221715,0.313786526283665
1658790030569922,-0.18072785534447222,0.9400167849240866,0.3041428244449529
1658790030585911,-0.17694361791409152,0.9386739909971773,0.30341039139391146
1658790030601900,-0.1712062256809337,0.9261005569542995,0.3098802166781107
1658790030617889,-0.16888685435263584,0.931349660486763,0.31110093842984643
1658790030633877,-0.17962920576791008,0.9285420004577709,0.31390859845883856
1658790030649866,-0.1817044327458608,0.9375753414206152,0.31134508278019357
1658790030665855,-0.17804226749065366,0.9409933623254751,0.3058518348973829
1658790030681844,-0.17022964827954512,0.9516136415655758,0.2999923704890515
1658790030697833,-0.16632333867399085,0.9619897764553293,0.30731670099946573
1658790030713822,-0.17206073090714868,0.9575951781490808,0.3170824750133514
1658790030729766,-0.17853055619134794,0.9361104753185323,0.31439688715953285
1658790030745755,-0.17840848401617437,0.937331197070268,0.3134203097581443
1658790030761744,-0.17218280308232226,0.9303730830853745,0.3003585870145722
1658790030777733,-0.1765774013885708,0.9470969710841537,0.3040207522697793
1658790030793722,-0.17694361791409152,0.9626001373311972,0.32367437247272424
1658790030809711,-0.17511253528648796,0.9414816510261694,0.3125658045319293
1658790030825699,-0.17584496833752938,0.9362325474937059,0.31232166018158214
1658790030841688,-0.1787747005416951,0.9474631876096744,0.3098802166781107
1658790030857677,-0.1690089265278094,0.9562523842221715,0.3037766079194322
1658790030873666,-0.17315938048371082,0.949294270237278,0.30426489662012646
1658790030889655,-0.1820706492713815,0.945021744106203,0.3082932784008543
1658790030905644,-0.1820706492713815,0.951857785915923,0.30939192797741644
1658790030921632,-0.1749904631113144,0.9593041886015108,0.3040207522697793
1658790030937621,-0.1724269474326694,0.9555199511711301,0.2998702983138779
1658790030953610,-0.1782864118410008,0.9386739909971773,0.3070725566491186
1658790030969599,-0.18133821622034008,0.9489280537117573,0.3125658045319293
1658790030985588,-0.17926298924238937,0.9403830014496073,0.30804913405050716
1658790031001577,-0.18023956664377794,0.9428244449530787,0.2952315556572822
1658790031017565,-0.17938506141756294,0.954421301594568,0.2957198443579765
1658790031033554,-0.18158236057068722,0.9507591363393608,0.3048752574959943
1658790031049530,-0.18951705195696977,0.953566796368353,0.3031662470435643
1658790031065518,-0.17865262836652152,0.9567406729228658,0.3100022888532843
1658790031081507,-0.17938506141756294,0.9499046311131458,0.3115892271305407
1658790031097496,-0.18182650492103436,0.9500267032883194,0.31146715495536714
1658790031113485,-0.18426794842450578,0.9555199511711301,0.31183337148088786
1658790031129474,-0.17669947356374438,0.9503929198138401,0.3032883192187379
1658790031145463,-0.17340352483405796,0.9459983215075916,0.29303425650415793
1658790031161451,-0.17889677271686866,0.9311055161364159,0.30060273136491933
1658790031177440,-0.19855039291981402,0.9469748989089801,0.31317616540779714
1658790031193429,-0.19134813458457334,0.9844510566872664,0.32111085679407925
1658790031209418,-0.17645532921339724,0.9771267261768521,0.31390859845883856
1658790031225407,-0.17181658655680154,0.9574731059739072,0.31219958800640857
1658790031241396,-0.17462424658579367,0.9315938048371102,0.3075608453498129
1658790031257384,-0.19037155718318477,0.9419699397268637,0.3087815671015486
1658790031273373,-0.18841840238040763,0.9549095902952622,0.3128099488822764
1658790031289362,-0.17962920576791008,0.9563744563973451,0.30304417486839075
1658790031305351,-0.1774319066147858,0.9457541771572444,0.30597390707255645
1658790031321340,-0.1817044327458608,0.9457541771572444,0.2965743495841915
1658790031337329,-0.18255893797207579,0.9486839093614101,0.312077515831235
1658790031353317,-0.1795071335927365,0.9420920119020373,0.3003585870145722
1658790031369262,-0.17352559700923154,0.9391622796978716,0.3087815671015486
1658790031385251,-0.17926298924238937,0.9350118257419702,0.3125658045319293
1658790031401239,-0.1799954222934308,0.9380636301213094,0.3040207522697793
1658790031417227,-0.17596704051270295,0.9384298466468302,0.30048065918974576
1658790031433216,-0.16974135957885084,0.9483176928358894,0.29034866865033937
1658790031449204,-0.1707179369802394,0.9344014648661023,0.3040207522697793
1658790031465192,-0.17608911268787653,0.9444113832303351,0.31464103150988
1658790031481181,-0.1779201953154801,0.9440451667048144,0.31598382543678927
1658790031497169,-0.18658731975280363,0.9367208361944002,0.3048752574959943
1658790031513157,-0.17682154573891795,0.9588158999008165,0.30463111314564717
1658790031529146,-0.17523460746166153,0.9713893339436943,0.30682841229877145
1658790031545134,-0.17474631876096725,0.9612573434042879,0.3108567940794993
1658790031561123,-0.1774319066147858,0.9464866102082858,0.30463111314564717
1658790031577111,-0.17694361791409152,0.9256122682536052,0.29840543221179505
1658790031593099,-0.1799954222934308,0.9121843289845124,0.3019455252918286
1658790031609088,-0.18878461890592835,0.9368429083695737,0.30731670099946573
1658790031625076,-0.18988326848249049,0.9756618600747693,0.3074387731746393
1658790031641064,-0.1820706492713815,0.9716334782940415,0.30939192797741644
1658790031657053,-0.17975127794308365,0.953566796368353,0.3074387731746393
1658790031673041,-0.1820706492713815,0.9376974135957887,0.30853742275120144
1658790031689026,-0.18805218585488692,0.947585259784848,0.3075608453498129
1658790031705014,-0.18536659800106792,0.9606469825284201,0.3070725566491186
1658790031721002,-0.18194857709620793,0.9584496833752958,0.30438696879530003
1658790031736991,-0.18072785534447222,0.944167238879988,0.30389868009460574
1658790031752979,-0.18744182497901862,0.9431906614785994,0.3037766079194322
1658790031768967,-0.18963912413214334,0.9539330128938737,0.31097886625467286
1658790031784956,-0.1906157015335319,0.9643091477836272,0.30719462882429216
1658790031800944,-0.17853055619134794,0.9547875181200887,0.30597390707255645
1658790031816932,-0.17975127794308365,0.9434348058289466,0.3053635461966886
1658790031832921,-0.19305714503700333,0.9503929198138401,0.3096360723277636
1658790031848909,-0.18573281452658863,0.9594262607766844,0.3053635461966886
1658790031864897,-0.17901884489204223,0.9457541771572444,0.2969405661097122
1658790031880886,-0.18146028839551365,0.9263447013046466,0.3023117418173493
1658790031896874,-0.19073777370870548,0.9387960631723509,0.3090257114518957
1658790031912862,-0.1854886701762415,0.9534447241931794,0.31061264972915215
1658790031928851,-0.18597695887693577,0.952712291142138,0.3012130922407872
1658790031944839,-0.1850003814755472,0.955275806820783,0.30609597924773
1658790031960827,-0.18219272144655507,0.9525902189669644,0.3117112993057143
1658790031976816,-0.18109407186999293,0.9473411154345008,0.31134508278019357
1658790031992804,-0.18023956664377794,0.9311055161364159,0.2976729991607536
1658790032008758,-0.1837796597238115,0.9385519188220037,0.29840543221179505
1658790032024747,-0.1846341649500265,0.9575951781490808,0.30426489662012646
1658790032040735,-0.1749904631113144,0.9579613946746015,0.3041428244449529
1658790032056723,-0.1724269474326694,0.9392843518730452,0.30475318532082074
1658790032072712,-0.18048371099412508,0.9403830014496073,0.2935225452048522
1658790032088700,-0.18243686579690221,0.9534447241931794,0.3020675974670022
1658790032104688,-0.1820706492713815,0.9532005798428322,0.3142748149843593
1658790032120677,-0.1854886701762415,0.9480735484855423,0.30682841229877145
1658790032136665,-0.18780804150453978,0.9621118486305029,0.3067063401235979
1658790032152653,-0.17926298924238937,0.9516136415655758,0.3049973296711679
1658790032168642,-0.17206073090714868,0.9352559700923173,0.29755092698558006
1658790032184630,-0.18097199969481936,0.918287937743191,0.30463111314564717
1658790032200618,-0.19745174334325188,0.9397726405737394,0.305241474021515
1658790032216607,-0.18988326848249049,0.9646753643091479,0.3134203097581443
1658790032232595,-0.1808499275196458,0.9639429312581065,0.3058518348973829
1658790032248583,-0.1732814526588844,0.950148775463493,0.29803921568627434
1658790032264572,-0.18268101014724936,0.948439765011063,0.31525139238574784
1658790032280560,-0.18915083543144906,0.9412375066758223,0.3074387731746393
1658790032296548,-0.18561074235141506,0.9479514763103687,0.30426489662012646
1658790032312537,-0.1841458762493322,0.9512474250400551,0.3012130922407872
1658790032328521,-0.18573281452658863,0.9618677042801558,0.3019455252918286
1658790032344510,-0.19171435111009405,0.9632104982070651,0.3175707637140457
1658790032360498,-0.18841840238040763,0.9494163424124515,0.30682841229877145
1658790032376486,-0.17816433966582723,0.9342793926909287,0.3036545357442586
1658790032392475,-0.17181658655680154,0.9231708247501338,0.2952315556572822
1658790032408463,-0.18268101014724936,0.9401388570992602,0.30951400015259
1658790032424451,-0.18793011367971335,0.9712672617685207,0.30804913405050716
1658790032440440,-0.18219272144655507,0.9733424887464714,0.3003585870145722
1658790032456428,-0.1745021744106201,0.9367208361944002,0.2976729991607536
1658790032472417,-0.17938506141756294,0.9043717097734039,0.30048065918974576
1658790032488405,-0.19891660944533474,0.9429465171282523,0.31940184634164925
1658790032504393,-0.19586480506599546,0.9815213244831007,0.3234302281223771
1658790032520382,-0.17804226749065366,0.9567406729228658,0.31024643320363143
1658790032536370,-0.16766613260090013,0.9204852368963152,0.29254596780346365
1658790032552358,-0.17645532921339724,0.9079118028534374,0.30011444266422505
1658790032568347,-0.19378957808804476,0.951003280689708,0.3057297627222093
1658790032584335,-0.18963912413214334,0.9875028610666057,0.31525139238574784
1658790032600323,-0.18219272144655507,0.9452658884565501,0.29962615396353076
1658790032616312,-0.18072785534447222,0.929640650034333,0.30511940184634145
1658790032632300,-0.18487830930037363,0.9472190432593273,0.3125658045319293
1658790032648285,-0.18878461890592835,0.9578393224994279,0.30768291752498644
1658790032664273,-0.18561074235141506,0.9639429312581065,0.30426489662012646
1658790032680261,-0.18060578316929865,0.9457541771572444,0.2938887617303729
1658790032696250,-0.17865262836652152,0.9333028152895402,0.2835126268406194
1658790032712238,-0.19171435111009405,0.9378194857709623,0.3057297627222093
1658790032728226,-0.19977111467154973,0.9626001373311972,0.3081712062256807
1658790032744215,-0.18658731975280363,0.9643091477836272,0.30682841229877145
1658790032760203,-0.1795071335927365,0.9496604867627987,0.3062180514229036
1658790032776191,-0.1846341649500265,0.9429465171282523,0.3065842679484243
1658790032792180,-0.19635309376668975,0.9583276112001222,0.30682841229877145
1658790032808168,-0.19378957808804476,0.9701686121919586,0.3075608453498129
1658790032824156,-0.1795071335927365,0.947585259784848,0.2977950713359272
1658790032840145,-0.1698634317540244,0.9237811856260016,0.29498741130693507
1658790032856133,-0.18841840238040763,0.9350118257419702,0.30389868009460574
1658790032872121,-0.1965972381170369,0.9712672617685207,0.3117112993057143
1658790032888110,-0.19122606240939977,0.9599145494773786,0.3096360723277636
1658790032904098,-0.1817044327458608,0.9372091248950944,0.3020675974670022
1658790032920086,-0.17853055619134794,0.9232928969253074,0.3003585870145722
1658790032936075,-0.19342336156252404,0.9579613946746015,0.3091477836270693
1658790032952063,-0.19366750591287119,0.9793240253299764,0.30304417486839075
1658790032968017,-0.1862211032272829,0.9546654459449151,0.3007248035400929
1658790032984005,-0.17254901960784297,0.906324864576181,0.2977950713359272
1658790032999993,-0.18695353627832434,0.908888380254826,0.308659494926375
1658790033015981,-0.1948882276646069,0.9630884260318915,0.30426489662012646
1658790033031969,-0.1858548867017622,0.9892118715190357,0.3048752574959943
1658790033047957,-0.17767605096513295,0.9497825589379723,0.30096894789044004
1658790033063944,-0.18231479362172864,0.9276874952315559,0.30463111314564717
1658790033079932,-0.1940337224383919,0.9486839093614101,0.31317616540779714
1658790033095920,-0.18402380407415864,0.9604028381780729,0.3040207522697793
1658790033111908,-0.17840848401617437,0.9494163424124515,0.2962081330586708
1658790033127896,-0.1787747005416951,0.9419699397268637,0.2955977721828029
1658790033143884,-0.18829633020523406,0.9348897535667966,0.3041428244449529
1658790033159872,-0.19037155718318477,0.945021744106203,0.2991378652628365
1658790033175860,-0.19134813458457334,0.953566796368353,0.3024338139925229
1658790033191847,-0.19159227893492048,0.951003280689708,0.3029221026932172
1658790033207835,-0.1940337224383919,0.9512474250400551,0.3074387731746393
1658790033223823,-0.19134813458457334,0.9547875181200887,0.3040207522697793
1658790033239811,-0.18146028839551365,0.9542992294193944,0.2936446173800258
1658790033255799,-0.17218280308232226,0.936476691844053,0.2932784008545051
1658790033271787,-0.19220263981078833,0.9438010223544673,0.3075608453498129
1658790033287750,-0.19037155718318477,0.9546654459449151,0.30780498970016
1658790033303738,-0.1850003814755472,0.9516136415655758,0.2993820096131836
1658790033319726,-0.18365758754863792,0.9293965056839859,0.3049973296711679
1658790033335713,-0.19256885633630905,0.9428244449530787,0.3091477836270693
1658790033351701,-0.19342336156252404,0.9647974364843215,0.31134508278019357
1658790033367689,-0.18609903105210934,0.9601586938277258,0.3012130922407872
1658790033383677,-0.17901884489204223,0.947585259784848,0.3041428244449529
1658790033399665,-0.18597695887693577,0.9203631647211417,0.3002365148393986
1658790033415653,-0.20343327992675686,0.9438010223544673,0.3057297627222093
1658790033431641,-0.1961089494163426,0.9728542000457772,0.31512932021057427
1658790033447629,-0.1902494850080112,0.9574731059739072,0.31122301060502
1658790033463616,-0.18194857709620793,0.9351338979171437,0.3029221026932172
1658790033479604,-0.1832913710231172,0.9384298466468302,0.3019455252918286
1658790033495592,-0.18951705195696977,0.9569848172732129,0.3087815671015486
1658790033511580,-0.19562066071564832,0.9529564354924851,0.3082932784008543
1658790033527568,-0.19537651636530118,0.9636987869077593,0.3141527428091857
1658790033543556,-0.18878461890592835,0.9655298695353629,0.305241474021515
1658790033559544,-0.17694361791409152,0.9569848172732129,0.2991378652628365
1658790033575532,-0.18023956664377794,0.9406271457999544,0.30634012359807716
1658790033591519,-0.1969634546425576,0.9429465171282523,0.31232166018158214
1658790033607483,-0.18976119630731692,0.9447775997558558,0.31122301060502
1658790033623470,-0.18866254673075478,0.9479514763103687,0.3024338139925229
1658790033639458,-0.18487830930037363,0.9605249103532465,0.30926985580224287
1658790033655446,-0.18780804150453978,0.964919508659495,0.3165941863126571
1658790033671434,-0.18866254673075478,0.9795681696803236,0.31781490806439283
1658790033687422,-0.18231479362172864,0.9562523842221715,0.3117112993057143
1658790033703410,-0.17938506141756294,0.938185702296483,0.3087815671015486
1658790033719398,-0.19171435111009405,0.9315938048371102,0.32269779507133567
1658790033735386,-0.19513237201495404,0.9740749217975129,0.32281986724650924
1658790033751373,-0.17865262836652152,0.9883573662928207,0.3049973296711679
1658790033767361,-0.16302738994430443,0.9647974364843215,0.2877851529716944
1658790033783349,-0.1607080186160066,0.9295185778591595,0.2969405661097122
1658790033799337,-0.18280308232242293,0.9395284962233923,0.31769283588921926
1658790033815325,-0.18878461890592835,0.988845654993515,0.32489509422445995
1658790033831313,-0.1787747005416951,0.9992217898832685,0.31647211413748355
1658790033847301,-0.1694972152285037,0.9684596017395286,0.3104905775539786
1658790033863289,-0.16632333867399085,0.9575951781490808,0.3134203097581443
1658790033879276,-0.16266117341878372,0.9738307774471657,0.31683833066300426
1658790033895264,-0.15582513160906375,0.9879911497673,0.31696040283817783
1658790033911252,-0.1636377508201723,0.9831082627603571,0.3157396810864421
1658790033927246,-0.16351567864499872,0.9776150148775464,0.31390859845883856
1658790033943234,-0.1555809872587166,0.9727321278706036,0.3158617532616157
1658790033959221,-0.13946746013580524,0.9638208590829329,0.3090257114518957
1658790033975209,-0.12640573739223315,0.9712672617685207,0.30353246356908503
1658790033991197,-0.1328755626764324,0.9665064469367515,0.3049973296711679
1658790034007185,-0.13910124361028453,0.9761501487754636,0.31268787670710285
1658790034023173,-0.1333638513771267,0.9831082627603571,0.3015793087663079
1658790034039161,-0.13006790264744028,0.9853055619134814,0.2995040817883572
1658790034055149,-0.12811474784466315,0.9898222323949035,0.3153734645609214
1658790034071137,-0.12249942778667888,0.9662623025864043,0.32611581597619566
1658790034087124,-0.10626382848859395,0.9586938277256429,0.31525139238574784
1658790034103112,-0.10699626153963537,0.9782253757534143,0.313786526283665
1658790034119100,-0.10724040588998252,0.9953154802777142,0.31696040283817783
1658790034135088,-0.10699626153963537,0.987136644541085,0.3233081559472035
1658790034151076,-0.09784084840161755,0.9936064698252842,0.3242847333485921
1658790034167064,-0.07208361943999408,0.9877470054169528,0.31122301060502
1658790034183052,-0.060975051499198685,0.9770046540016786,0.28925001907377723
1658790034199040,-0.05877775234607441,0.9718776226443886,0.3019455252918286
1658790034215027,-0.058533607995727266,0.9886015106431678,0.3029221026932172
1658790034231015,-0.046570534828717314,0.9972686350804914,0.3079270618753336
1658790034247009,-0.03326466773479808,0.9761501487754636,0.3136644541084914
1658790034262997,-0.02264438849469741,0.948439765011063,0.3179369802395664
1658790034278985,-0.03326466773479808,0.9539330128938737,0.308659494926375
1658790034294973,-0.03265430685893023,0.9920195315480278,0.3285572594796671
1658790034310960,-0.013855191882200302,0.9938506141756314,0.32745860990310494
1658790034326948,-0.006408789196612474,0.9655298695353629,0.3418631265735863
1658790034342936,-0.0021362630655374915,0.9806668192568857,0.3308766308079649
1658790034358924,0.014099336232547444,0.9934843976501107,0.3297779812314028
1658790034374912,0.029968719005111666,1.007034409094377,0.3411306935225449
1658790034390900,0.0432745860990309,0.9721217669947357,0.3402761882963299
1658790034406888,0.03607232776379021,0.9599145494773786,0.3355153734645606
1658790034422876,0.04254215304798947,0.9850614175631343,0.3334401464866099
1658790034438863,0.058533607995727266,0.9737087052719922,0.3363698786907756
1658790034454851,0.09271381704432713,0.9568627450980394,0.3284351873044935
1658790034470839,0.0949111161974514,0.9470969710841537,0.32867933165484065
1658790034486827,0.07635614557106862,0.9936064698252842,0.34882124055847985
1658790034502815,0.08770885786221072,1.0149691004806591,0.3480888075074384
1658790034518803,0.14337376974135996,0.9704127565423057,0.3222095063706414
1658790034534791,0.17145037003128127,0.930495155260548,0.3389333943694206
1658790034550778,0.12945754177157287,0.9508812085145344,0.35590142671854696
1658790034566742,0.11688410772869418,0.9782253757534143,0.3497978179598684
1658790034582729,0.1608300907911806,0.9672388799877929,0.32990005340657635
1658790034598717,0.20514229037918685,0.9307392996108952,0.33417257953765134
1658790034614705,0.20758373388265827,0.9158464942397195,0.3440604257267106
1658790034630693,0.1852445258258948,0.9599145494773786,0.35260547798886055
1658790034646681,0.19720759899290474,0.9385519188220037,0.3375906004425113
1658790034662669,0.2439612420843824,0.9115739681086446,0.3502861066605627
1658790034678657,0.2548256656748302,0.8556649118791482,0.37897306782635276
1658790034694645,0.22882429236285962,0.8999771114671553,0.3795834287022206
1658790034710632,0.22247653925383393,0.9817654688334478,0.38117036697947704
1658790034726620,0.26739909971770803,0.9237811856260016,0.3814145113298242
1658790034742608,0.317204547188525,0.854566262302586,0.3676203555352098
1658790034758596,0.3247730220492864,0.9032730601968417,0.38910505836575915
1658790034774584,0.3200122072175171,0.9240253299763488,0.3793392843518735
1658790034790572,0.3552910658426791,0.8990005340657667,0.3667658503089948
1658790034806560,0.3889829861905856,0.8120851453421833,0.3825131609063863
1658790034822548,0.3743343251697562,0.7981689173723963,0.36810864423590406
1658790034838535,0.35773250934615053,0.8421149004348818,0.3384451056687263
1658790034854523,0.37067215991454905,0.8913099870298318,0.32233157854581496
1658790034870511,0.3757991912718399,0.8856946669718475,0.39203479056992485
1658790034886505,0.4022888532845048,0.821850919356069,0.4044861524376291
1658790034902493,0.4564888990615703,0.7960936903944456,0.3771419851987492
1658790034918480,0.46845197222858026,0.8206301976043333,0.36517891203173836
1658790034934468,0.4683299000534067,0.8238040741588462,0.3506523231860834
1658790034950456,0.4707713435568781,0.8413824673838404,0.39923704890516554
1658790034966444,0.46637674525062955,0.8484626535439075,0.4346379797055011
1658790034982432,0.525703822384985,0.8063477531090255,0.3585870145723655
1658790034998420,0.5993133440146483,0.7554436560616464,0.27777523460746156
1658790035014408,0.5484092469672692,0.7293202105745022,0.29633020523384435
1658790035030396,0.47565423056382095,0.74702067597467,0.37531090257114563
1658790035046383,0.5081254291599908,0.7208972304875259,0.35931944762340695
1658790035062371,0.5976043335622183,0.7045395590142673,0.2918135347524222
1658790035078359,0.6256809338521405,0.6701152056153203,0.2788738841840237
1658790035094347,0.5629358358129242,0.6398413061722747,0.3527275501640341
1658790035110335,0.5120317387655451,0.7105210955977723,0.4108339055466548
1658790035126323,0.53168535896849,0.7718013275349049,0.40961318379491907
1658790035142311,0.6160372320134275,0.7824216067750056,0.3762874799725342
1658790035158299,0.7069810025177388,0.6538796063172354,0.3599298084992748
1658790035174286,0.7216296635385673,0.570382238498512,0.34088654917219774
1658790035190274,0.6361791409170676,0.6530251010910204,0.3738460364690619
1658790035206237,0.5696498054474706,0.744457160296025,0.424139772640574
1658790035222225,0.6330052643625548,0.7022201876859695,0.3851987487602049
1658790035238213,0.7447013046463722,0.5706263828488591,0.31232166018158214
1658790035254201,0.7294422827496758,0.4968947890440223,0.31512932021057427
1658790035270189,0.6635233081559475,0.5519493400473028,0.3510185397116041
1658790035286177,0.6387426565957126,0.6605935759517818,0.39618524452582626
1658790035302165,0.6789044022278174,0.645456626230259,0.3851987487602049
1658790035318153,0.7603265430685893,0.5202105745021743,0.3566338597695884
1658790035334140,0.7999999999999998,0.3952086671244377,0.34247348744945416
1658790035350128,0.7548332951857786,0.4931105516136416,0.35504692149233197
1658790035366116,0.6885481040665296,0.6828107118333717,0.39288929579613985
1658790035382104,0.6970931563286795,0.6715800717174032,0.39411001754787556
1658790035398092,0.7870603494316013,0.5094682230869001,0.37409018081940903
1658790035414080,0.8206301976043333,0.38190280003051846,0.38617532616159345
1658790035430068,0.7575188830395971,0.4341496910048068,0.3843442435339899
1658790035446056,0.7364003967345694,0.5499961852445256,0.37018387121385476
1658790035462043,0.7727779049362935,0.5718471046005948,0.3469901579308763
1658790035478031,0.7980468451972227,0.46552224002441456,0.345647364003967
1658790035494019,0.7838864728770885,0.428412298771649,0.388006408789197
1658790035510007,0.7276112001220723,0.5288776989394979,0.4166933699549862
1658790035526001,0.7218738078889144,0.5857633325703819,0.41058976119630763
1658790035541988,0.7956054016937513,0.48688487067978947,0.37445639734492975
1658790035557976,0.8617685206378267,0.3591973754482334,0.3788509956511792
1658790035573964,0.8178225375753412,0.3317311360341799,0.40924696726939835
1658790035589952,0.7409170672159915,0.4544136720836196,0.4480659189745939
1658790035605940,0.7383535515373465,0.5474326695658807,0.4506294346532389
1658790035621928,0.7996337834744791,0.5353475242236971,0.41254291599908477
1658790035637916,0.8411383230334932,0.43817807278553467,0.4136415655756469
1658790035653904,0.8542000457770653,0.3392996108949413,0.426703288319219
1658790035669891,0.8257572289616233,0.3621271076523991,0.43366140230411254
1658790035685879,0.7999999999999998,0.43622491798275753,0.4204776073853669
1658790035701867,0.8280766002899211,0.44037537193865894,0.38483253223468417
1658790035717855,0.8794689860379954,0.35846494239719195,0.3750667582207985
1658790035733843,0.8634775310902567,0.35053025101090984,0.3980163271534298
1658790035749831,0.8037842374303805,0.4229190508888383,0.4199893186846726
1658790035765819,0.822705424582284,0.38788433661402344,0.4270695048447397
1658790035781807,0.900343327992676,0.25348287174792095,0.38483253223468417
1658790035797794,0.9041275654230567,0.19208056763561476,0.36945143816281334
1658790035813782,0.8671396963454638,0.2780193789578087,0.36823071641107763
1658790035829770,0.8644541084916453,0.33405050736247777,0.35638971541924125
1658790035845733,0.8869153887235832,0.31561760891126855,0.32745860990310494
1658790035861721,0.8382085908293275,0.3317311360341799,0.351628900587472
1658790035877709,0.8009765774013884,0.35431448844129054,0.4007019150072484
1658790035893697,0.8531013962005032,0.3058518348973829,0.39826047150377697
1658790035909685,0.9201190203707945,0.21429770351720467,0.3745784695201033
1658790035925673,0.9119401846341653,0.23736934462500958,0.393987945372702
1658790035941661,0.8811779964904254,0.2833905546654458,0.42572671091783043
1658790035957648,0.8921644922560468,0.2738689250019073,0.394842450598917
1658790035973636,0.9202410925459681,0.21283283741512182,0.3825131609063863
1658790035989624,0.9173113603418024,0.1931792172121769,0.38153658350499775
1658790036005612,0.8894789044022282,0.21490806439307253,0.3981383993286034
1658790036021600,0.878736552986954,0.21063553826199755,0.38190280003051846
1658790036037588,0.8976577401388575,0.18194857709620837,0.36688792248416835
1658790036053576,0.9064469367513546,0.12469672693980272,0.3583428702220184
1658790036069563,0.9081559472037846,0.08966201266498786,0.3688410772869455
1658790036085551,0.8837415121690704,0.132265201800565,0.38153658350499775
1658790036101539,0.8710460059510181,0.1582665751125356,0.37946135652704704
1658790036117527,0.9213397421225302,0.12249942778667844,0.3583428702220184
1658790036133515,0.9474631876096744,0.0852674143587393,0.3642023346303498
1658790036149503,0.8999771114671553,0.11432059205004919,0.3833676661326013
1658790036165496,0.877882047760739,0.17535667963683554,0.4043640802624555
1658790036181484,0.9153582055390252,0.16778820477607415,0.39166857404440414
1658790036197472,0.9585717555504694,0.061097123674372256,0.38702983138780844
1658790036213460,0.9506370641641873,-0.027649347676813818,0.39447623407339627
1658790036229448,0.9154802777141988,-0.020447089341573133,0.41095597772182835
1658790036245436,0.8998550392919817,0.10431067368581637,0.4072938124666212
1658790036261424,0.8850843060959797,0.18280308232242337,0.37689784084840205
1658790036277412,0.919142442969406,0.12945754177157287,0.344792858777752
1658790036293399,0.9435568780041201,0.00457770656900891,0.35980773632410123
1658790036309387,0.9274433508812088,-0.0762340733958955,0.39081406881818914
1658790036325375,0.9027847714961474,-0.023010605020218122,0.41815823605706903
1658790036341363,0.8882581826504925,0.06170748455024011,0.4091248950942248
1658790036357351,0.8964370183871218,0.06207370107576082,0.38031586175326204
1658790036373339,0.9120622568093388,0.005065995269703194,0.3784847791256585
1658790036389327,0.9109636072327767,-0.018493934538795997,0.38788433661402344
1658790036405315,0.9429465171282523,-0.02154573891813527,0.4003356984817277
1658790036421302,0.9412375066758223,0.02911421377889667,0.41095597772182835
1658790036437290,0.896925307087816,0.046570534828717314,0.4221866178377969
1658790036453278,0.8957045853360803,0.007263294422827471,0.4262149996185247
1658790036469266,0.9340352483405816,-0.08026245517662334,0.41010147249561335
1658790036485260,0.9119401846341653,-0.08404669260700404,0.4195010299839783
1658790036501248,0.8833752956435497,-0.018493934538795997,0.43573662928206325
1658790036517235,0.8948500801098653,0.02545204852368954,0.4396429388876175
1658790036533223,0.9242694743266959,-0.012756542305638163,0.42780193789578114
1658790036549211,0.9213397421225302,-0.055848020141908705,0.4186465247577633
1658790036565199,0.9223163195239188,-0.07855344472419334,0.420721751735714
1658790036581187,0.946730754558633,-0.08905165178912045,0.4093690394445719
1658790036597175,0.9383077744716566,-0.1047989623865111,0.40167849240863696
1658790036613163,0.9073014419775696,-0.10138094148165111,0.39667353322652055
1658790036629150,0.8958266575112539,-0.08819714656290545,0.4061951628900591
1658790036645138,0.8917982757305261,-0.07843137254901977,0.4007019150072484
1658790036661126,0.8930189974822618,-0.09857328145265898,0.4086366063935305
1658790036677114,0.8913099870298318,-0.1380025940337224,0.4132753490501262
1658790036693102,0.8938735027084768,-0.16388189517051943,0.43695735103379896
1658790036709090,0.908888380254826,-0.1724269474326694,0.4509956511787596
1658790036725078,0.9135271229114217,-0.16498054474708157,0.44379339284351893
1658790036741066,0.8997329671168082,-0.14581521324483093,0.43195239185168255
1658790036757053,0.8844739452201118,-0.11956969558251318,0.43060959792477327
1658790036773041,0.8834973678187232,-0.09210345616845972,0.44452582589456036
1658790036789029,0.8976577401388575,-0.09784084840161755,0.43610284580758396
1658790036804992,0.9108415350576031,-0.15509269855802232,0.4186465247577633
1658790036820980,0.9052262149996189,-0.16852063782711513,0.4184023804074162
1658790036836967,0.8961928740367746,-0.13604943923094526,0.430121309224079
1658790036852954,0.8906996261539639,-0.10211337453269254,0.424139772640574
1658790036868942,0.9026626993209739,-0.10138094148165111,0.421576256961929
1658790036884929,0.8982681010147253,-0.094300755321584,0.40924696726939835
1658790036900917,0.8963149462119482,-0.09100480659189758,0.4036316472114141
1658790036916904,0.896925307087816,-0.07098496986343195,0.4107118333714812
1658790036932891,0.9047379262989246,-0.04693675135423803,0.42487220569161543
1658790036948879,0.9104753185320824,-0.04876783398184159,0.43109788662546755
1658790036964866,0.9223163195239188,-0.053772793163958,0.4115663385976962
1658790036980854,0.9253681239032581,-0.062439917601281536,0.39545281147478484
1658790036996841,0.9193865873197531,-0.06353856717784412,0.4022888532845048
1658790037012828,0.9049820706492717,-0.04229800869764233,0.4079041733424891
1658790037028816,0.8996108949416346,-0.02801556420233453,0.41718165865568047
1658790037044803,0.902906843671321,-0.011902037079423167,0.40204470893415767
1658790037060791,0.9207293812466624,-0.013488975356679589,0.4108339055466548
1658790037076778,0.9173113603418024,-0.02532997634851597,0.41303120469977905
1658790037092765,0.9005874723430232,-0.030945296406500233,0.4169375143053333
1658790037108753,0.9044937819485774,-0.00836194399938961,0.42438391699092115
1658790037124755,0.9027847714961474,0.02032501716639956,0.4262149996185247
1658790037140743,0.8998550392919817,0.03692683299000521,0.4022888532845048
1658790037156731,0.8858167391470211,0.038879987792782345,0.39118028534370985
1658790037172719,0.8878919661249718,0.04193179217212162,0.392278934920272
1658790037188707,0.8797131303883425,0.05609216449225585,0.4065613794155798
1658790037204695,0.875318532082094,0.07684443427176291,0.4289005874723433
1658790037220683,0.9010757610437174,0.06585793850614152,0.41644922560463904
1658790037236671,0.9120622568093388,0.05218585488670158,0.39996948195620696
1658790037252658,0.8865491721980625,0.08892957961394643,0.3850766765850313
1658790037268646,0.8767833981841768,0.17364766918440555,0.38104829480430347
1658790037284634,0.8900892652780961,0.2276035706111239,0.3898374914168006
1658790037300622,0.8872816052491039,0.21075761043717112,0.3994811932555127
1658790037316610,0.8771496147096975,0.17865262836652196,0.4119325551232169
1658790037332598,0.8809338521400782,0.18695353627832478,0.3804379339284356
1658790037348586,0.8744640268558781,0.24835584039063097,0.37482261387045046
1658790037364574,0.8727550164034481,0.30609597924773,0.3620050354772255
1658790037380561,0.8592050049591817,0.31989013504234354,0.3642023346303498
1658790037396549,0.8563973449301896,0.3153734645609214,0.37653162432288134
1658790037412537,0.881300068665599,0.29584191653315006,0.3574883649958034
1658790037428525,0.8662851911192488,0.3242847333485921,0.3604180971999691
1658790037444488,0.8557869840543217,0.35516899366750554,0.38495460440985774
1658790037460476,0.8855725947966739,0.37067215991454905,0.3649347676813912
1658790037476463,0.9013199053940646,0.31891355764095497,0.34760051880674414
1658790037492450,0.8577401388570989,0.32025635156786425,0.3607843137254898
1658790037508438,0.7910887312123291,0.4379339284351875,0.37946135652704704
1658790037524425,0.8191653315022505,0.4695506218051424,0.3712825207904169
1658790037540413,0.8798352025635161,0.396551461051347,0.3224536507209885
1658790037556400,0.8637216754406039,0.3714045929655905,0.3268482490272371
1658790037572387,0.8030518043793391,0.4330510414282447,0.3714045929655905
1658790037588375,0.7960936903944456,0.4883497367818723,0.3554131380178527
1658790037604362,0.8332036316472111,0.45331502250705746,0.33282978561074206
1658790037620350,0.8529793240253296,0.40302128633554624,0.32489509422445995
1658790037636337,0.8075684748607612,0.45416952773327246,0.3322194247348742
1658790037652324,0.7374990463111315,0.5541466392004271,0.39118028534370985
1658790037668312,0.751293202105745,0.5404745555809871,0.40167849240863696
1658790037684299,0.8297856107423511,0.43915465018692323,0.3788509956511792
1658790037700286,0.8401617456321047,0.384588387884337,0.34930952925917413
1658790037716274,0.7667963683527885,0.5018997482261387,0.3604180971999691
1658790037732261,0.7105210955977723,0.6384985122453655,0.4057068741893648
1658790037748249,0.7425040054932479,0.6237277790493625,0.3776302738994435
1658790037764251,0.8145265888456548,0.5047074082551308,0.3549248493171584
1658790037780239,0.7671625848783092,0.495551995117113,0.3809262226291299
1658790037796226,0.6931868467231252,0.5620813305867092,0.4116884107728698
1658790037812214,0.7287098496986344,0.592843518730449,0.37824063477531134
1658790037828201,0.7721675440604256,0.5905241474021512,0.350774395361257
1658790037844188,0.7257801174944687,0.6212863355458911,0.4052185854886705
1658790037860176,0.7226062409399558,0.5835660334172577,0.39911497672999197
1658790037876163,0.7672846570534828,0.5451132982375828,0.3623712520027462
1658790037892151,0.7345693141069658,0.5740444037537191,0.37323567559319404
1658790037908138,0.6688944838635846,0.6602273594262611,0.3927672236209663
1658790037924125,0.6697489890897996,0.6907454032196538,0.3867856870374613
1658790037940113,0.7205310139620051,0.6474097810330361,0.35638971541924125
1658790037956100,0.7456778820477608,0.5611047531853206,0.3565117875944148
1658790037972087,0.7019760433356224,0.5922331578545812,0.37494468604562403
1658790037988075,0.6321507591363398,0.6937972075989931,0.4032654306858934
1658790038004062,0.6380102235446712,0.7265125505455101,0.39069199664301557
1658790038020050,0.7147936217288473,0.6317845426108191,0.35968566414892766
1658790038036037,0.7184557869840544,0.5658655680170899,0.35553521019302625
1658790038052024,0.6509498741130697,0.6317845426108191,0.3876401922636763
1658790038068012,0.6063935301747154,0.7067368581673916,0.4002136263065541
1658790038083984,0.6359349965667205,0.7150377660791944,0.36346990157930836
1658790038099971,0.6706034943160146,0.6586404211490047,0.3545586327916377
1658790038115959,0.6426489662012669,0.659128709849699,0.39533073929961127
1658790038131946,0.5985809109636069,0.7178454261081866,0.41266498817425834
1658790038147934,0.603097581445029,0.7321278706034944,0.39203479056992485
1658790038163921,0.6502174410620283,0.6734111543450068,0.36017395284962195
1658790038179908,0.6566872663462275,0.6613260090028232,0.34540321965361986
1658790038195896,0.6149385824368654,0.7223620965896087,0.3676203555352098
1658790038211883,0.5554894331273363,0.7738765545128556,0.38654154268711416
1658790038227871,0.5702601663233384,0.7718013275349049,0.3834897383077749
1658790038243858,0.6391088731212333,0.7031967650873581,0.3609063859006634
1658790038259845,0.6605935759517818,0.6430151827267876,0.34161898222323916
1658790038275833,0.6209201190203704,0.6787823300526439,0.32440680552376566
1658790038291820,0.5377889677271686,0.7825436789501792,0.3659113450827798
1658790038307808,0.4986037994964523,0.8485847257190811,0.40961318379491907
1658790038323795,0.5659876401922634,0.7890135042343784,0.38397802700846917
1658790038339782,0.6415503166247047,0.6830548561837189,0.33966582742046203
1658790038355770,0.6017547875181197,0.6870832379644467,0.35211718928816627
1658790038371757,0.5221637293049515,0.7747310597390706,0.3726253147173262
1658790038387745,0.5170366979476615,0.8483405813687339,0.38690775921263487
1658790038403747,0.565255207141222,0.7923094529640649,0.37018387121385476
1658790038419735,0.595407034409094,0.7179674982833602,0.32990005340657635
1658790038435722,0.5582970931563285,0.7426260776684215,0.33368429083695705
1658790038451709,0.48566414892805376,0.8360112916762032,0.3830014496070806
1658790038467697,0.46222629129472814,0.8402838178072782,0.3743343251697562
1658790038483684,0.5236285954070343,0.8039063096055541,0.3373464560921642
1658790038499672,0.5714808880750741,0.7522697795071336,0.3250171663996335
1658790038515659,0.5346150911726557,0.7571526665140764,0.34796673533226485
1658790038531646,0.47345693141069667,0.8093995574883648,0.3690852216372926
1658790038547634,0.4573434042877853,0.8367437247272447,0.35516899366750554
1658790038563621,0.4934767681391623,0.819287403677424,0.3544365606164641
1658790038579609,0.5289997711146714,0.7730220492866406,0.3368581673914699
1658790038595596,0.52143129625391,0.7558098725871671,0.3165941863126571
1658790038611583,0.4843213550011445,0.8262455176623176,0.31219958800640857
1658790038627571,0.4384222171358818,0.9062027924010074,0.3624933241779198
1658790038643558,0.44879835202563534,0.872510872053101,0.35773250934615053
1658790038659546,0.5078812848096437,0.7949950408178834,0.3241626611734185
1658790038675533,0.5181353475242236,0.7595941100175478,0.30926985580224287
1658790038691520,0.4455024032959489,0.8103761348897534,0.3347829404135192
1658790038707508,0.38190280003051846,0.8877698939497982,0.37396810864423546
1658790038723510,0.4069275959411005,0.8714122224765388,0.3704280155642019
1658790038739498,0.48566414892805376,0.8217288471808954,0.3141527428091857
1658790038755485,0.4766308079652095,0.8299076829175247,0.3162279697871364
1658790038771473,0.40631723506523265,0.8449225604638739,0.3489433127336534
1658790038787460,0.39459830624856984,0.8772716868848711,0.32819104295414636
1658790038803447,0.4334172579537654,0.8848401617456325,0.29925993743801005
1658790038819435,0.4397650110627911,0.8606698710612646,0.3074387731746393
1658790038835422,0.40680552376592694,0.8546883344777596,0.32159914549477353
1658790038851410,0.36517891203173836,0.898634317540246,0.34552529182879343
1658790038867397,0.37030594338902834,0.894361791409171,0.32562752727550137
1658790038883384,0.4367132066834518,0.8350347142748147,0.28925001907377723
1658790038899372,0.4397650110627911,0.8238040741588462,0.2935225452048522
1658790038915359,0.3666437781338212,0.8806897077897311,0.3296559090562292
1658790038931347,0.3296559090562292,0.9010757610437174,0.34088654917219774
1658790038947334,0.3678644998855569,0.8902113374532696,0.3157396810864421
1658790038963321,0.3898374914168006,0.8740978103303574,0.3128099488822764
1658790038979309,0.3444266422522313,0.9213397421225302,0.3247730220492864
1658790038995296,0.3297779812314028,0.9334248874647137,0.33112077515831206
1658790039011283,0.37518883039597206,0.8811779964904254,0.2948653391317615
1658790039027271,0.39533073929961127,0.8426031891355761,0.2890058747234301
1658790039043243,0.3259937438010221,0.8855725947966739,0.30597390707255645
1658790039059230,0.2654459449149309,0.9391622796978716,0.3279468986037992
1658790039075218,0.29169146257724865,0.9461203936827651,0.31476310368505356
1658790039091205,0.35138475623712484,0.9116960402838181,0.2947432669565879
1658790039107193,0.32867933165484065,0.9271992065308616,0.3053635461966886
1658790039123180,0.27789730678263513,0.9367208361944002,0.3285572594796671
1658790039139167,0.2771648737315937,0.9430685893034259,0.31024643320363143
1658790039155155,0.33502708476386633,0.8974135957885103,0.2881513694972151
1658790039171142,0.33783474479285847,0.883009079118029,0.2775310902571144
1658790039187130,0.2695963988708323,0.9494163424124515,0.2965743495841915
1658790039203117,0.241519798580911,0.9783474479285879,0.30646219577325073
1658790039219104,0.27313649195086587,0.9502708476386665,0.2847333485923551
1658790039235092,0.3115892271305407,0.9016861219195853,0.269108110170138
1658790039251079,0.28668650339513224,0.9014419775692382,0.28705271992065295
1658790039267067,0.23797970550087744,0.9285420004577709,0.3065842679484243
1658790039283054,0.23150988021667818,0.9401388570992602,0.2993820096131836
1658790039299041,0.25226214999618524,0.9262226291294731,0.2894941634241244
1658790039315029,0.26068513008316163,0.9308613717860688,0.27496757457846943
1658790039331016,0.22223239490348679,0.97602807660029,0.29633020523384435
1658790039347004,0.20880445563439398,0.9759060044251164,0.30096894789044004
1658790039363006,0.23968871595330743,0.9331807431143666,0.27240405889982444
1658790039378994,0.25091935606927596,0.910597390707256,0.2721599145494773
1658790039394981,0.2251621271076525,0.929640650034333,0.28363469901579297
1658790039410968,0.17572289616235626,0.9887235828183414,0.3104905775539786
1658790039426956,0.16729991607537986,0.9577172503242544,0.3100022888532843
1658790039442943,0.21515220874341967,0.9019302662699324,0.2661783779659723
1658790039458931,0.23797970550087744,0.896925307087816,0.2603189135576409
1658790039474918,0.18548867017624193,0.9600366216525522,0.27228198672465087
1658790039490905,0.16144045166704846,1.0106965743495842,0.2717936980239566
1658790039506893,0.18915083543144906,1.004226749065385,0.2510414282444495
1658790039522880,0.21185626001373326,0.9660181582360572,0.25433737697413594
1658790039538868,0.19842832074464045,0.9312275883115895,0.2704509040970473
1658790039554855,0.15680170901045276,0.9624780651560236,0.2965743495841915
1658790039570842,0.13971160448615283,0.9615014877546351,0.2962081330586708
1658790039586830,0.14471656366826924,0.9586938277256429,0.25763332570382236
1658790039602817,0.17364766918440555,0.9447775997558558,0.24982070649271382
1658790039618805,0.18036163881895195,0.9478294041351951,0.2418860151064317
1658790039634792,0.15313954375524563,0.9636987869077593,0.23871213855191886
1658790039650779,0.11407644769970204,1.0045929655909056,0.27203784237430373
1658790039666767,0.11444266422522276,0.9818875410086214,0.2637369344625009
1658790039682739,0.14642557412069923,0.9253681239032581,0.2503089951934081
1658790039698726,0.13763637750820212,0.9267109178301673,0.2499427786678874
1658790039714714,0.08722056916151644,0.9855497062638285,0.2805828946364537
1658790039730701,0.05780117494468584,1.0319371328297855,0.2789959563591973
1658790039746688,0.09588769359883997,0.9933623254749371,0.2603189135576409
1658790039762676,0.1394674601358057,0.9271992065308616,0.24335088120851456
1658790039778663,0.11261158159761919,0.9395284962233923,0.24725719081406883
1658790039794651,0.058289463645380124,0.9938506141756314,0.2599526970321202
1658790039810638,0.04473945220111375,1.0080109864957656,0.25177386129549095
1658790039826625,0.08709849698634287,0.9833524071107043,0.22650492103456177
1658790039842613,0.10370031280994851,0.9619897764553293,0.23822384985122458
1658790039858600,0.06329442282749653,0.973464560921645,0.2453040360112917
1658790039874588,0.039124132143129486,1.0221713588158998,0.2461585412375067
1658790039890575,0.06024261844815726,1.0244907301441977,0.22613870450904106
1658790039906562,0.08758678568703715,0.9817654688334478,0.2360265506981003
1658790039922550,0.05523765926604085,0.9483176928358894,0.24505989166094455
1658790039938537,0.009582665751125319,0.9792019531548029,0.25128557259479667
1658790039954525,0.017151140611886717,0.9995880064087892,0.237247272449836
1658790039970512,0.04840161745632088,0.9805447470817121,0.22418554970626392
1658790039986499,0.040222781719691625,0.9662623025864043,0.2251621271076525
1658790040002502,-0.005065995269703194,0.9832303349355307,0.24200808728160528
1658790040018489,-0.019836728465705278,1.001907377737087,0.2485999847409781
1658790040034477,0.012878614480811734,0.9981231403067063,0.22821393148699176
1658790040050464,0.040222781719691625,0.9626001373311972,0.21149004348821254
1658790040066452,0.010193026626993174,0.9605249103532465,0.22406347753109035
1658790040082439,-0.024475471122300974,0.9710231174181736,0.2213778896772718
1658790040098426,-0.029846646829938095,0.9792019531548029,0.23712520027466244
1658790040114414,-0.031311512932020946,0.9667505912870986,0.2334630350194553
1658790040130401,-0.031311512932020946,0.9678492408636608,0.22687113756008248
1658790040146389,-0.05767910276951227,0.9911650263218128,0.2527504386968795
1658790040162376,-0.0783093003738462,1.0204623483634698,0.2511635004196231
1658790040178363,-0.053040360112916574,1.0238803692683298,0.22870222018768604
1658790040194351,-0.03289845120927737,0.9861600671396964,0.2188143739986268
1658790040210338,-0.058411535820553695,0.9912870984969864,0.24225223163195242
1658790040226326,-0.08245975432974761,1.027542534523537,0.22906843671320676
1658790040242313,-0.06292820630197626,1.065629053177691,0.20892652780956755
1658790040258300,-0.060975051499198685,1.0543984130617226,0.21478599221789896
1658790040274288,-0.08783093003738474,1.0578164339665825,0.23590447852292673
1658790040290275,-0.08087281605249119,1.062211032272831,0.2578774700541695
1658790040306263,-0.06854352635996053,1.0617227435721368,0.2322423132677196
1658790040322235,-0.08685435263599617,1.070756084534981,0.2276035706111239
1658790040338222,-0.11505302510109106,1.0971236743724724,0.2351720454718853
1658790040354210,-0.09845120927748541,1.0911421377889674,0.2313878080415046
1658790040370197,-0.06988632028686981,1.0749065384908825,0.22235446707866036
1658790040386184,-0.06463721675440626,1.0714885175860225,0.21026932173647683
1658790040402172,-0.0648813611047534,1.0567177843900204,0.19049362935835834
1658790040418159,-0.07232776379034123,1.0541542687113754,0.20965896086060898
1658790040434147,-0.08526741435873975,1.0552529182879375,0.22833600366216533
1658790040450134,-0.07135118638895266,1.0506141756313419,0.23797970550087744
1658790040466121,-0.05767910276951227,1.0445105668726633,0.22784771496147105
1658790040482109,-0.061097123674372256,1.0368200198367283,0.23529411764705888
1658790040498096,-0.06988632028686981,1.0478065156023497,0.2330968184939346
1658790040514083,-0.062317845426107965,1.060257877470054,0.26605630579079875
1658790040530071,-0.03424124513618665,1.0425574120698862,0.2554360265506981
1658790040546058,-0.013366903181506018,1.028397039749752,0.240665293354696
1658790040562046,-0.002990768291752488,1.0060578316929885,0.24078736552986957
1658790040578033,-0.0014038300144960658,1.0030060273136492,0.23651483939879459
1658790040594020,-0.005432211795223907,1.0171663996337834,0.269108110170138
1658790040610008,-0.02386511024643312,1.0345006485084305,0.2747234302281223
1658790040625995,0.013122758831158876,1.037186236362249,0.25214007782101167
1658790040641998,0.07440299076829149,1.0106965743495842,0.23993286030365457
1658790040657985,0.10968184939345349,0.9835965514610514,0.24628061341268026
1658790040673973,0.09991607537956781,0.98457312886244,0.24969863431754025
1658790040689960,0.09857328145265853,0.9993438620584421,0.24689097428854812
1658790040705948,0.124330510414282,0.98286411841001,0.2284580758373389
1658790040721935,0.1259174486915393,0.9722438391699093,0.23285267414358746
1658790040737922,0.12884718089570502,0.9632104982070651,0.25775539787899593
1658790040753910,0.13739223315785498,0.9741969939726864,0.26825360494392303
1658790040769897,0.15973144121461846,0.9641870756084536,0.2766765850308994
1658790040785884,0.20685130083161685,0.9538109407187001,0.2630045014114595
1658790040801872,0.22796978713664462,0.9395284962233923,0.2726482032501716
1658790040817859,0.21551842526894038,0.9514915693904022,0.26227206836041805
1658790040833847,0.21747158007171752,0.9738307774471657,0.25214007782101167
1658790040849834,0.25983062485694663,0.9607690547035936,0.23712520027466244
1658790040865821,0.279362172884718,0.9361104753185323,0.24518196383611812
1658790040881809,0.2499427786678874,0.9344014648661023,0.29083695735103365
1658790040897796,0.2448157473105974,0.937331197070268,0.30267795834287003
1658790040913784,0.2890058747234301,0.9070572976272224,0.2938887617303729
1658790040929771,0.33539330128938705,0.8695811398489353,0.2788738841840237
1658790040945758,0.34637979705500843,0.8749523155565724,0.27911802853437084
1658790040961731,0.3270923933775842,0.9196307316701002,0.2717936980239566
1658790040977718,0.32025635156786425,0.9517357137407494,0.29547570000762935
1658790040993705,0.34747844663157057,0.9143816281376367,0.31390859845883856
1658790041009693,0.40216678110933124,0.8368657969024182,0.3062180514229036
1658790041025680,0.43146410315098827,0.8139162279697869,0.2771648737315937
1658790041041668,0.40766002899214193,0.851148241397726,0.2977950713359272
1658790041057655,0.38947127489127986,0.863965819790951,0.29340047302967864
1658790041073642,0.41217669947356406,0.8769054703593504,0.3162279697871364
1658790041089630,0.44574654764629607,0.835523002975509,0.3285572594796671
1658790041105617,0.48187991149767306,0.8137941557946133,0.30511940184634145
1658790041121605,0.5159380483710994,0.8074464026855876,0.26483558403906304
1658790041137592,0.4758983749141681,0.8291752498664833,0.28082703898680084
1658790041153579,0.4481879911497675,0.8217288471808954,0.34174105439841274
1658790041169567,0.5005569542992294,0.7782711528191042,0.34161898222323916
1658790041185554,0.5562218661783778,0.7732661936369878,0.2926680399786372
1658790041201542,0.5634241245136185,0.7904783703364613,0.30182345311665504
1658790041217529,0.5303425650415807,0.7747310597390706,0.3218432898451207
1658790041233516,0.5216754406042572,0.7703364614328221,0.35895323109788624
1658790041249504,0.5298542763408864,0.7798580910963606,0.3578545815213241
1658790041265491,0.5791714351110091,0.7716792553597314,0.31976806286716997
1658790041281494,0.6339818417639433,0.7094224460212102,0.2814373998626687
1658790041297481,0.6508278019378961,0.6541237506675825,0.2632486457618066
1658790041313469,0.6060273136491947,0.6891584649423974,0.31403067063401213
1658790041329456,0.5885709925993741,0.7333485923552301,0.33502708476386633
1658790041345443,0.6345922026398112,0.693553063248646,0.2948653391317615
1658790041361431,0.6845197222858017,0.6304417486839098,0.2645914396887159
1658790041377418,0.6997787441824981,0.5917448691538869,0.2796063172350651
1658790041393406,0.651438162813764,0.6170138094148161,0.3108567940794993
1658790041409393,0.6135957885099561,0.6843976501106281,0.33490501258869276
1658790041425380,0.6173800259403368,0.6945296406500345,0.3466239414053556
1658790041441368,0.6751201647974368,0.6222629129472796,0.32147707331959996
1658790041457355,0.7246814679179066,0.5850308995193405,0.32367437247272424
1658790041473343,0.721995880064088,0.6201876859693289,0.3532158388647284
1658790041489330,0.6813458457312889,0.6749980926222632,0.3816586556801713
1658790041505317,0.6774395361257346,0.6366674296177619,0.3654230563820855
1658790041521305,0.7315175097276265,0.5803921568627448,0.34845502403295914
1658790041537292,0.7580071717402914,0.5828336003662162,0.31610589761196284
1658790041553280,0.7383535515373465,0.6131074998092618,0.3325856412603949
1658790041569267,0.7367666132600901,0.595407034409094,0.3532158388647284
1658790041585254,0.7282215609979401,0.5523155565728235,0.3554131380178527
1658790041601226,0.7173571374074923,0.5329060807202257,0.35602349889372054
1658790041617214,0.7635004196231021,0.520576791027695,0.32440680552376566
1658790041633201,0.816723887998779,0.5277790493629357,0.28632028686961153
1658790041649189,0.7704585336079957,0.5783169298847941,0.3222095063706414
1658790041665176,0.7339589532310979,0.556710154879072,0.3771419851987492
1658790041681163,0.7759517814908063,0.5225299458304722,0.3637140459296555
1658790041697151,0.8078126192111084,0.491279468986038,0.3440604257267106
1658790041713138,0.7979247730220491,0.505806057831693,0.349065384908827
1658790041729126,0.7860837720302127,0.544502937361715,0.34332799267566916
1658790041745113,0.7832761120012206,0.5203326466773479,0.3461356527046613
1658790041761100,0.7945067521171891,0.47907225146868093,0.36151674677653123
1658790041777088,0.7827878233005263,0.47016098268101025,0.3800717174029149
1658790041793075,0.7818112458991378,0.4796826123445488,0.3699397268635076
1658790041809063,0.7960936903944456,0.5183794918745708,0.36810864423590406
1658790041825050,0.819287403677424,0.460273136491951,0.37323567559319404
1658790041841037,0.8487067978942546,0.4124208438239112,0.35773250934615053
1658790041857025,0.837232013427939,0.43195239185168255,0.35687800411993553
1658790041873012,0.7697261005569542,0.4787060349431602,0.39069199664301557
1658790041889000,0.7500724803540093,0.52997634851606,0.396551461051347
1658790041904987,0.7924315251392384,0.5641565575646599,0.3804379339284356
1658790041920990,0.8662851911192488,0.4519722285801482,0.40497444113832337
1658790041936977,0.9469748989089801,0.273380636301213,0.38690775921263487
1658790041952964,0.9563744563973451,0.17792019531548053,0.3494316014343477
1658790041968952,0.8570077058060575,0.271671625848783,0.34540321965361986
1658790041984939,0.7475089646753643,0.427557793545434,0.36725413900968906
1658790042000927,0.7656977187762264,0.500679026474403,0.34930952925917413
1658790042016914,0.8589608606088346,0.4229190508888383,0.342229343099107
1658790042032901,0.9251239795529109,0.2730144197756923,0.32062256809338496
1658790042048889,0.8959487296864275,0.21942473487449465,0.3571221484702827
1658790042064876,0.8236820019836726,0.2927901121538108,0.4116884107728698
1658790042080864,0.7947508964675363,0.39874876020447125,0.4162050812542919
1658790042096851,0.8902113374532696,0.35773250934615053,0.3755550469214928
1658790042112838,0.9744411383230336,0.2377355611505303,0.32574959945067494
1658790042128826,0.9237811856260016,0.18036163881895195,0.3494316014343477
1658790042144813,0.8546883344777596,0.22320897230487535,0.3913023575188834
1658790042160801,0.8585946440833139,0.308659494926375,0.35846494239719195
1658790042176788,0.8881361104753189,0.31525139238574784,0.32562752727550137
1658790042192775,0.8992446784161139,0.2494544899671931,0.32318608377202995
1658790042208763,0.9058365758754867,0.16266117341878417,0.34918745708400056
1658790042224750,0.9055924315251396,0.15655756466010562,0.3742122529945826
1658790042240753,0.8852063782711532,0.21454184786755182,0.39874876020447125
1658790042256740,0.9026626993209739,0.2343175402456703,0.3943541618982227
1658790042272728,0.9341573205157552,0.1868314641031512,0.38410009918364274
1658790042288715,0.9134050507362481,0.13922331578545855,0.38324559395742774
1658790042304702,0.8876478217746246,0.13507286182955713,0.3859311818112463
1658790042320690,0.9147478446631574,0.1687647821774627,0.36639963378347407
1658790042336677,0.9197528038452738,0.2153963530937668,0.3654230563820855
1658790042352665,0.8964370183871218,0.26178377965972377,0.37897306782635276
1658790042368652,0.8950942244602125,0.2100251773861297,0.37311360341802047
1658790042384639,0.9192645151445795,0.1004043640802621,0.36554512855725907
1658790042400627,0.9151140611886781,0.06732280460822437,0.39166857404440414
1658790042416614,0.897779812314031,0.14789044022278208,0.40802624551766264
1658790042432602,0.9044937819485774,0.18536659800106836,0.38666361486228773
1658790042448589,0.9572289616235601,0.1334859235523007,0.3432059205004956
1658790042464576,0.955275806820783,0.08307011520561502,0.3414969100480656
1658790042480564,0.9018081940947589,0.08429083695735073,0.36273746852826694
1658790042496551,0.9015640497444117,0.07708857862211005,0.3851987487602049
1658790042512539,0.9118181124589917,0.10553139543755208,0.38287937743190703
1658790042528526,0.9096208133058674,0.1301899748226143,0.38239108873121275
1658790042544513,0.9036392767223624,0.12335393301289344,0.3653009842069119
1658790042560485,0.9109636072327767,0.06964217593652222,0.36102845807583694
1658790042576473,0.9355001144426645,0.051819638361180864,0.35687800411993553
1658790042592460,0.9237811856260016,0.09637598229953426,0.36432440680552336
1658790042608448,0.9256122682536052,0.10687418936446136,0.37531090257114563
1658790042624435,0.9452658884565501,0.0462043183031966,0.37152666514076405
1658790042640422,0.9469748989089801,0.01104753185320817,0.38690775921263487
1658790042656410,0.9228046082246131,0.04974441138323016,0.39545281147478484
1658790042672397,0.905470359349966,0.1129777981231399,0.388006408789197
1658790042688385,0.9221942473487452,0.14044403753719426,0.3659113450827798
1658790042704372,0.9429465171282523,0.059632257572289404,0.35809872587167124
1658790042720359,0.9368429083695737,-0.013000686655985305,0.37909514000152633
1658790042736347,0.9120622568093388,-0.01641870756084529,0.4053406576638441
1658790042752334,0.905470359349966,0.03582818341344307,0.38873884184023844
1658790042768322,0.9154802777141988,0.08258182650492074,0.35382619974059626
1658790042784309,0.9282978561074238,0.06964217593652222,0.33331807431143634
1658790042800296,0.9519798580910965,1.831082627603564E-4,0.3335622186617835
1658790042816284,0.9600366216525522,-0.06842145418478696,0.3495536736095213
1658790042832271,0.9320820935378045,-0.060975051499198685,0.37689784084840205
1658790042848259,0.9102311741817353,0.004455634393835339,0.4048523689631498
1658790042864246,0.9092545967803467,0.051941710536354435,0.3872739757381556
1658790042880249,0.911451895933471,0.002868696116578917,0.3623712520027462
1658790042896236,0.9348897535667966,-0.050476844434271584,0.3638361181048291
1658790042912223,0.9456321049820708,-0.060975051499198685,0.3843442435339899
1658790042928211,0.9489280537117573,-0.05780117494468584,0.38702983138780844
1658790042944198,0.9402609292744337,-0.07647821774624264,0.36981765468833405
1658790042960186,0.9325703822384988,-0.0829480430304419,0.37323567559319404
1658790042976173,0.9125505455100331,-0.04107728694590662,0.3860532539864199
1658790042992160,0.9109636072327767,-0.024353398947127403,0.3771419851987492
1658790043008148,0.9397726405737394,-0.05951018539711583,0.37238117036697904
1658790043024135,0.9335469596398873,-0.09576562142366685,0.37909514000152633
1658790043040123,0.9361104753185323,-0.1383688105592431,0.40045777065690125
1658790043056110,0.9350118257419702,-0.15973144121461802,0.4064393072404062
1658790043072097,0.9177996490424967,-0.14898908979934378,0.4112001220721755
1658790043088085,0.8797131303883425,-0.08636606393530188,0.4005798428320748
1658790043104072,0.9021744106202796,-0.07269398031586194,0.3797055008773942
1658790043120060,0.9113298237582974,-0.08307011520561547,0.347356374456397
1658790043136047,0.9053482871747924,-0.10333409628442825,0.35968566414892766
1658790043152034,0.9202410925459681,-0.09857328145265898,0.38031586175326204
1658790043168022,0.9502708476386665,-0.1173723964293889,0.37982757305256776
1658790043184009,0.9456321049820708,-0.10821698329137108,0.37116044861524333
1658790043199981,0.9256122682536052,-0.05633630884260299,0.36725413900968906
1658790043215969,0.9273212787060352,-0.04388494697489875,0.3497978179598684
1658790043231956,0.9279316395819031,-0.053162432288090145,0.35211718928816627
1658790043247944,0.9362325474937059,-0.06890974288548124,0.36981765468833405
1658790043263931,0.9236591134508281,-0.042664225223163044,0.35309376668955483
1658790043279918,0.9340352483405816,-0.013488975356679589,0.33954375524528846
1658790043295906,0.9392843518730452,-0.0061646448462653325,0.33746852826733775
1658790043311893,0.9353780422674909,-0.01751735713740743,0.33868925001907346
1658790043327880,0.9210955977721831,-0.022156099794003126,0.3571221484702827
1658790043343868,0.9121843289845124,-0.009582665751125319,0.37494468604562403
1658790043359855,0.9225604638742659,0.01886015106431671,0.3632257572289612
1658790043375843,0.939040207522698,0.030823224231326662,0.34747844663157057
1658790043391830,0.9496604867627987,0.019836728465705278,0.33575951781490776
1658790043407817,0.9307392996108952,0.0289921416037231,0.33588158999008133
1658790043423805,0.9099870298313881,0.06378271152819082,0.35175097276264555
1658790043439792,0.9186541542687117,0.06988632028686936,0.3676203555352098
1658790043455780,0.9342793926909287,0.06524757763027367,0.343083848325322
1658790043471767,0.941603723201343,0.07147325856412579,0.3477225909819177
1658790043487754,0.9259784847791259,0.10663004501411422,0.3552910658426791
1658790043503742,0.9134050507362481,0.14642557412069923,0.36444647898069693
1658790043519744,0.9170672159914552,0.15716792553597347,0.3565117875944148
1658790043535732,0.9474631876096744,0.12872510872053144,0.348210879682612
1658790043551719,0.9569848172732129,0.09173723964293856,0.35260547798886055
1658790043567707,0.9099870298313881,0.14557106889448423,0.3535820553902491
1658790043583694,0.8874036774242775,0.205386434729534,0.34674601358052914
1658790043599681,0.8974135957885103,0.23443961242084388,0.3225757228961621
1658790043615669,0.9292744335088123,0.202822919050889,0.31183337148088786
1658790043631656,0.9036392767223624,0.18670939192797764,0.3125658045319293
1658790043647644,0.9147478446631574,0.16144045166704846,0.32990005340657635
1658790043663631,0.9219501029983981,0.1973296711680783,0.31610589761196284
1658790043679618,0.8948500801098653,0.2766765850308994,0.32025635156786425
1658790043695606,0.865674830243381,0.31317616540779714,0.3305104142824442
1658790043711593,0.8909437705043111,0.2565346761272602,0.32489509422445995
1658790043727581,0.917433432516976,0.20416571297779829,0.31122301060502
1658790043743568,0.9104753185320824,0.2556801709010452,0.3045090409704736
1658790043759555,0.8600595101853967,0.36823071641107763,0.32648203250171637
1658790043775543,0.863965819790951,0.39533073929961127,0.3339284351873042
1658790043791530,0.9162127107652402,0.33246356908522134,0.3224536507209885
1658790043807518,0.9027847714961474,0.29633020523384435,0.33575951781490776
1658790043823505,0.8426031891355761,0.33160906385900635,0.3565117875944148
1658790043839508,0.8548104066529332,0.35223926146333984,0.33746852826733775
1658790043855495,0.9026626993209739,0.350774395361257,0.28839551384756223
1658790043871482,0.8911879148546582,0.3335622186617835,0.28119325551232155
1658790043887470,0.8616464484626531,0.36188296330205194,0.2910811017013808
1658790043903457,0.8174563210498205,0.4392767223620968,0.3280689707789728
1658790043919445,0.7953612573434041,0.5165484092469672,0.3306324864576178
1658790043935432,0.8349126420996411,0.4489204242008089,0.3195239185168228
1658790043951419,0.875318532082094,0.3288014038300142,0.30719462882429216
1658790043967407,0.8706797894254974,0.31647211413748355,0.3132982375829707
1658790043983394,0.8056153200579841,0.48480964370183877,0.33295185778591563
1658790043999382,0.7996337834744791,0.5779507133592734,0.34088654917219774
1658790044015369,0.8379644464789804,0.5136186770428015,0.30255588616769646
1658790044031356,0.8585946440833139,0.4191348134584576,0.2932784008545051
1658790044047344,0.7799801632715342,0.5155718318455786,0.32452887769893923
1658790044063331,0.7428702220187686,0.576363775082017,0.35761043717097696
1658790044079319,0.7936522468909741,0.5792935072861827,0.33624780651560204
1658790044095306,0.8516365300984203,0.4771190966659038,0.3136644541084914
1658790044111293,0.8568856336308839,0.42853437094682256,0.27789730678263513
1658790044127281,0.7775387197680628,0.5479209582665749,0.28448920424200796
1658790044143268,0.7395742732890822,0.6164034485389482,0.3124437323567557
1658790044159240,0.7628900587472343,0.5906462195773248,0.3170824750133514
1658790044175228,0.7937743190661477,0.5183794918745708,0.306950484473945
1658790044191215,0.7497062638284886,0.5570763714045928,0.3322194247348742
1658790044207203,0.6967269398031588,0.6093232623788811,0.3633478294041348
1658790044223190,0.7287098496986344,0.6378881513694976,0.3557793545433734
1658790044239177,0.7726558327611199,0.5882047760738534,0.34039826047150346
1658790044255165,0.7393301289387351,0.5940642404821848,0.3364919508659492
1658790044271152,0.6924544136720838,0.6510719462882433,0.34711223010604986
1658790044287140,0.7124742504005495,0.6653543907835511,0.33075455863279135
1658790044303127,0.7543450064850843,0.609079118028534,0.3096360723277636
1658790044319114,0.7099107347219045,0.6057831692988476,0.34540321965361986
1658790044335102,0.6684061951628903,0.618478675516899,0.34723430228122343
1658790044351089,0.6862287327382317,0.6684061951628903,0.3432059205004956
1658790044367076,0.7167467765316244,0.648020141908904,0.3217212176699471
1658790044383064,0.6959945067521174,0.6406958113984897,0.31769283588921926
1658790044399051,0.6651102464332039,0.6275120164797441,0.33197528038452706
1658790044415039,0.6507057297627226,0.6558327611200125,0.33539330128938705
1658790044431026,0.6518043793392847,0.6930647745479517,0.32904554818036136
1658790044447013,0.6353246356908526,0.716868848706798,0.34296177615014845
1658790044463001,0.625558861676967,0.7188220035095751,0.3678644998855569
1658790044479004,0.6425268940260933,0.6933089188982988,0.36823071641107763
1658790044494991,0.6793926909285117,0.6631570916304268,0.31439688715953285
1658790044510978,0.642038605325399,0.6983138780804152,0.32074464026855853
1658790044526966,0.5735561150530248,0.7472648203250172,0.37116044861524333
1658790044542953,0.5774624246585791,0.7571526665140764,0.3649347676813912
1658790044558941,0.6590066376745254,0.7265125505455101,0.3065842679484243
1658790044574928,0.6631570916304268,0.7086900129701688,0.27985046158541227
1658790044590915,0.5803921568627448,0.7599603265430686,0.33661402304112276
1658790044606903,0.5391317616540778,0.7810788128480963,0.35846494239719195
1658790044622890,0.5974822613870447,0.7525139238574807,0.3179369802395664
1658790044638877,0.6348363469901583,0.7058823529411766,0.29498741130693507
1658790044654865,0.5731898985275041,0.7342030975814451,0.29205767910276936
1658790044670852,0.5031204699778744,0.8195315480277712,0.3392996108949413
1658790044686840,0.5165484092469672,0.8396734569314104,0.33295185778591563
1658790044702827,0.5995574883649955,0.7869382772564277,0.3075608453498129
1658790044718814,0.6070038910505833,0.7460440985732815,0.29303425650415793
1658790044734802,0.5250934615091172,0.7963378347447927,0.31183337148088786
1658790044750789,0.460273136491951,0.8444342717631796,0.34637979705500843
1658790044766777,0.5095902952620737,0.831250476844434,0.32538338292515423
1658790044782764,0.5858854047455555,0.7832761120012206,0.28375677119096654
1658790044798736,0.5423056382085907,0.7871824216067749,0.30133516441596075
1658790044814724,0.4431830319676511,0.8251468680857554,0.33368429083695705
1658790044830711,0.4350041962310218,0.8567635614557103,0.32831311512931993
1658790044846698,0.5198443579766536,0.8279545281147476,0.2885175860227358
1658790044862686,0.5434042877851528,0.8009765774013884,0.27106126497291516
1658790044878673,0.44794384679942034,0.8629892423895624,0.31183337148088786
1658790044894661,0.39789425497825626,0.9188982986190588,0.3480888075074384
1658790044910648,0.4708934157320517,0.8590829327840082,0.3023117418173493
1658790044926635,0.532539864194705,0.7923094529640649,0.2687418936446173
1658790044942623,0.4641794460975053,0.8323491264209961,0.29047074082551294
1658790044958610,0.37616540779736063,0.9186541542687117,0.3296559090562292
1658790044974598,0.4165712977798126,0.9120622568093388,0.3070725566491186
1658790044990585,0.4879835202563516,0.8357671473258561,0.26898603799496446
1658790045006572,0.47443350881208524,0.8128175783932248,0.27106126497291516
1658790045022560,0.42108796826123474,0.8659189745937281,0.2755779354543373
1658790045038547,0.35809872587167124,0.9439230945296408,0.3330739299610892
1658790045054535,0.36639963378347407,0.9119401846341653,0.3255054551003278
1658790045070522,0.45294880598153675,0.8544441901274125,0.27618829633020514
1658790045086509,0.4393987945372704,0.8308842603189133,0.27411306935225443
1658790045102497,0.34088654917219774,0.8927748531319146,0.3079270618753336
1658790045118499,0.32452887769893923,0.9480735484855423,0.31903562981612854
1658790045134487,0.37946135652704704,0.914869916838331,0.27618829633020514
1658790045150474,0.4325627527275504,0.8703135728999767,0.2533607995727474
1658790045166462,0.4027771419851991,0.8646982528419924,0.2650797283894102
1658790045182449,0.3237964446478978,0.9068131532768753,0.2927901121538108
1658790045198436,0.31635004196231,0.919996948195621,0.29877164873731576
1658790045214424,0.36639963378347407,0.8754406042572676,0.27570000762951086
1658790045230411,0.37396810864423546,0.8632333867399096,0.25726710917830165
1658790045246399,0.30511940184634145,0.9129167620355538,0.2910811017013808
1658790045262386,0.25677882047760736,0.9546654459449151,0.3523613336385134
1658790045278373,0.2991378652628365,0.9240253299763488,0.31647211413748355
1658790045294361,0.36810864423590406,0.8921644922560468,0.2714274814984359
1658790045310348,0.33661402304112276,0.932204165712978,0.28253604943923083
1658790045326336,0.27362478065156015,0.9792019531548029,0.30646219577325073
1658790045342323,0.271671625848783,0.9784695201037614,0.2981612878614479
1658790045358310,0.3255054551003278,0.9269550621805145,0.2645914396887159
1658790045374298,0.3372243839169906,0.8744640268558781,0.2368810559243153
1658790045390285,0.28448920424200796,0.9158464942397195,0.24408331425955598
1658790045406273,0.2263828488593882,0.985427634088655,0.2924238956282901
1658790045422260,0.24518196383611812,0.9634546425574122,0.2746013580529487
1658790045438232,0.30804913405050716,0.8950942244602125,0.24847791256580454
1658790045454219,0.28168154421301583,0.9076676585030903,0.26349279011215376
1658790045470207,0.2229648279545282,0.9599145494773786,0.29755092698558006
1658790045486194,0.2208896009765775,0.9516136415655758,0.29974822613870433
1658790045502182,0.24701304646372169,0.9197528038452738,0.28632028686961153
1658790045518169,0.2735027084763866,0.8902113374532696,0.24811169604028382
1658790045534156,0.25177386129549095,0.9219501029983981,0.23614862287327387
1658790045550144,0.18963912413214334,0.9855497062638285,0.2783855954833294
1658790045566131,0.16510261692225559,0.9915312428473335,0.2821698329137101
1658790045582119,0.21832608529793252,0.9417257953765166,0.26276035706111234
1658790045598106,0.23297474631876103,0.9027847714961474,0.26739909971770803
1658790045614093,0.17352559700923198,0.9358663309681852,0.2843671320668344
1658790045630081,0.15106431677729493,0.9759060044251164,0.2886396581979094
1658790045646068,0.16363775082017273,0.9872587167162585,0.2957198443579765
1658790045662056,0.17755397878995982,0.97431906614786,0.279362172884718
1658790045678043,0.16437018387121416,0.946730754558633,0.28155947203784226
1658790045694030,0.14923323414969136,0.9489280537117573,0.26861982146944374
1658790045710018,0.15936522468909775,0.9722438391699093,0.23504997329671173
1658790045726005,0.17071793698023985,0.9927519645990692,0.22101167315175108
1658790045741993,0.14422827496757495,1.0045929655909056,0.23358510719462888
1658790045757995,0.11444266422522276,1.0280308232242312,0.2465247577630274
1658790045773983,0.12164492256046344,1.0065461203936827,0.25641260395208665
1658790045789970,0.15094224460212136,0.9538109407187001,0.2368810559243153
1658790045805957,0.13214312962539143,0.9671168078126193,0.24579232471198598
1658790045821945,0.08331425955596217,0.9848172732127871,0.2780193789578087
1658790045837932,0.07733272297245719,1.00166323338674,0.2594644083314259
1658790045853920,0.10516517891203137,0.9694361791409172,0.23456168459601745
1658790045869907,0.11578545815213204,0.9495384145876251,0.2296787975890746
1658790045885894,0.09100480659189714,0.9644312199588008,0.21991302357518894
1658790045901882,0.08538948653391287,0.988845654993515,0.22504005493247892
1658790045917869,0.08953994048981428,0.9893339436942092,0.21734950789654395
1658790045933857,0.09625391012436069,0.966628519111925,0.21258869306477468
1658790045949844,0.062439917601281536,0.9594262607766844,0.22333104448004892
1658790045965831,0.006775005722133187,0.9853055619134814,0.2556801709010452
1658790045981819,-0.012024109254596738,1.0111848630502784,0.2737468528267337
1658790045997806,0.03314259555962451,0.9815213244831007,0.2556801709010452
1658790046013794,0.07782101167315147,0.9323262378881516,0.23175402456702532
1658790046029781,0.05352864881361086,0.9350118257419702,0.21832608529793252
1658790046045768,-1.831082627603564E-4,1.0074006256198977,0.22796978713664462
1658790046061756,-0.021179522392614558,1.047440299076829,0.24335088120851456
1658790046077728,0.007751583123521755,1.0163118944075684,0.22113374532692465
1658790046093715,0.04132143129625376,0.9505149919890137,0.19342336156252404
1658790046109703,0.015686274509803866,0.9781033035782407,0.20025940337224402
1658790046125690,-0.02130159456778813,1.0402380407415883,0.2544594491493095
1658790046141677,-0.014587624933241727,1.0614785992217897,0.26654459449149304
1658790046157665,0.0040894178683146265,1.0481727321278704,0.24371709773403527
1658790046173652,-0.017639429312581,1.0385290302891583,0.22772564278629748
1658790046189640,-0.032288090333409514,1.0624551766231782,0.2339513237201496
1658790046205627,-0.012024109254596738,1.0436560616464483,0.2528725108720531
1658790046221614,-0.01226825360494388,1.0236362249179827,0.24701304646372169
1658790046237602,-0.019226367589837423,1.0398718242160676,0.22833600366216533
1658790046253589,-0.03411917296101308,1.0839398794537267,0.22198825055313964
1658790046269577,-0.05767910276951227,1.0744182497901882,0.2267490653849089
1658790046285564,-0.06878767071030767,1.0667277027542532,0.23089951934081032
1658790046301551,-0.050598916609445155,1.068192568856336,0.23883421072709243
1658790046317539,-0.027038986800945963,1.034378576333257,0.26446936751354233
1658790046333526,-0.02545204852368954,1.0281528953994048,0.2637369344625009
1658790046349514,-0.03338673990997165,1.0429236285954069,0.25091935606927596
1658790046365501,-0.03607232776379021,1.0393835355153733,0.2527504386968795
1658790046381488,-0.030090791180285237,1.0236362249179827,0.2516517891203174
1658790046397491,-0.019470511940184565,1.0196078431372548,0.2473792629892424
1658790046413478,-0.021667811093308842,1.0315709163042648,0.24701304646372169
1658790046429466,-0.009460593575951748,1.0458533607995726,0.2448157473105974
1658790046445453,0.006652933546959616,1.0342565041580833,0.25397116044861523
1658790046461441,0.025818265049210254,1.0043488212405585,0.25677882047760736
1658790046477428,0.019592584115358136,1.0082551308461127,0.27533379110399014
1658790046493415,0.015320057984283153,1.0115510795757992,0.2650797283894102
1658790046509403,0.038757915617608774,1.0106965743495842,0.2678873884184023
1658790046525390,0.049134050507362304,0.9855497062638285,0.2763103685053787
1658790046541378,0.03936827649347663,1.0005645838101778,0.29217975127794293
1658790046557365,0.035217822537575216,1.024979018844892,0.2868085755703058
1658790046573352,0.08197146562905289,1.0017853055619135,0.2592202639810788
1658790046589340,0.12103456168459559,0.9573510337987337,0.2511635004196231
1658790046605327,0.11285572594796633,0.9579613946746015,0.2461585412375067
1658790046621315,0.09942778667887353,0.9889677271686885,0.2578774700541695
1658790046637302,0.11273365377279276,0.9972686350804914,0.2653238727397573
1658790046653289,0.14630350194552566,0.9716334782940415,0.24872205691615168
1658790046669277,0.13885709925993783,0.9850614175631343,0.27789730678263513
1658790046685264,0.1259174486915393,0.9973907072556649,0.2855878538185701
1658790046701252,0.16693369954985915,0.9710231174181736,0.2688639658197909
1658790046717224,0.20428778515297186,0.9523460746166172,0.2630045014114595
1658790046733211,0.20904859998474112,0.945876249332418,0.27154955367360945
1658790046749199,0.19171435111009405,0.9613794155794615,0.2654459449149309
1658790046765186,0.1957427328908219,0.9500267032883194,0.2676432440680552
1658790046781173,0.20025940337224402,0.9386739909971773,0.27484550240329586
1658790046797161,0.20636301213092256,0.9519798580910965,0.2717936980239566
1658790046813148,0.23419546807049674,0.9499046311131458,0.2516517891203174
1658790046829136,0.25470359349965666,0.9363546196688795,0.2650797283894102
1658790046845123,0.25214007782101167,0.9376974135957887,0.28241397726405726
1658790046861110,0.27570000762951086,0.9445334554055087,0.2755779354543373
1658790046877098,0.2990157930876629,0.9384298466468302,0.25812161440451664
1658790046893085,0.30548561837186217,0.9229266803997866,0.27313649195086587
1658790046909073,0.29584191653315006,0.9224383916990924,0.2747234302281223
1658790046925060,0.2868085755703058,0.9418478675516901,0.28619821469443796
1658790046941047,0.3007248035400929,0.9112077515831238,0.27862973983367656
1658790046957035,0.3452811474784463,0.869092851148241,0.2755779354543373
1658790046973022,0.36554512855725907,0.8823987182421611,0.2670328831921873
1658790046989009,0.3504081788357363,0.9276874952315559,0.2641031509880216
1658790047004997,0.34845502403295914,0.9307392996108952,0.2876630807965208
1658790047020984,0.3784847791256585,0.8896009765774018,0.2842450598916608
1658790047036987,0.3936217288471813,0.8814221408407725,0.29303425650415793
1658790047052974,0.3826352330815599,0.8913099870298318,0.31110093842984643
1658790047068962,0.3972838941023884,0.8822766460669875,0.29633020523384435
1658790047084949,0.42194247348744973,0.8980239566643782,0.31647211413748355
1658790047100937,0.44159609369039465,0.8760509651331354,0.30682841229877145
1658790047116924,0.48017090104524307,0.8505378805218582,0.2485999847409781
1658790047132911,0.48859388113221947,0.8496833752956432,0.25592431525139236
