Timestamp (microseconds),Accel X (g),Accel Y (g),Accel Z (g)
1658790116018768,0.11248950942244562,0.9767605096513314,-0.01629663538567172
1658790116034768,0.11712825207904132,0.9933623254749371,-0.025940337224383825
1658790116050768,0.11871519035629774,0.9939726863508049,-0.032288090333409514
1658790116066767,0.11981383993285988,0.9929961089494164,-0.029968719005111666
1658790116082767,0.11529716945143775,0.9818875410086214,-0.022278171969176697
1658790116098767,0.11334401464866062,0.983718623636225,-0.025696192874036683
1658790116114767,0.11163500419623062,0.9906767376211185,-0.029480430304417382
1658790116130766,0.10748455024032921,0.9998321507591363,-0.027649347676813818
1658790116146766,0.11102464332036277,1.0083772030212863,-0.0289921416037231
1658790116162766,0.11822690165560346,0.9936064698252842,-0.03302052338445094
1658790116178766,0.13763637750820212,0.9936064698252842,-0.013366903181506018
1658790116194766,0.12298771648737272,0.98628213931487,-0.015075913633936011
1658790116210765,0.12909132524605216,1.0100862134737163,-0.020691233691920274
1658790116226765,0.11017013809414777,1.0109407186999313,-0.02642862592507811
1658790116242765,0.11285572594796633,1.0043488212405585,-0.021057450217440987
1658790116258765,0.11029221026932134,0.9973907072556649,-0.012512397955291021
1658790116274765,0.11224536507209848,0.9607690547035936,0.0023804074158846333
1658790116290764,0.10467689021133708,0.9823758297093157,-5.493247882810692E-4
1658790116306764,0.10003814755474139,1.0045929655909056,-0.017273212787060288
1658790116322764,0.11187914854657777,0.9948271915770199,-0.02777141985198739
1658790116338775,0.11078049897001563,1.0171663996337834,-0.02667277027542525
1658790116354775,0.12274357213702558,1.0071564812695506,-0.00579842832074462
1658790116370775,0.10565346761272565,0.9695582513160907,0.0039673456931410556
1658790116386775,0.0974746318760964,0.9685816739147022,0.0036011291676203427
1658790116402774,0.09991607537956781,0.9735866330968186,-0.011535820553902454
1658790116418774,0.11065842679484206,1.0084992751964599,-0.025818265049210254
1658790116434774,0.11920347905699202,1.014724956130312,-0.02655069810025168
1658790116450774,0.11139085984588348,0.9959258411535821,-0.017883573662928143
1658790116466774,0.11078049897001563,0.9624780651560236,-0.0017700465400167786
1658790116482773,0.11102464332036277,0.964919508659495,0.0017700465400167786
1658790116498773,0.11700617990386775,1.0034943160143435,-0.011169604028381741
1658790116514773,0.12530708781567146,1.0257114518959334,-0.015197985809109582
1658790116530773,0.11444266422522276,1.0047150377660792,-0.019714656290531707
1658790116546773,0.11285572594796633,0.9857938506141757,-0.015686274509803866
1658790116562772,0.10284580758373352,0.9873807888914321,-0.014099336232547444
1658790116578772,0.11139085984588348,0.9833524071107043,-0.010070954451819603
1658790116594772,0.10980392156862706,0.9893339436942092,-0.012146181429770309
1658790116610772,0.10308995193408066,0.9993438620584421,-0.019226367589837423
1658790116626772,0.11151293202105705,1.0052033264667735,-0.020813305867093845
1658790116642771,0.11444266422522276,1.0182650492103456,-0.013366903181506018
1658790116658752,0.11712825207904132,0.9967803463797971,-0.0071412222476539
1658790116674752,0.10943770504310635,0.9739528496223393,-0.00457770656900891
1658790116690752,0.10308995193408066,0.9810330357824064,-0.014709697108415298
1658790116706751,0.10308995193408066,1.0110627908751049,-0.023376821545738835
1658790116722751,0.10870527199206492,0.9997100785839628,-0.024475471122300974
1658790116738751,0.10699626153963493,0.9795681696803236,-0.007995727473868897
1658790116754751,0.10809491111619707,0.9904325932707714,-0.0018921187151903496
1658790116770751,0.10638590066376707,0.9879911497673,-0.0071412222476539
1658790116786750,0.10785076676584993,0.9873807888914321,-0.015808346684977437
1658790116802750,0.11590753032730561,1.0209506370641641,-0.01995880064087885
1658790116818750,0.11102464332036277,1.0281528953994048,-0.027283131151293105
1658790116834750,0.11529716945143775,0.9982452124818799,-0.016906996261539575
1658790116850750,0.1129777981231399,0.9632104982070651,-0.0025024795910582043
1658790116866749,0.10150301365682424,0.9934843976501107,-0.015075913633936011
1658790116882749,0.10675211718928779,1.0100862134737163,-0.03411917296101308
1658790116898749,0.10601968413824636,1.001907377737087,-0.040222781719691625
1658790116914749,0.11200122072175134,1.0180209048599984,-0.033875028610665936
1658790116930749,0.11590753032730561,1.0037384603646906,-0.01629663538567172
1658790116946748,0.12091248950942202,0.9835965514610514,0.0042114900434881974
1658790116962748,0.11261158159761919,0.9856717784390021,-0.0022583352407110624
1658790116978729,0.11517509727626418,1.0030060273136492,-0.022400244144350268
1658790116994729,0.11529716945143775,1.0183871213855191,-0.03460746166170736
1658790117010728,0.12286564431219915,1.0045929655909056,-0.020813305867093845
1658790117026728,0.11029221026932134,0.9773708705271993,-0.004943923094529623
1658790117042728,0.10394445716029566,0.9879911497673,1.831082627603564E-4
1658790117058728,0.1109025711451892,0.9912870984969864,-0.007019150072480329
1658790117074728,0.12323186083771986,0.9980010681315328,-0.011902037079423167
1658790117090727,0.12201113908598415,0.9951934081025406,-0.014709697108415298
1658790117106727,0.11224536507209848,0.9903105210955978,-0.012878614480811734
1658790117122727,0.10052643625543567,0.98115510795758,-0.009094377050431035
1658790117138727,0.10382238498512208,0.9876249332417792,7.934691386282111E-4
1658790117154727,0.11078049897001563,0.9660181582360572,-7.934691386282111E-4
1658790117170726,0.11639581902799989,0.9805447470817121,-0.008972304875257464
1658790117186726,0.11395437552452847,0.9999542229343099,-0.015686274509803866
1658790117202726,0.11993591210803345,0.9922636758983749,-0.009094377050431035
1658790117218726,0.11810482948042988,0.9733424887464714,0.005310139620050336
1658790117234726,0.11139085984588348,0.9765163653009843,0.002990768291752488
1658790117250725,0.12323186083771986,1.0076447699702449,-0.012512397955291021
1658790117266725,0.12335393301289344,1.0028839551384756,-0.01641870756084529
1658790117282725,0.1214007782101163,0.9772487983520257,-0.008728160524910322
1658790117298736,0.1100480659189742,0.96577401388571,-0.006530861371786045
1658790117314736,0.10992599374380063,0.9860379949645228,-0.005432211795223907
1658790117330736,0.11371023117418133,1.002761882963302,-0.015075913633936011
1658790117346736,0.1276264591439693,1.0012970168612192,-0.01373311970702673
1658790117362735,0.12494087129014986,0.9904325932707714,-0.007629510948348184
1658790117378735,0.11236743724727205,0.9705348287174793,-0.005065995269703194
1658790117394735,0.10809491111619707,0.982009613183795,0.003479056992446772
1658790117410735,0.11224536507209848,1.003616388189517,-0.005920500495918191
1658790117426735,0.12286564431219915,0.9981231403067063,-0.0071412222476539
1658790117442734,0.11322194247348705,0.9851834897383078,-0.014343480582894585
1658790117458734,0.11285572594796633,0.987136644541085,-0.011657892729076025
1658790117474734,0.10663004501411422,1.0000762951094835,-0.010193026626993174
1658790117490734,0.11419851987487561,1.014724956130312,-0.005554283970397478
1658790117506734,0.10980392156862706,0.9894560158693828,-0.009460593575951748
1658790117522733,0.10980392156862706,0.9782253757534143,-0.012024109254596738
1658790117538733,0.12359807736324058,1.001907377737087,-0.012146181429770309
1658790117554733,0.11444266422522276,1.032669565880827,-0.019348439765010994
1658790117570733,0.11883726253147131,1.0021515220874342,-0.004699778744182481
1658790117586732,0.10687418936446136,0.98628213931487,-0.00457770656900891
1658790117602732,0.11322194247348705,0.9931181811245899,-0.0020141908903639205
1658790117618713,0.11017013809414777,0.9939726863508049,-0.00970473792629889
1658790117634713,0.11309987029831348,1.0139925230792706,-0.02032501716639956
1658790117650713,0.11200122072175134,0.9973907072556649,-0.015197985809109582
1658790117666712,0.11358815899900776,0.9857938506141757,-3.0518043793392735E-4
1658790117682712,0.11322194247348705,0.9927519645990692,0.003356984817273201
1658790117698712,0.09808499275196425,0.9890897993438621,-0.004455634393835339
1658790117714712,0.10833905546654421,1.0072785534447242,-0.02008087281605242
1658790117730712,0.1155413138017849,1.0014190890363928,-0.019592584115358136
1658790117746711,0.12237735561150487,0.9839627679865721,-0.00970473792629889
1658790117762711,0.11615167467765275,0.9704127565423057,0.0023804074158846333
1658790117778711,0.10443274586098994,0.9684596017395286,0.0014038300144960658
1658790117794711,0.10675211718928779,1.0045929655909056,-0.010803387502861028
1658790117810711,0.11395437552452847,1.0192416266117341,-0.0214236667429617
1658790117826710,0.12005798428320702,1.0059357595178149,-0.01873807888914314
1658790117842710,0.12420843823910843,0.980300602731365,-0.005432211795223907
1658790117858710,0.11456473640039633,0.949294270237278,0.007385366598001042
1658790117874710,0.1041886015106428,0.9857938506141757,-0.0061646448462653325
1658790117890710,0.10589761196307279,1.0064240482185092,-0.02008087281605242
1658790117906709,0.11334401464866062,0.9958037689784085,-0.024475471122300974
1658790117922709,0.11908140688181845,0.9990997177080949,-0.015442130159456724
1658790117938720,0.11810482948042988,0.9853055619134814,-0.0026245517662317752
1658790117954720,0.11212329289692491,0.9809109636072328,-5.493247882810692E-4
1658790117970720,0.11017013809414777,0.9964141298542764,-0.0038452735179674846
1658790117986720,0.11627374685282632,0.9945830472266728,-0.014587624933241727
1658790118002720,0.12115663385976916,1.001052872510872,-0.02288853284504455
1658790118018719,0.10260166323338638,1.004470893415732,-0.01751735713740743
1658790118034719,0.09991607537956781,0.9901884489204242,-0.006897077897306758
1658790118050719,0.10968184939345349,0.9695582513160907,0.0038452735179674846
1658790118066719,0.11371023117418133,0.9748073548485543,-0.00323491264209963
1658790118082718,0.11859311818112417,0.9955596246280614,-0.01605249103532458
1658790118098718,0.10736247806515564,1.029495689326314,-0.02911421377889667
1658790118114718,0.11261158159761919,1.0110627908751049,-0.02288853284504455
1658790118130718,0.11615167467765275,0.9710231174181736,-7.934691386282111E-4
1658790118146718,0.11163500419623062,0.9883573662928207,0.010437170977340315
1658790118162717,0.10431067368581637,1.009597924773022,-0.0020141908903639205
1658790118178717,0.10553139543755208,1.0074006256198977,-0.014221408407721015
1658790118194717,0.1088273441672385,1.0091096360723277,-0.02423132677195383
1658790118210717,0.11322194247348705,0.9992217898832685,-0.007263294422827471
1658790118226717,0.10284580758373352,0.9762722209506371,0.0025024795910582043
1658790118242716,0.10272373540855995,0.9883573662928207,-0.0014038300144960658
1658790118258697,0.1041886015106428,0.9934843976501107,-0.004943923094529623
1658790118274697,0.10931563286793278,1.0069123369192035,-0.015930418860151008
1658790118290697,0.11615167467765275,1.013015945677882,-0.00579842832074462
1658790118306697,0.10846112764171778,0.97773708705272,0.0020141908903639205
1658790118322696,0.10760662241550278,0.9831082627603571,0.003479056992446772
1658790118338696,0.10235751888303923,0.9804226749065386,-4.272526131074983E-4
1658790118354696,0.10382238498512208,0.9942168307011521,-0.009948882276646032
1658790118370696,0.10907148851758564,1.0122835126268406,-0.014343480582894585
1658790118386695,0.10699626153963493,0.9955596246280614,-0.019836728465705278
1658790118402695,0.1167620355535206,0.9838406958113985,0.0016479743648432077
1658790118418695,0.10724040588998207,0.9729762722209507,0.007385366598001042
1658790118434695,0.1100480659189742,0.9984893568322271,0.00836194399938961
1658790118450695,0.10406652933546923,1.004226749065385,-0.011535820553902454
1658790118466694,0.10724040588998207,0.9966582742046235,-0.010315098802166744
1658790118482694,0.10614175631341993,0.9956816968032349,-0.00982681010147246
1658790118498694,0.11078049897001563,0.9959258411535821,-0.0014038300144960658
1658790118514694,0.10260166323338638,0.9906767376211185,-5.493247882810692E-4
1658790118530694,0.10150301365682424,0.9798123140306707,-0.011779964904249596
1658790118546693,0.1100480659189742,0.9817654688334478,-0.010315098802166744
1658790118562693,0.10443274586098994,1.0081330586709392,-0.005676356145571049
1658790118578704,0.1091935606927592,1.0254673075455862,-0.0014038300144960658
1658790118594704,0.1062638284885935,0.9923857480735485,-5.493247882810692E-4
1658790118610704,0.11322194247348705,0.9705348287174793,-1.831082627603564E-4
1658790118626704,0.11309987029831348,0.9922636758983749,-0.005432211795223907
1658790118642704,0.1033340962844278,1.014724956130312,-0.01739528496223386
1658790118658703,0.10296787975890709,1.0111848630502784,-0.019592584115358136
1658790118674703,0.11273365377279276,0.9936064698252842,-0.009582665751125319
1658790118690703,0.10760662241550278,0.9873807888914321,-0.004333562218661768
1658790118706703,0.11126878767070991,0.9942168307011521,3.0518043793392735E-4
1658790118722703,0.09845120927748496,0.9958037689784085,-0.006775005722133187
1658790118738702,0.10443274586098994,1.0037384603646906,-0.007995727473868897
1658790118754702,0.11236743724727205,0.9999542229343099,-0.01483176928358887
1658790118770702,0.11883726253147131,1.0185091935606927,-0.0020141908903639205
1658790118786702,0.10894941634241206,1.0072785534447242,-0.009582665751125319
1658790118802702,0.11151293202105705,0.9804226749065386,-0.004333562218661768
1658790118818701,0.10675211718928779,0.9763942931258107,-0.0015259021896696368
1658790118834701,0.10748455024032921,1.000198367284657,-0.0015259021896696368
1658790118850701,0.11419851987487561,1.0031280994888228,-0.0012817578393224949
1658790118866701,0.11346608682383419,0.9782253757534143,0.0023804074158846333
1658790118882701,0.1079728389410235,0.968337529564355,0.011169604028381741
1658790118898712,0.1012588693064771,0.9805447470817121,0.008728160524910322
1658790118914712,0.10174715800717138,0.9864042114900435,0.0022583352407110624
1658790118930711,0.10724040588998207,0.971755550469215,-0.002746623941405346
1658790118946711,0.10516517891203137,0.9636987869077593,-0.0018921187151903496
1658790118962711,0.1012588693064771,0.9740749217975129,0.0022583352407110624
1658790118978711,0.1033340962844278,1.0004425116350042,-0.00579842832074462
1658790118994711,0.11737239642938846,1.0022735942626078,-4.272526131074983E-4
1658790119010710,0.12774853131914288,1.0072785534447242,-0.0012817578393224949
1658790119026710,0.11969176775768631,0.9953154802777142,0.005065995269703194
1658790119042710,0.1062638284885935,0.9763942931258107,-0.006408789196612474
1658790119058710,0.10467689021133708,0.9953154802777142,-0.014587624933241727
1658790119074710,0.11480888075074347,1.0152132448310063,-0.019592584115358136
1658790119090709,0.11993591210803345,1.0049591821164263,-0.012024109254596738
1658790119106709,0.11493095292591704,0.97944609750515,-0.006408789196612474
1658790119122709,0.10846112764171778,0.9884794384679942,0.002990768291752488
1658790119138709,0.09784084840161711,1.004470893415732,-0.005554283970397478
1658790119154708,0.1079728389410235,1.0135042343785763,-0.006286717021438903
1658790119170708,0.10260166323338638,0.9921416037232014,-0.01104753185320817
1658790119186708,0.10553139543755208,0.9831082627603571,0.004699778744182481
1658790119202708,0.10138094148165067,0.9976348516060121,0.004333562218661768
1658790119218689,0.09466697184710426,0.9993438620584421,-0.0040894178683146265
1658790119234688,0.09674219882505497,1.0021515220874342,3.0518043793392735E-4
1658790119250688,0.09417868314640998,1.000198367284657,-0.002746623941405346
1658790119266688,0.10296787975890709,0.9943389028763256,0.006775005722133187
1658790119282688,0.10186923018234495,1.0093537804226749,0.00970473792629889
1658790119298688,0.1079728389410235,1.000198367284657,0.014221408407721015
1658790119314687,0.10382238498512208,0.9859159227893493,0.005920500495918191
1658790119330687,0.09735255970092282,0.98286411841001,5.493247882810692E-4
1658790119346687,0.11163500419623062,1.0086213473716334,-0.005920500495918191
1658790119362687,0.11590753032730561,1.0321812771801326,-3.0518043793392735E-4
1658790119378687,0.10858319981689135,0.9944609750514992,0.008606088349736751
1658790119394686,0.1004043640802621,0.9550316624704358,0.023132677195391693
1658790119410686,0.089906157015335,0.9715114061188679,0.022400244144350268
1658790119426686,0.0945448996719307,0.9942168307011521,0.007873655298695326
1658790119442686,0.10138094148165067,1.0208285648889905,-0.006652933546959616
1658790119458685,0.10064850843060924,0.9997100785839628,0.0020141908903639205
1658790119474685,0.10138094148165067,0.9801785305561914,0.019348439765010994
1658790119490685,0.10064850843060924,0.9945830472266728,0.01898222323949028
1658790119506685,0.10443274586098994,0.9976348516060121,0.008972304875257464
1658790119522685,0.11017013809414777,0.9948271915770199,4.272526131074983E-4
1658790119538696,0.10479896238651065,1.0060578316929885,0.0017700465400167786
1658790119554696,0.10174715800717138,1.0017853055619135,0.008728160524910322
1658790119570696,0.09979400320439424,0.9997100785839628,0.0071412222476539
1658790119586695,0.10174715800717138,1.001052872510872,0.0018921187151903496
1658790119602695,0.11041428244449492,0.9909208819714657,0.0021362630655374915
1658790119618695,0.1050431067368578,1.0020294499122606,-0.002990768291752488
1658790119634695,0.1012588693064771,1.0242465857938505,-0.004333562218661768
1658790119650694,0.09893949797817925,0.9972686350804914,0.0023804074158846333
1658790119666694,0.10699626153963493,0.9805447470817121,0.010193026626993174
1658790119682694,0.10809491111619707,0.99140917067216,0.0071412222476539
1658790119698694,0.09893949797817925,1.0146028839551384,6.713969634546402E-4
1658790119714694,0.09930571450369996,1.0146028839551384,-0.009582665751125319
1658790119730693,0.10809491111619707,0.9923857480735485,-9.15541313801782E-4
1658790119746693,0.11639581902799989,0.9739528496223393,0.014221408407721015
1658790119762693,0.10431067368581637,0.9821316853589686,0.01239032578011745
1658790119778693,0.09600976577401354,0.9750514991989014,0.004333562218661768
1658790119794693,0.09845120927748496,0.97602807660029,0.0021362630655374915
1658790119810692,0.10321202410925423,0.9990997177080949,-4.272526131074983E-4
1658790119826692,0.1041886015106428,1.0080109864957656,0.006530861371786045
1658790119842692,0.10870527199206492,0.9857938506141757,0.007629510948348184
1658790119858673,0.11065842679484206,0.9790798809796293,0.017273212787060288
1658790119874673,0.10272373540855995,0.9757839322499429,0.015197985809109582
1658790119890672,0.09820706492713782,0.9868925001907378,0.003479056992446772
1658790119906672,0.09881742580300568,0.9933623254749371,-0.007019150072480329
1658790119922672,0.10724040588998207,0.9936064698252842,-0.0020141908903639205
1658790119938672,0.11322194247348705,1.004470893415732,0.00982681010147246
1658790119954671,0.1024795910582128,0.9947051194018464,0.015320057984283153
1658790119970671,0.09967193102922067,0.9735866330968186,0.013000686655985305
1658790119986671,0.09552147707331926,0.9824979018844893,0.011169604028381741
1658790120002671,0.11505302510109061,1.0144808117799649,0.003479056992446772
1658790120018671,0.10907148851758564,1.0166781109330891,-0.010070954451819603
1658790120034670,0.1117570763714042,1.0058136873426413,-0.005432211795223907
1658790120050670,0.1004043640802621,0.970046540016785,-7.934691386282111E-4
1658790120066670,0.10101472495612995,0.9650415808346686,0.007263294422827471
1658790120082670,0.09906157015335282,1.0175326161593041,0.01361104753185316
1658790120098670,0.08404669260700359,1.00337224383917,5.493247882810692E-4
1658790120114669,0.10370031280994851,0.9972686350804914,-0.003356984817273201
1658790120130669,0.10699626153963493,1.0159456778820477,-0.004455634393835339
1658790120146669,0.10687418936446136,1.0174105439841306,0.007019150072480329
1658790120162669,0.0974746318760964,0.9932402532997635,0.011779964904249596
1658790120178680,0.09503318837262498,0.9762722209506371,0.015564202334630295
1658790120194680,0.09539940489814569,0.98457312886244,0.010315098802166744
1658790120210680,0.10223544670786566,1.019851987487602,0.0060425726710917615
1658790120226679,0.09686427100022854,1.0132600900282291,0.00323491264209963
1658790120242679,0.09234760051880642,0.9944609750514992,0.014709697108415298
1658790120258679,0.09527733272297212,0.9782253757534143,0.026184481574730967
1658790120274679,0.09796292057679068,1.0030060273136492,0.02410925459678026
1658790120290679,0.09698634317540211,1.0169222552834363,0.009460593575951748
1658790120306678,0.10638590066376707,1.012161440451667,0.01104753185320817
1658790120322678,0.09076066224155,0.9877470054169528,0.005188067444876765
1658790120338678,0.10186923018234495,0.9795681696803236,0.01361104753185316
1658790120354678,0.09137102311741785,0.9944609750514992,0.012024109254596738
1658790120370678,0.10003814755474139,0.9978789959563592,0.011291676203555312
1658790120386677,0.09942778667887353,1.0026398107881285,0.004821850919356052
1658790120402677,0.1041886015106428,0.9965362020294499,0.0037232013427939137
1658790120418677,0.11371023117418133,0.9997100785839628,0.014465552758068156
1658790120434677,0.0966201266498814,0.9993438620584421,0.01239032578011745
1658790120450677,0.0966201266498814,0.9953154802777142,0.013000686655985305
1658790120466676,0.08844129091325215,0.970046540016785,0.0042114900434881974
1658790120482676,0.10235751888303923,0.9873807888914321,0.00323491264209963
1658790120498687,0.09832913710231139,1.003616388189517,0.00457770656900891
1658790120514687,0.10199130235751852,0.9922636758983749,0.005065995269703194
1658790120530687,0.10858319981689135,0.9815213244831007,0.015808346684977437
1658790120546687,0.10528725108720494,0.9966582742046235,0.008972304875257464
1658790120562687,0.10809491111619707,1.00337224383917,-0.003356984817273201
1658790120578686,0.10467689021133708,1.0026398107881285,-0.007751583123521755
1658790120594686,0.1024795910582128,0.9964141298542764,-0.004821850919356052
1658790120610686,0.10699626153963493,0.9860379949645228,0.0037232013427939137
1658790120626686,0.09857328145265853,0.9711451895933472,0.007629510948348184
1658790120642686,0.0966201266498814,0.99140917067216,-0.010315098802166744
1658790120658685,0.10528725108720494,1.0230258640421148,-0.01641870756084529
1658790120674685,0.11261158159761919,1.0191195544365605,-0.010315098802166744
1658790120690685,0.11737239642938846,0.9857938506141757,0.004943923094529623
1658790120706685,0.11651789120317346,0.9879911497673,0.0038452735179674846
1658790120722684,0.1041886015106428,1.0102082856488899,-0.003479056992446772
1658790120738684,0.11261158159761919,1.0290074006256198,-0.012024109254596738
1658790120754684,0.10870527199206492,1.034622720683604,-0.01898222323949028
1658790120770684,0.09478904402227784,0.9784695201037614,-0.015808346684977437
1658790120786684,0.09478904402227784,0.9387960631723509,-0.0040894178683146265
1658790120802683,0.09735255970092282,0.9843289845120928,0.004699778744182481
1658790120818664,0.09796292057679068,1.0149691004806591,-0.004821850919356052
1658790120834664,0.0974746318760964,0.9969024185549706,-0.0109254596780346
1658790120850664,0.09832913710231139,0.9464866102082858,-0.007019150072480329
1658790120866664,0.10321202410925423,0.9752956435492486,0.014221408407721015
1658790120882663,0.10601968413824636,1.0313267719539176,0.009216449225604606
1658790120898663,0.10833905546654421,1.0109407186999313,0.004333562218661768
1658790120914663,0.09881742580300568,0.9641870756084536,0.0023804074158846333
1658790120930663,0.10370031280994851,0.970901045243,-0.006286717021438903
1658790120946663,0.10284580758373352,0.9962920576791028,-0.0071412222476539
1658790120962662,0.09527733272297212,0.9866483558403907,-0.0015259021896696368
1658790120978662,0.10223544670786566,0.9903105210955978,0.003356984817273201
1658790120994662,0.10601968413824636,1.0203402761882963,-0.0012817578393224949
1658790121010662,0.11529716945143775,1.0074006256198977,0.0017700465400167786
1658790121026661,0.11615167467765275,0.9840848401617457,0.01495384145876244
1658790121042661,0.10980392156862706,0.9865262836652171,0.012878614480811734
1658790121058661,0.10174715800717138,0.9887235828183414,0.007873655298695326
1658790121074661,0.09552147707331926,0.980300602731365,-0.001159685664148924
1658790121090661,0.10186923018234495,1.0045929655909056,-0.0036011291676203427
1658790121106660,0.10382238498512208,1.013015945677882,-0.003112840466926059
1658790121122660,0.11615167467765275,0.9947051194018464,0.007751583123521755
1658790121138672,0.1088273441672385,0.97944609750515,0.015808346684977437
1658790121154671,0.10638590066376707,0.9722438391699093,0.010315098802166744
1658790121170671,0.09930571450369996,0.9920195315480278,-0.001037613488975353
1658790121186671,0.10833905546654421,1.0069123369192035,-0.008728160524910322
1658790121202671,0.09320210574502141,0.9958037689784085,-0.008606088349736751
1658790121218670,0.11395437552452847,0.9916533150225071,-5.493247882810692E-4
1658790121234670,0.11371023117418133,1.0082551308461127,0.0012817578393224949
1658790121250670,0.11041428244449492,0.9861600671396964,0.0071412222476539
1658790121266670,0.10101472495612995,0.9831082627603571,-0.004699778744182481
1658790121282670,0.09515526054779855,0.9978789959563592,-0.00579842832074462
1658790121298669,0.10296787975890709,1.0103303578240634,-0.010437170977340315
1658790121314669,0.10235751888303923,0.9876249332417792,-0.0060425726710917615
1658790121330669,0.11322194247348705,0.9755397878995957,0.0038452735179674846
1658790121346669,0.10833905546654421,1.0014190890363928,-0.00848401617456318
1658790121362669,0.1033340962844278,0.9984893568322271,-0.01361104753185316
1658790121378668,0.10138094148165067,1.0067902647440299,-0.023254749370565264
1658790121394668,0.10772869459067635,0.9940947585259785,-0.022400244144350268
1658790121410668,0.10992599374380063,0.98628213931487,-0.0042114900434881974
1658790121426668,0.10162508583199781,0.9987335011825742,1.831082627603564E-4
1658790121442668,0.10577553978789922,1.0105745021744106,-0.008728160524910322
1658790121458648,0.11444266422522276,1.0122835126268406,-0.018127718013275285
1658790121474648,0.1205462729839013,1.0100862134737163,-0.017883573662928143
1658790121490648,0.10736247806515564,0.9873807888914321,-0.014587624933241727
1658790121506648,0.10467689021133708,0.9792019531548029,-0.005188067444876765
1658790121522647,0.09686427100022854,1.0131380178530556,-0.006897077897306758
1658790121538647,0.10699626153963493,1.0157015335317006,-0.017639429312581
1658790121554647,0.13482871747921,1.027786678873884,-0.02020294499122599
1658790121570647,0.11407644769970204,1.0097199969481956,-0.0109254596780346
1658790121586647,0.11566338597695847,0.9893339436942092,0.001037613488975353
1658790121602646,0.09710841535057568,0.9790798809796293,-0.0016479743648432077
1658790121618646,0.10028229190508853,1.0023956664377813,-0.0040894178683146265
1658790121634646,0.10772869459067635,1.0055695429922942,-0.021057450217440987
1658790121650646,0.1050431067368578,1.0091096360723277,-0.015075913633936011
1658790121666646,0.09478904402227784,0.9877470054169528,-0.0061646448462653325
1658790121682645,0.10357824063477494,0.97602807660029,0.0060425726710917615
1658790121698645,0.1138323033493549,0.9842069123369193,0.011291676203555312
1658790121714645,0.12079041733424845,0.9912870984969864,0.016540779736018862
1658790121730645,0.1079728389410235,0.9815213244831007,0.006408789196612474
1658790121746645,0.11273365377279276,0.9755397878995957,0.005920500495918191
1658790121762644,0.10870527199206492,1.0011749446860456,0.0040894178683146265
1658790121778656,0.11041428244449492,0.9748073548485543,0.001159685664148924
1658790121794655,0.12164492256046344,0.9610131990539408,0.008850232700083893
1658790121810655,0.11126878767070991,0.9705348287174793,0.010070954451819603
1658790121826655,0.11139085984588348,0.9788357366292821,0.006286717021438903
1658790121842655,0.11883726253147131,0.9927519645990692,-0.0017700465400167786
1658790121858655,0.12884718089570502,1.0091096360723277,0.002868696116578917
1658790121874654,0.14117647058823568,1.0103303578240634,0.016906996261539575
1658790121890654,0.1351949340047307,1.0049591821164263,0.020813305867093845
1658790121906654,0.1222552834363313,1.0047150377660792,0.019470511940184565
1658790121922654,0.10113679713130352,1.005325398641947,0.011169604028381741
1658790121938654,0.10235751888303923,1.001907377737087,-0.006775005722133187
1658790121954653,0.08917372396429357,0.9878690775921264,-0.010559243152513886
1658790121970653,0.08709849698634287,0.9835965514610514,-0.015442130159456724
1658790121986653,0.0995498588540471,0.98970016021973,-0.009094377050431035
1658790122002653,0.10565346761272565,0.9980010681315328,-0.007507438773174613
1658790122018653,0.11078049897001563,0.9868925001907378,-0.006530861371786045
1658790122034652,0.1193255512321656,1.000808728160525,-0.007629510948348184
1658790122050652,0.1176165407797356,1.0340123598077362,-0.011169604028381741
1658790122066652,0.1214007782101163,1.0216830701152055,-0.01239032578011745
1658790122082652,0.12249942778667844,0.9813992523079271,-0.011169604028381741
1658790122098663,0.11920347905699202,0.9859159227893493,-0.014343480582894585
1658790122114663,0.12079041733424845,1.0139925230792706,-0.023620965896085977
1658790122130663,0.11798275730525631,1.0052033264667735,-0.029724574654764524
1658790122146662,0.12176699473563701,0.9861600671396964,-0.027161058976119534
1658790122162662,0.12445258258945557,0.9739528496223393,-0.02154573891813527
1658790122178662,0.11334401464866062,0.9737087052719922,-0.016662851911192433
1658790122194662,0.11834897383077703,0.9966582742046235,-0.01861600671396957
1658790122210662,0.11285572594796633,0.9926298924238957,-0.018249790188448856
1658790122226661,0.12506294346532432,0.9735866330968186,-0.019836728465705278
1658790122242661,0.11639581902799989,0.9660181582360572,-0.021667811093308842
1658790122258661,0.12664988174258074,0.9770046540016786,-0.01361104753185316
1658790122274661,0.11920347905699202,0.9723659113450829,-0.01483176928358887
1658790122290660,0.1184710460059506,0.9600366216525522,-0.014343480582894585
1658790122306660,0.12957961394674644,0.9903105210955978,-0.006286717021438903
1658790122322660,0.12530708781567146,0.9859159227893493,-0.004455634393835339
1658790122338660,0.13128862439917643,0.9763942931258107,-7.934691386282111E-4
1658790122354660,0.12115663385976916,0.9843289845120928,-0.008239871824216038
1658790122370659,0.11993591210803345,1.0034943160143435,-0.01641870756084529
1658790122386659,0.1205462729839013,0.9962920576791028,-0.013122758831158876
1658790122402659,0.12860303654535787,0.9673609521629665,-0.005676356145571049
1658790122418640,0.12042420080872773,0.9687037460898758,-0.00848401617456318
1658790122434640,0.12713817044327502,0.9987335011825742,0.00457770656900891
1658790122450639,0.11725032425421489,1.0150911726558327,-0.001159685664148924
1658790122466639,0.12494087129014986,1.0316929884794384,-0.007263294422827471
1658790122482639,0.1176165407797356,1.0043488212405585,-0.014221408407721015
1658790122498639,0.12469672693980272,0.9722438391699093,0.006408789196612474
1658790122514639,0.11615167467765275,0.9762722209506371,0.007507438773174613
1658790122530638,0.11822690165560346,1.0066681925688563,0.0042114900434881974
1658790122546638,0.09918364232852639,1.0082551308461127,-0.012634470130464592
1658790122562638,0.10235751888303923,0.985427634088655,-0.010437170977340315
1658790122578638,0.12579537651636574,1.0056916151674677,0.006775005722133187
1658790122594637,0.1100480659189742,1.0049591821164263,0.017029068436713146
1658790122610637,0.11615167467765275,0.9966582742046235,0.015075913633936011
1658790122626637,0.10467689021133708,0.9883573662928207,-4.272526131074983E-4
1658790122642637,0.12213321126115773,0.9948271915770199,-0.002868696116578917
1658790122658637,0.11444266422522276,1.0032501716639963,-0.001037613488975353
1658790122674636,0.11224536507209848,1.002517738612955,-0.0012817578393224949
1658790122690636,0.10943770504310635,0.9911650263218128,0.002746623941405346
1658790122706636,0.10894941634241206,0.9655298695353629,0.01373311970702673
1658790122722636,0.1281147478446636,0.9864042114900435,0.011169604028381741
1658790122738647,0.11053635461966849,1.023514152742809,6.103608758678547E-5
1658790122754647,0.12164492256046344,1.0076447699702449,-0.005310139620050336
1658790122770647,0.11834897383077703,0.9815213244831007,-0.0018921187151903496
1658790122786646,0.1293354695963993,0.9789578088044557,0.005188067444876765
1658790122802646,0.11956969558251274,0.9848172732127871,-0.0017700465400167786
1658790122818646,0.11224536507209848,0.9978789959563592,-0.007263294422827471
1658790122834646,0.1129777981231399,1.0115510795757992,-0.018493934538795997
1658790122850646,0.11578545815213204,0.9921416037232014,-0.00836194399938961
1658790122866645,0.1267719539177543,0.9789578088044557,0.011413748378728883
1658790122882645,0.11859311818112417,0.9865262836652171,0.010437170977340315
1658790122898645,0.11810482948042988,1.0038605325398642,-0.0038452735179674846
1658790122914645,0.11444266422522276,0.9970244907301442,-0.02398718242160669
1658790122930645,0.12115663385976916,0.9877470054169528,-0.011169604028381741
1658790122946644,0.11663996337834703,0.9909208819714657,-0.00970473792629889
1658790122962644,0.11956969558251274,0.9909208819714657,0.0012817578393224949
1658790122978644,0.11224536507209848,0.9772487983520257,0.008117799649042468
1658790122994644,0.11078049897001563,0.9655298695353629,-0.0026245517662317752
1658790123010644,0.11712825207904132,0.9951934081025406,-0.010193026626993174
1658790123026643,0.1062638284885935,1.0083772030212863,-0.013488975356679589
1658790123042643,0.11712825207904132,0.9821316853589686,-0.006775005722133187
1658790123058624,0.11273365377279276,0.9673609521629665,0.0014038300144960658
1658790123074624,0.12091248950942202,0.9696803234912643,0.0071412222476539
1658790123090623,0.12115663385976916,1.0165560387579156,0.010070954451819603
1658790123106623,0.10833905546654421,1.0066681925688563,-0.008728160524910322
1658790123122623,0.11700617990386775,0.9933623254749371,-0.01361104753185316
1658790123138623,0.11834897383077703,1.0047150377660792,-0.014465552758068156
1658790123154623,0.12799267566949002,1.0120393682764934,-0.007263294422827471
1658790123170622,0.11371023117418133,0.9971465629053178,-0.007629510948348184
1658790123186622,0.1088273441672385,0.9804226749065386,-0.0025024795910582043
1658790123202622,0.10577553978789922,0.982009613183795,-0.009094377050431035
1658790123218622,0.12469672693980272,1.0175326161593041,-0.018005645838101714
1658790123234622,0.12237735561150487,1.0261997405966277,-0.010193026626993174
1658790123250621,0.11651789120317346,0.9987335011825742,-4.272526131074983E-4
1658790123266621,0.11541924162661132,0.9900663767452507,0.0036011291676203427
1658790123282621,0.11712825207904132,0.9855497062638285,0.0022583352407110624
1658790123298621,0.11969176775768631,0.9972686350804914,-0.005065995269703194
1658790123314621,0.11212329289692491,1.0050812542916,-0.011902037079423167
1658790123330620,0.10345616845960137,0.97602807660029,-0.00982681010147246
1658790123346620,0.10467689021133708,0.9656519417105365,0.0012817578393224949
1658790123362620,0.11810482948042988,1.0030060273136492,0.004455634393835339
1658790123378631,0.11322194247348705,0.9990997177080949,0.0025024795910582043
1658790123394631,0.11749446860456203,0.9987335011825742,-0.002990768291752488
1658790123410631,0.11017013809414777,0.9971465629053178,-0.0039673456931410556
1658790123426631,0.12457465476462914,0.9936064698252842,0.010437170977340315
1658790123442630,0.11358815899900776,0.9910429541466392,0.007995727473868897
1658790123458630,0.11883726253147131,0.9876249332417792,0.0017700465400167786
1658790123474630,0.11065842679484206,0.9901884489204242,-0.007873655298695326
1658790123490630,0.11859311818112417,0.9936064698252842,0.0017700465400167786
1658790123506630,0.10724040588998207,0.9948271915770199,0.006286717021438903
1658790123522629,0.11407644769970204,0.9893339436942092,0.012146181429770309
1658790123538629,0.11578545815213204,0.9986114290074006,0.006652933546959616
1658790123554629,0.11139085984588348,1.0012970168612192,-0.0060425726710917615
1658790123570629,0.12176699473563701,0.9735866330968186,-0.0014038300144960658
1658790123586629,0.12079041733424845,0.990554665445945,-5.493247882810692E-4
1658790123602628,0.11517509727626418,1.0205844205386434,0.0015259021896696368
1658790123618628,0.11187914854657777,1.0000762951094835,0.0038452735179674846
1658790123634628,0.10833905546654421,0.9682154573891815,-0.0016479743648432077
1658790123650628,0.12384222171358772,1.0005645838101778,-0.001159685664148924
1658790123666628,0.11663996337834703,1.001907377737087,-0.009216449225604606
1658790123682627,0.11261158159761919,0.9906767376211185,-0.008850232700083893
1658790123698639,0.10846112764171778,0.97431906614786,-0.006775005722133187
1658790123714638,0.11639581902799989,0.97944609750515,-0.001037613488975353
1658790123730638,0.11688410772869418,1.0030060273136492,0.0012817578393224949
1658790123746638,0.11358815899900776,1.0069123369192035,-0.0020141908903639205
1658790123762638,0.11602960250247918,0.9994659342336156,-1.831082627603564E-4
1658790123778638,0.1146868085755699,0.9826199740596628,-0.003479056992446772
1658790123794637,0.124330510414282,0.9715114061188679,-0.0012817578393224949
1658790123810637,0.10565346761272565,0.9823758297093157,-0.0021362630655374915
1658790123826637,0.10943770504310635,0.9815213244831007,-0.003479056992446772
1658790123842637,0.10907148851758564,0.9992217898832685,-0.010070954451819603
1658790123858636,0.1129777981231399,0.9958037689784085,-0.007751583123521755
1658790123874636,0.12164492256046344,0.9922636758983749,0.003479056992446772
1658790123890636,0.1091935606927592,0.9752956435492486,0.002990768291752488
1658790123906636,0.10601968413824636,0.9713893339436943,0.007873655298695326
1658790123922636,0.10699626153963493,0.9915312428473335,5.493247882810692E-4
1658790123938635,0.11627374685282632,1.0048371099412527,-0.002746623941405346
1658790123954635,0.11834897383077703,1.0280308232242312,-0.008117799649042468
1658790123970635,0.11651789120317346,1.0028839551384756,-0.006652933546959616
1658790123986635,0.1155413138017849,0.9654077973601893,0.00970473792629889
1658790124002635,0.1109025711451892,0.9923857480735485,0.01361104753185316
1658790124018615,0.10614175631341993,1.024979018844892,-0.0021362630655374915
1658790124034615,0.11505302510109061,1.026688029297322,-0.007873655298695326
1658790124050615,0.10614175631341993,1.0082551308461127,-0.007629510948348184
1658790124066615,0.11419851987487561,0.9938506141756314,0.007751583123521755
1658790124082615,0.1071183337148085,0.9835965514610514,0.007873655298695326
1658790124098614,0.1050431067368578,0.9931181811245899,0.009948882276646032
1658790124114614,0.10284580758373352,1.0094758525978484,-0.004821850919356052
1658790124130614,0.11187914854657777,1.0293736171511405,-0.005188067444876765
1658790124146614,0.1109025711451892,1.005325398641947,-0.001159685664148924
1658790124162613,0.11322194247348705,0.9727321278706036,0.01739528496223386
1658790124178613,0.10382238498512208,0.9799343862058443,0.01226825360494388
1658790124194613,0.11065842679484206,1.004226749065385,0.00579842832074462
1658790124210613,0.10174715800717138,0.9911650263218128,-0.0061646448462653325
1658790124226613,0.10479896238651065,0.9910429541466392,-0.004333562218661768
1658790124242612,0.1050431067368578,1.006179903868162,0.001037613488975353
1658790124258612,0.11273365377279276,1.003616388189517,0.014221408407721015
1658790124274612,0.10601968413824636,0.9718776226443886,0.017029068436713146
1658790124290612,0.10687418936446136,0.9551537346456094,0.010437170977340315
1658790124306612,0.10699626153963493,0.9872587167162585,-0.0071412222476539
1658790124322611,0.10492103456168422,1.0132600900282291,-0.013000686655985305
1658790124338623,0.11102464332036277,1.000808728160525,-0.00836194399938961
1658790124354622,0.11285572594796633,0.9678492408636608,0.0038452735179674846
1658790124370622,0.1184710460059506,0.9813992523079271,0.011413748378728883
1658790124386622,0.12042420080872773,0.98970016021973,0.008972304875257464
1658790124402622,0.11029221026932134,0.9961699855039292,-0.0026245517662317752
1658790124418622,0.10174715800717138,0.9997100785839628,-0.013000686655985305
1658790124434621,0.11163500419623062,0.9940947585259785,-0.008850232700083893
1658790124450621,0.11541924162661132,1.0023956664377813,5.493247882810692E-4
1658790124466621,0.10638590066376707,0.9798123140306707,0.005065995269703194
1658790124482621,0.10699626153963493,0.9936064698252842,0.0025024795910582043
1658790124498621,0.09381246662088927,0.9873807888914321,-0.00836194399938961
1658790124514620,0.1100480659189742,0.978591592278935,-0.0025024795910582043
1658790124530620,0.10980392156862706,1.0127718013275349,3.0518043793392735E-4
1658790124546620,0.10553139543755208,0.9945830472266728,0.0020141908903639205
1658790124562620,0.10748455024032921,0.9840848401617457,0.0039673456931410556
1658790124578620,0.09881742580300568,0.9960479133287556,0.0012817578393224949
1658790124594619,0.10858319981689135,0.9920195315480278,-0.007629510948348184
1658790124610619,0.10370031280994851,1.0170443274586098,-0.01226825360494388
1658790124626619,0.1091935606927592,1.0236362249179827,-0.010070954451819603
1658790124642619,0.11102464332036277,0.9994659342336156,0.004333562218661768
1658790124658599,0.11212329289692491,0.9947051194018464,0.0012817578393224949
1658790124674599,0.10675211718928779,1.0089875638971542,-0.009338521400778177
1658790124690599,0.10528725108720494,1.0299839780270084,-0.013000686655985305
1658790124706599,0.10980392156862706,1.0452429999237047,-0.015320057984283153
1658790124722599,0.11139085984588348,1.0253452353704127,-0.01239032578011745
1658790124738598,0.1205462729839013,1.0216830701152055,-0.0023804074158846333
1658790124754598,0.12372014953841415,1.0539101243610283,-0.008239871824216038
1658790124770598,0.12091248950942202,1.060502021820401,-0.015686274509803866
1658790124786598,0.12164492256046344,1.0651407644769968,-0.019592584115358136
1658790124802598,0.1318989852750443,1.064530403601129,-0.022156099794003126
1658790124818597,0.1419089036392771,1.0876020447089338,-0.009216449225604606
1658790124834597,0.14508278019378995,1.1020065613794152,-0.00970473792629889
1658790124850597,0.14764629587243494,1.067093919279774,-0.01617456321049815
1658790124866597,0.1448386358434428,1.0684367132066832,-0.008117799649042468
1658790124882597,0.13714808880750784,1.114579995422293,-0.009094377050431035
1658790124898596,0.1360494392309457,1.100907911802853,-0.0109254596780346
1658790124914596,0.15008773937590636,1.0790569924467839,-0.014587624933241727
1658790124930596,0.1776760509651334,1.093217364766918,-0.004455634393835339
1658790124946596,0.18414587624933265,1.1186083772030209,0.0036011291676203427
1658790124962596,0.17743190661478625,1.0913862821393145,0.003479056992446772
1658790124978607,0.17352559700923198,1.065384908827344,-4.272526131074983E-4
1658790124994607,0.18451209277485336,1.141557946135653,-0.0071412222476539
1658790125010606,0.21527428091859324,1.2231021591515985,-0.01226825360494388
1658790125026606,0.2284580758373389,1.2047913328755628,-0.02020294499122599
1658790125042606,0.24713511863889526,1.136430914778363,-0.023010605020218122
1658790125058606,0.2595864805065995,1.1193408102540623,-0.023254749370565264
1658790125074606,0.26349279011215376,1.155840390630961,-0.01886015106431671
1658790125090605,0.25348287174792095,1.153521019302663,-0.04754711223010588
1658790125106605,0.23004501411459533,1.0900434882124053,-0.06073090714885154
1658790125122605,0.2781414511329823,1.111161974517433,-0.049134050507362304
1658790125138605,0.2852216372930494,1.190508888380255,-0.045471885252155175
1658790125154605,0.2960860608834972,1.1388723582818345,-0.029968719005111666
1658790125170604,0.3134203097581443,1.0434119172961012,-0.01617456321049815
1658790125186604,0.31903562981612854,1.0663614862287325,0.010803387502861028
1658790125202604,0.36310368505378765,1.1502250705729766,-0.001037613488975353
1658790125218604,0.3809262226291299,1.1046921492332338,0.005188067444876765
1658790125234604,0.393987945372702,1.023514152742809,0.014465552758068156
1658790125250603,0.424139772640574,0.9804226749065386,0.02911421377889667
1658790125266603,0.42951094834821113,0.98115510795758,0.04730296787975874
1658790125282603,0.4191348134584576,0.9926298924238957,0.020813305867093845
1658790125298614,0.420721751735714,0.9469748989089801,0.022278171969176697
1658790125314614,0.4606393530174717,0.8847180895704589,0.03668268863965807
1658790125330614,0.48664072632944233,0.8407721065079725,0.04486152437628732
1658790125346614,0.49030289158464946,0.7792477302204928,0.05682459754329727
1658790125362613,0.4749217975127795,0.742748149843595,0.08429083695735073
1658790125378613,0.5021438925764858,0.7812008850232699,0.08404669260700359
1658790125394613,0.5366903181506064,0.8382085908293275,0.08599984740978073
1658790125410613,0.567818722819867,0.7499504081788357,0.1062638284885935
1658790125426612,0.5941863126573583,0.6154268711375597,0.13592736705577213
1658790125442612,0.6007782101167312,0.5260700389105057,0.18036163881895195
1658790125458612,0.6430151827267876,0.6207980468451968,0.18072785534447267
1658790125474612,0.6631570916304268,0.6494850080109869,0.14264133669031853
1658790125490612,0.6673075455863282,0.4960402838178073,0.1570458533607999
1658790125506611,0.6782940413519496,0.41181048294804334,0.19855039291981402
1658790125522611,0.6819562066071567,0.45795376516365316,0.2016021972991533
1658790125538611,0.6707255664911882,0.5014114595254444,0.20416571297779829
1658790125554611,0.7157701991302359,0.48957045853360803,0.2112458991378654
1658790125570611,0.7460440985732815,0.4251163500419626,0.2138094148165104
1658790125586610,0.7825436789501792,0.31525139238574784,0.2322423132677196
1658790125602610,0.8318608377203018,0.3489433127336534,0.2678873884184023
1658790125618591,0.8043945983062484,0.3571221484702827,0.23749141680018315
1658790125634591,0.8068360418097198,0.30511940184634145,0.22528419928282606
1658790125650591,0.8134279392690926,0.34381628137636344,0.20013733119707044
1658790125666590,0.833813992523079,0.3020675974670022,0.19671931029221046
1658790125682590,0.8488288700694282,0.22980086976424818,0.2571450370031281
1658790125698590,0.8273441672388797,0.23321889066910817,0.24164187075608456
1658790125714590,0.8095216296635384,0.18329137102311766,0.23297474631876103
1658790125730589,0.8262455176623176,0.23712520027466244,0.1990386816205083
1658790125746589,0.8650644693675131,0.19671931029221046,0.24603646906233312
1658790125762589,0.9142595559624631,0.27496757457846943,0.27069504844739445
1658790125778589,0.9009536888685439,0.23260852979324032,0.2506752117189288
1658790125794589,0.8212405584802012,0.10186923018234495,0.26190585183489734
1658790125810588,0.8219729915312426,0.0651255054551001,0.2868085755703058
1658790125826588,0.8606698710612646,0.2095368886854354,0.2935225452048522
1658790125842588,0.8881361104753189,0.3124437323567557,0.2709391927977416
1658790125858588,0.8842298008697647,0.20123598077363258,0.269962615396353
1658790125874588,0.895216296635386,0.014465552758068156,0.2893720912489508
1658790125890587,0.894361791409171,0.05011062790875087,0.3389333943694206
1658790125906587,0.8815442130159461,0.18500038147554765,0.3325856412603949
1658790125922587,0.8505378805218582,0.10186923018234495,0.32916762035553493
1658790125938598,0.8402838178072782,0.00848401617456318,0.3523613336385134
1658790125954598,0.8272220950637061,-0.029602502479590953,0.3401541161211563
1658790125970598,0.8108644235904476,-0.041565575646600905,0.3427176317998013
1658790125986598,0.8498054474708168,0.03033493553063238,0.3535820553902491
1658790126002597,0.8924086366063939,-0.007995727473868897,0.3700617990386812
1658790126018597,0.9193865873197531,-0.1923247119859619,0.4018005645838105
1658790126034597,0.917433432516976,-0.28546578164339653,0.42182040131227616
1658790126050597,0.9147478446631574,-0.2687418936446173,0.43952086671244395
1658790126066597,0.8911879148546582,-0.1986724650949876,0.4502632181277182
1658790126082596,0.8721446555275802,-0.20965896086060898,0.44208438239108894
1658790126098596,0.8222171358815897,-0.25934233615625235,0.44757763027389963
1658790126114596,0.7720454718852521,-0.3278248264286261,0.4767528801403831
1658790126130596,0.7486076142519265,-0.3894712748912794,0.4965285725185016
1658790126146596,0.7670405127031357,-0.4414740215152211,0.4846875715266652
1658790126162595,0.782299534599832,-0.561837186236362,0.4682078278782331
1658790126178595,0.8185549706263826,-0.6281223773556115,0.45551232166018174
1658790126194595,0.8343022812237733,-0.5503624017700464,0.4606393530174717
1658790126210595,0.8529793240253296,-0.4148622873273822,0.4824902723735409
1658790126226595,0.8434576943617911,-0.3589532310978867,0.46002899214160387
1658790126242594,0.829541466392004,-0.4408636606393532,0.47736324101625094
1658790126258575,0.8467536430914775,-0.44000915541313823,0.49457541771572444
1658790126274575,0.8456549935149154,-0.4009460593575951,0.47431143663691167
1658790126290575,0.8482185091935603,-0.4341496910048064,0.46552224002441456
1658790126306574,0.8368657969024182,-0.43988708323796466,0.44110780498970037
1658790126322574,0.830395971618219,-0.4142519264515143,0.4041199359121084
1658790126338574,0.8245365072098876,-0.3975280384527351,0.42401770046540044
1658790126354574,0.8186770428015562,-0.3269703212024111,0.4110780498970019
1658790126370574,0.8074464026855876,-0.3235523002975511,0.39044785229266843
1658790126386573,0.8247806515602347,-0.2976729991607536,0.3900816357671477
1658790126402573,0.8247806515602347,-0.28290226596475154,0.37860685130083205
1658790126418573,0.8090333409628441,-0.28326848249027226,0.3699397268635076
1658790126434573,0.7920653086137177,-0.2377355611505303,0.3714045929655905
1658790126450573,0.7710688944838635,-0.206240939955749,0.3716487373159376
1658790126466572,0.7716792553597314,-0.17523460746166153,0.3582207980468448
1658790126482572,0.778881513694972,-0.07953002212558191,0.3356374456397342
1658790126498572,0.7776607919432363,-0.027038986800945963,0.29706263828488577
1658790126514572,0.784008545052262,-0.04693675135423803,0.3098802166781107
1658790126530572,0.7727779049362935,0.011169604028381741,0.2805828946364537
1658790126546571,0.7923094529640649,0.1024795910582128,0.27191577019913016
1658790126562571,0.8151369497215226,0.15521477073319634,0.26434729533836876
1658790126578582,0.8220950637064162,0.20379949645227757,0.22858014801251247
1658790126594582,0.7956054016937513,0.2208896009765775,0.19501029983978047
1658790126610582,0.8239261463340197,0.3031662470435643,0.1797512779430841
1658790126626582,0.8385748073548482,0.41181048294804334,0.12616159304188646
1658790126642582,0.8103761348897534,0.344792858777752,0.07708857862211005
1658790126658581,0.8148928053711755,0.2830243381399251,0.06475928892957938
1658790126674581,0.789135576409552,0.3037766079194322,0.0756237125200272
1658790126690581,0.7792477302204928,0.48358892195010306,0.02545204852368954
1658790126706581,0.7522697795071336,0.5536583504997328,-0.03692683299000521
1658790126722581,0.7702143892576485,0.5147173266193636,-0.03533989471274879
1658790126738580,0.8294193942168304,0.5836881055924312,0.02532997634851597
1658790126754580,0.7628900587472343,0.5253376058594643,0.027161058976119534
1658790126770580,0.7332265201800565,0.4657663843747617,-0.02423132677195383
1658790126786580,0.7058823529411766,0.5764858472571905,-0.06451514457923269
1658790126802580,0.6956282902265967,0.7807125963225756,-0.1047989623865111
1658790126818579,0.7029526207370109,0.7447013046463722,-0.07904173342488763
1658790126834579,0.7049057755397881,0.6298313878080419,-0.06121919584954583
1658790126850579,0.6791485465781646,0.5993133440146483,-0.031311512932020946
1658790126866579,0.6647440299076832,0.7733882658121614,-0.06012054627298369
1658790126882578,0.6977035172045474,0.9553978789959565,-0.10406652933546967
1658790126898590,0.721141374837873,0.9361104753185323,-0.129579613946746
1658790126914590,0.6979476615548945,0.7233386739909973,-0.08856336308842616
1658790126930589,0.6779278248264289,0.5845426108186462,-0.03472953383688093
1658790126946589,0.6196993972686347,0.7475089646753643,-0.043030441748683756
1658790126962589,0.6010223544670783,0.9419699397268637,-0.09539940489814613
1658790126978589,0.5777065690089263,0.9203631647211417,-0.13092240787365528
1658790126994588,0.566964217593652,0.7110093842984666,-0.10699626153963537
1658790127010588,0.5596398870832378,0.6706034943160146,-0.028870069428549527
1658790127026588,0.5228961623559929,0.9210955977721831,-0.02154573891813527
1658790127042588,0.5303425650415807,1.0288853284504462,-0.06329442282749698
1658790127058588,0.5634241245136185,0.9159685664148931,-0.09356832227054257
1658790127074587,0.5701380941481649,0.74360265506981,-0.06683451590753053
1658790127090587,0.5467002365148392,0.8395513847562368,-0.038757915617608774
1658790127106587,0.4883497367818723,0.942458228427558,-0.06915388723582838
1658790127122587,0.4762645914396888,0.9309834439612423,-0.08941786831464116
1658790127138587,0.4682078278782331,0.8593270771343553,-0.07049668116273766
1658790127154586,0.46857404440375383,0.9270771343556881,-0.050598916609445155
1658790127170586,0.4263370717936983,1.0230258640421148,-0.07928587777523477
1658790127186586,0.4461127641718168,1.0379186694132905,-0.1077286945906768
1658790127202586,0.4566109712367439,0.9864042114900435,-0.0896620126649883
1658790127218567,0.48615243762874805,0.9595483329518579,-0.04388494697489875
1658790127234566,0.4650339513237203,1.1397268635080495,-0.058289463645380124
1658790127250566,0.42780193789578114,1.2320134279392692,-0.13092240787365528
1658790127266566,0.41815823605706903,1.0822308690012967,-0.1581445029373616
1658790127282566,0.430121309224079,1.1096971084153502,-0.1077286945906768
1658790127298565,0.42865644312199613,1.279255359731441,-0.1328755626764324
1658790127314565,0.40167849240863696,1.248249027237354,-0.1455710688944838
1658790127330565,0.40961318379491907,1.1715877012283515,-0.16559090562294942
1658790127346565,0.44122987716487394,1.210406652933547,-0.15826657511253517
1658790127362565,0.43573662928206325,1.3496910048065915,-0.15118638895246805
1658790127378564,0.4072938124666212,1.3736171511406114,-0.1388570992599374
1658790127394564,0.40851453421835693,1.2672922865644312,-0.13678187228198668
1658790127410564,0.42951094834821113,1.2504463263904784,-0.1039444571602961
1658790127426564,0.43524834058136896,1.3242999923704888,-0.09295796139467472
1658790127442564,0.4187685969329369,1.3061112382696267,-0.09979400320439469
1658790127458563,0.3980163271534298,1.187090867475395,-0.10443274586099038
1658790127474563,0.40119020370794267,1.2055237659266043,-0.10284580758373396
1658790127490563,0.4270695048447397,1.2770580605783168,-0.09491111619745185
1658790127506563,0.41889066910811046,1.2436102845807584,-0.09149309529259186
1658790127522563,0.42987716487373184,1.111161974517433,-0.09210345616845972
1658790127538574,0.4539253833829253,1.1046921492332338,-0.09002822919050901
1658790127554574,0.4732127870603495,1.1967345693141072,-0.08831921873807902
1658790127570573,0.45380331120775175,1.141313801785306,-0.08612191958495474
1658790127586573,0.47345693141069667,0.9873807888914321,-0.08245975432974761
1658790127602573,0.4984817273212787,0.9823758297093157,-0.09295796139467472
1658790127618573,0.49616235599298086,1.0257114518959334,-0.08783093003738474
1658790127634573,0.5003128099488823,1.0255893797207598,-0.09759670405127041
1658790127650572,0.5171587701228351,0.8988784618905932,-0.07013046463721695
1658790127666572,0.5360799572747386,0.8271000228885326,-0.06671244373235696
1658790127682572,0.5639124132143127,0.820141908903639,-0.032410162508583085
1658790127698572,0.5878385595483326,0.8393072404058897,-0.036194399938963784
1658790127714572,0.5757534142061491,0.8574959945067517,-0.049500267032883016
1658790127730571,0.5792935072861827,0.7807125963225756,-0.04693675135423803
1658790127746571,0.6204318303196761,0.6741435873960482,-0.007629510948348184
1658790127762571,0.6406958113984897,0.656565194171054,0.027283131151293105
1658790127778571,0.6236057068741889,0.5908903639276719,0.016784924086366004
1658790127794571,0.6156710154879068,0.5139848935683222,0.018371862363622427
1658790127810570,0.6450904097047383,0.4766308079652095,0.04071107042038591
1658790127826570,0.6751201647974368,0.5401083390554664,0.04888990615701516
1658790127842570,0.6828107118333717,0.49921416037232014,0.06451514457923224
1658790127858551,0.6881818875410088,0.3766536964980549,0.11151293202105705
1658790127874550,0.7107652399481195,0.2924238956282901,0.13006790264744073
1658790127890550,0.7241931792172123,0.2962081330586708,0.1785305561913484
1658790127906550,0.7573968108644236,0.3620050354772255,0.18622110322728336
1658790127922550,0.7656977187762264,0.2962081330586708,0.17535667963683554
1658790127938550,0.7490959029526207,0.1293354695963993,0.17120622568093413
1658790127954549,0.76411078049897,0.08685435263599572,0.20050354772259116
1658790127970549,0.7941405355916684,0.2133211261158161,0.2246738384069582
1658790127986549,0.7727779049362935,0.16266117341878417,0.22687113756008248
1658790128002549,0.8050049591821162,0.09600976577401354,0.21942473487449465
1658790128018549,0.8234378576333254,0.016662851911192433,0.19354543373769761
1658790128034548,0.8325932707713433,-0.04376287479972518,0.23749141680018315
1658790128050548,0.8556649118791482,-0.0508430609597923,0.27032883192187374
1658790128066548,0.8433356221866175,-0.06549172198062125,0.3165941863126571
1658790128082548,0.8280766002899211,-0.0016479743648432077,0.313786526283665
1658790128098548,0.8119630731670098,-0.022156099794003126,0.2852216372930494
1658790128114547,0.8616464484626531,-0.1388570992599374,0.2960860608834972
1658790128130547,0.9224383916990924,-0.1325093461509117,0.3191577019913021
1658790128146547,0.9439230945296408,-0.16961928740367727,0.35089646753643056
1658790128162547,0.9207293812466624,-0.2931563286793315,0.3833676661326013
1658790128178558,0.8863050278477154,-0.28375677119096654,0.4120546272983905
1658790128194558,0.8493171587701225,-0.18219272144655507,0.39032578011749486
1658790128210558,0.8224612802319369,-0.1703517204547187,0.38153658350499775
1658790128226557,0.832104982070649,-0.20209048599984758,0.36981765468833405
1658790128242557,0.8715342946517124,-0.25983062485694663,0.38873884184023844
1658790128258557,0.858838788433661,-0.40997940032043934,0.3687190051117719
1658790128274557,0.8744640268558781,-0.5137407492179751,0.3826352330815599
1658790128290557,0.8882581826504925,-0.40033569848172723,0.38031586175326204
1658790128306556,0.8805676356145575,-0.2713054093232623,0.3688410772869455
1658790128322556,0.8506599526970318,-0.28204776073853655,0.35553521019302625
1658790128338556,0.8446784161135268,-0.3806820782787823,0.37409018081940903
1658790128354556,0.8643320363164717,-0.3782406347753109,0.38202487220569203
1658790128370556,0.866529335469596,-0.33722438391699106,0.3571221484702827
1658790128386555,0.8744640268558781,-0.3454032196536203,0.35809872587167124
1658790128402555,0.8621347371633474,-0.32758068207827895,0.35309376668955483
1658790128418555,0.8628671702143889,-0.27618829633020514,0.36310368505378765
1658790128434555,0.8681162737468524,-0.2561684596017395,0.3816586556801713
1658790128450554,0.8850843060959797,-0.23504997329671173,0.39325551232166056
1658790128466554,0.8780041199359125,-0.2124666208896011,0.3876401922636763
1658790128482554,0.8709239337758445,-0.20099183642328544,0.3738460364690619
1658790128498565,0.8428473334859232,-0.19415579461356547,0.36554512855725907
1658790128514565,0.8180666819256883,-0.14105439841306167,0.35687800411993553
1658790128530565,0.8416266117341875,-0.050720988784618726,0.3401541161211563
1658790128546565,0.8491950865949489,-0.04083314259555948,0.345647364003967
1658790128562564,0.8529793240253296,-0.0733043411917298,0.32867933165484065
1658790128578564,0.8345464255741204,-0.08331425955596261,0.31903562981612854
1658790128594564,0.8195315480277712,0.0037232013427939137,0.2990157930876629
1658790128610564,0.8296635385671776,0.08953994048981428,0.26361486228732733
1658790128626564,0.827832455939574,0.08905165178912,0.24176394293125814
1658790128642563,0.8239261463340197,0.07403677424277078,0.23468375677119102
1658790128658563,0.8290531776913097,0.16644541084916487,0.2444495307850767
1658790128674563,0.832959487296864,0.26776531624322875,0.22357518883039607
1658790128690563,0.8247806515602347,0.30682841229877145,0.19134813458457334
1658790128706563,0.8325932707713433,0.3104905775539786,0.14728007934691423
1658790128722562,0.8194094758525976,0.2915693904020751,0.12152285038528987
1658790128738562,0.8468757152666511,0.3187914854657814,0.14288548104066567
1658790128754562,0.8322270542458226,0.4757763027389945,0.12738231479362216
1658790128770562,0.7984130617227434,0.4778515297169452,0.06024261844815726
1658790128786562,0.7919432364385441,0.41351949340047334,0.0060425726710917615
1658790128802561,0.7974364843213548,0.44037537193865894,0.01495384145876244
1658790128818542,0.76069275959411,0.5326619363698786,0.037781338216220206
1658790128834542,0.7548332951857786,0.6416723887998783,0.008239871824216038
1658790128850542,0.7637445639734493,0.5861295490959026,-0.04571602960250232
1658790128866541,0.8035400930800334,0.4623483634699017,-0.04205386434729519
1658790128882541,0.7718013275349049,0.49750514991989014,0.00836194399938961
1658790128898541,0.7199206530861373,0.6950179293507288,-0.03411917296101308
1658790128914541,0.6996566720073245,0.7396963454642558,-0.0745250629434655
1658790128930541,0.7234607461661708,0.7390859845883879,-0.08392462043183047
1658790128946540,0.7709468223086899,0.5785610742351412,-0.04058899824521234
1658790128962540,0.7110093842984666,0.5651331349660484,-0.0038452735179674846
1658790128978540,0.6527809567406733,0.7866941329060806,-0.03326466773479808
1658790128994540,0.6210421911955439,0.8449225604638739,-0.11041428244449536
1658790129010540,0.6551003280689711,0.7664301518272678,-0.09954985885404755
1658790129026539,0.6887922484168767,0.7012436102845809,-0.03558403906309593
1658790129042539,0.6413061722743576,0.6964827954528117,-0.00848401617456318
1658790129058539,0.5955291065842676,0.8415045395590139,-0.050476844434271584
1658790129074539,0.5869840543221176,0.9151140611886781,-0.13775844968337525
1658790129090539,0.6115205615320054,0.8157473105973905,-0.15069810025177377
1658790129106538,0.6009002822919047,0.7493400473029679,-0.10150301365682468
1658790129122538,0.5833218890669105,0.825268940260929,-0.057068741893644415
1658790129138549,0.5379110399023421,0.9411154345006487,-0.06268406195162912
1658790129154549,0.5474326695658807,0.9368429083695737,-0.10650797283894109
1658790129170549,0.5750209811551077,0.906324864576181,-0.14190890363927666
1658790129186549,0.610788128480964,0.8720225833524067,-0.08978408484016187
1658790129202549,0.5777065690089263,0.9833524071107043,-0.08477912565804546
1658790129218548,0.5004348821240558,1.0020294499122606,-0.1228656443121996
1658790129234548,0.49530785076676587,0.8499275196459903,-0.12555123216601816
1658790129250548,0.4821240558480202,0.8880140383001454,-0.09222552834363329
1658790129266548,0.4708934157320517,1.0432898451209276,-0.09503318837262542
1658790129282548,0.4498970016021975,1.0390173189898526,-0.12127870603494317
1658790129298547,0.4589303425650417,0.97261005569543,-0.1555809872587166
1658790129314547,0.4816357671473259,0.9428244449530787,-0.12005798428320746
1658790129330547,0.4729686427100024,1.0109407186999313,-0.10284580758373396
1658790129346547,0.4339055466544597,1.0794232089723046,-0.09832913710231184
1658790129362547,0.4057068741893648,1.0160677500572213,-0.10968184939345393
1658790129378546,0.3947203784237434,0.968337529564355,-0.10699626153963537
1658790129394546,0.41974517433432545,1.0425574120698862,-0.12249942778667888
1658790129410546,0.44708934157320535,1.1502250705729766,-0.12249942778667888
1658790129426546,0.44867627985046177,1.118852521553368,-0.14862287327382306
1658790129442546,0.42182040131227616,1.0961470969710838,-0.1690089265278094
1658790129458557,0.4236514839398797,1.191119249256123,-0.14605935759517807
1658790129474557,0.46295872434576957,1.327107652399481,-0.1430075532158388
1658790129490556,0.4750438696879531,1.3092851148241396,-0.14923323414969092
1658790129506556,0.5097123674372472,1.1394827191577024,-0.11883726253147175
1658790129522556,0.5227740901808193,1.1944151979858093,-0.09613183794918756
1658790129538556,0.5200885023270008,1.2882887006942854,-0.11554131380178534
1658790129554556,0.4783398184176395,1.2638742656595712,-0.11810482948043033
1658790129570555,0.45380331120775175,1.1530327306019688,-0.11761654077973605
1658790129586555,0.45539024948500817,1.1133592736705573,-0.11053635461966893
1658790129602555,0.4719920653086138,1.17427328908217,-0.10711833371480894
1658790129618555,0.46015106431677744,1.128496223392081,-0.10528725108720538
1658790129634554,0.45038529030289176,1.0788128480964367,-0.1039444571602961
1658790129650554,0.4754100862134738,1.0879682612344546,-0.10577553978789966
1658790129666554,0.5153276874952315,1.098954757000076,-0.07428091859311836
1658790129682554,0.5203326466773479,1.1099412527656973,-0.05792324711985941
1658790129698554,0.5269245441367207,1.0220492866407263,-0.053162432288090145
1658790129714553,0.5429159990844585,0.9280537117570766,-0.060852979324025114
1658790129730553,0.5656214236667427,0.9490501258869308,-0.09356832227054257
1658790129746553,0.5659876401922634,1.0031280994888228,-0.10992599374380108
1658790129762553,0.560982681010147,0.917433432516976,-0.09369039444571614
1658790129778534,0.566109712367437,0.8003662165255205,-0.06829938200961339
1658790129794533,0.5735561150530248,0.7957274738689248,-0.05645838101777656
1658790129810533,0.5801480125123977,0.8253910124361026,-0.057068741893644415
1658790129826533,0.578927290760662,0.8163576714732583,-0.0252079041733424
1658790129842533,0.5895475700007626,0.7490959029526207,-0.014709697108415298
1658790129858533,0.6067597467002361,0.6293430991073476,-5.493247882810692E-4
1658790129874532,0.6500953688868547,0.6204318303196761,0.008606088349736751
1658790129890532,0.6657206073090718,0.6603494316014347,-0.007263294422827471
1658790129906532,0.7055161364156559,0.5545128557259478,0.04901197833218873
1658790129922532,0.7387197680628672,0.5088578622110322,0.07501335164415934
1658790129938532,0.7106431677729459,0.42975509269855827,0.09308003356984784
1658790129954531,0.7133287556267645,0.4064393072404062,0.1033340962844278
1658790129970531,0.7343251697566187,0.46393530174715814,0.10601968413824636
1658790129986531,0.7503166247043564,0.46588845654993527,0.11529716945143775
1658790130002531,0.7577630273899443,0.3695735103379869,0.1386129549095907
1658790130018530,0.7602044708934157,0.21832608529793252,0.18023956664377838
1658790130034530,0.7541008621347371,0.16559090562294987,0.23077744716563675
1658790130050530,0.7658197909514,0.37653162432288134,0.20257877470054186
1658790130066530,0.7798580910963606,0.47357900358587024,0.1579003585870149
1658790130082530,0.8467536430914775,0.3289234760051878,0.16058594644083346
1658790130098541,0.8996108949416346,0.16473640039673487,0.23004501411459533
1658790130114541,0.8799572747386897,0.1351949340047307,0.29254596780346365
1658790130130540,0.8311284046692604,0.14422827496757495,0.2993820096131836
1658790130146540,0.8137941557946133,0.24371709773403527,0.25006485084306096
1658790130162540,0.8107423514152741,0.2528725108720531,0.17401388570992626
1658790130178540,0.8474860761425189,0.07977416647592861,0.2003814755474176
1658790130194540,0.9031509880216682,0.03973449301899734,0.2595864805065995
1658790130210539,0.9110856794079503,0.06024261844815726,0.29303425650415793
1658790130226539,0.8557869840543217,0.03472953383688093,0.270817120622568
1658790130242539,0.8277103837644004,0.021911955443655984,0.26312657358663305
1658790130258539,0.8354009308003354,0.06768902113374509,0.24786755168993668
1658790130274539,0.840650034332799,0.09173723964293856,0.2667887388418402
1658790130290538,0.8516365300984203,0.038757915617608774,0.2876630807965208
1658790130306538,0.8939955748836503,-0.057312886243991557,0.30060273136491933
1658790130322538,0.912306401159686,-0.10882734416723894,0.3142748149843593
1658790130338538,0.951003280689708,0.018127718013275285,0.31525139238574784
1658790130354538,0.9342793926909287,0.05365072098878443,0.3019455252918286
1658790130370537,0.9141374837872895,0.03143358510719452,0.3153734645609214
1658790130386537,0.9230487525749602,-0.055725947966735134,0.31854734111543426
1658790130402537,0.8992446784161139,-0.15204089417868305,0.35223926146333984
1658790130418518,0.8858167391470211,-0.09320210574502186,0.3497978179598684
1658790130434517,0.8758068207827883,-0.03839169909208806,0.31696040283817783
1658790130450517,0.8870374608987568,-0.046814679179064456,0.3217212176699471
1658790130466517,0.918287937743191,-0.12249942778667888,0.345647364003967
1658790130482517,0.9030289158464946,-0.1850003814755472,0.37152666514076405
1658790130498517,0.8731212329289688,-0.19549858854047475,0.40253299763485195
1658790130514516,0.8572518501564046,-0.15802243076218803,0.40473029678797623
1658790130530516,0.8599374380102232,-0.16888685435263584,0.424994277866789
1658790130546516,0.8679942015716788,-0.18341344319829078,0.4132753490501262
1658790130562516,0.8844739452201118,-0.26153963530937663,0.4166933699549862
1658790130578516,0.8997329671168082,-0.29498741130693507,0.4216983291371026
1658790130594515,0.9259784847791259,-0.28632028686961153,0.4490424963759825
1658790130610515,0.917433432516976,-0.2688639658197909,0.46588845654993527
1658790130626515,0.878736552986954,-0.32330815594720397,0.4678416113527124
1658790130642515,0.8504158083466846,-0.34772259098191816,0.463691157396811
1658790130658515,0.8473640039673453,-0.31622796978713685,0.43781185626001395
1658790130674514,0.8601815823605703,-0.2871747920958265,0.4271915770199133
1658790130690514,0.861402304112306,-0.32758068207827895,0.43195239185168255
1658790130706514,0.8561532005798425,-0.32965590905622966,0.44489204242008107
1658790130722514,0.860547798886091,-0.24982070649271382,0.4299992370489054
1658790130738556,0.8719005111772331,-0.21600671396963467,0.43915465018692323
1658790130754555,0.8710460059510181,-0.1893949797817962,0.44916456855115605
1658790130770555,0.8720225833524067,-0.20233463035019472,0.4506294346532389
1658790130786555,0.8705577172503238,-0.24493781948577098,0.4484321355001146
1658790130802555,0.8590829327840082,-0.22320897230487535,0.44122987716487394
1658790130818555,0.8604257267109174,-0.12603952086671244,0.43366140230411254
1658790130834554,0.8456549935149154,-0.1001602197299154,0.41217669947356406
1658790130850554,0.8374761577782861,-0.1283588921950103,0.4204776073853669
1658790130866554,0.8456549935149154,-0.09942778667887398,0.40253299763485195
1658790130882554,0.827832455939574,-0.08978408484016187,0.40387579156176123
1658790130898553,0.8173342488746469,-0.05780117494468584,0.41437399862668833
1658790130914553,0.8234378576333254,-0.041565575646600905,0.38825055313954415
1658790130930553,0.820996414129854,-0.05279621576256943,0.3545586327916377
1658790130946553,0.823559929808499,-0.04962233920805659,0.33405050736247777
1658790130962553,0.8097657740138855,0.04254215304798947,0.3375906004425113
1658790130978552,0.7948729686427098,0.10211337453269209,0.3191577019913021
1658790130994552,0.8080567635614555,0.10113679713130352,0.3010910200656136
1658790131010552,0.8306401159685661,0.089906157015335,0.2659342336156252
1658790131026552,0.8208743419546805,0.12799267566949002,0.2536049439230945
1658790131042552,0.8004882887006941,0.19244678416113548,0.22955672541390104
1658790131058563,0.7802243076218813,0.2556801709010452,0.18377965972381194
1658790131074563,0.7671625848783092,0.2600747692072938,0.12909132524605216
1658790131090562,0.7791256580453192,0.3255054551003278,0.10992599374380063
1658790131106562,0.7731441214618142,0.4262149996185247,0.07586785687037434
1658790131122562,0.7910887312123291,0.4758983749141681,0.038757915617608774
1658790131138562,0.8108644235904476,0.3993591210803391,4.272526131074983E-4
1658790131154562,0.8114747844663155,0.36273746852826694,0.02532997634851597
1658790131170561,0.7760738536659799,0.49921416037232014,0.02935835812924381
1658790131186561,0.7362783245593958,0.6670634012359811,-0.04583810177767589
1658790131202561,0.7326161593041887,0.6049286640726326,-0.09308003356984829
1658790131218561,0.7500724803540093,0.5271686884870679,-0.06305027847714983
1658790131234561,0.7562981612878614,0.6776836804760817,0.0016479743648432077
1658790131250560,0.6876935988403146,0.76069275959411,-0.023620965896085977
1658790131266560,0.6912336919203481,0.7205310139620051,-0.09613183794918756
1658790131282560,0.7250476844434273,0.6886701762417031,-0.15191882200350948
1658790131298560,0.7344472419317922,0.6825665674830246,-0.08233768215457404
1658790131314560,0.6760967421988253,0.7658197909514,-0.06854352635996053
1658790131330559,0.635202563515679,0.8054932478828105,-0.1085831998168918
1658790131346559,0.6353246356908526,0.7866941329060806,-0.11725032425421533
1658790131362559,0.6561989776455333,0.8092774853131912,-0.10455481803616395
1658790131378540,0.6209201190203704,0.7050278477149616,-0.08465705348287189
1658790131394539,0.6007782101167312,0.7562981612878614,-0.06146334019989297
1658790131410539,0.573800259403372,0.9478294041351951,-0.09820706492713827
1658790131426539,0.5363241016250857,0.9113298237582974,-0.12213321126115817
1658790131442539,0.5702601663233384,0.7475089646753643,-0.10199130235751896
1658790131458539,0.5477988860914014,0.7462882429236286,-0.06512550545510054
1658790131474538,0.5326619363698786,0.8738536659800102,-0.05792324711985941
1658790131490538,0.4888380254825666,0.9325703822384988,-0.10760662241550323
1658790131506538,0.501533531700618,0.9016861219195853,-0.1464255741206988
1658790131522538,0.5097123674372472,0.8800793469138632,-0.11761654077973605
1658790131538538,0.5114213778896772,0.8618905928130003,-0.0829480430304419
1658790131554537,0.4652780956740674,0.8719005111772331,-0.05609216449225585
1658790131570537,0.419867246509499,0.9735866330968186,-0.09149309529259186
1658790131586537,0.389715419241627,0.908888380254826,-0.12982375829709314
1658790131602537,0.4024109254596784,0.8423590447852289,-0.12799267566948958
1658790131618537,0.4242618448157476,1.0136263065537499,-0.13324177920195313
1658790131634536,0.4166933699549862,1.0562294956893261,-0.14276340886549166
1658790131650536,0.4270695048447397,0.9900663767452507,-0.15216296635385662
1658790131666536,0.4195010299839783,0.914869916838331,-0.12628366521705958
1658790131682536,0.3986266880292977,1.0310826276035705,-0.13690394445716025
1658790131698547,0.37909514000152633,1.1701228351262687,-0.17853055619134794
1658790131714547,0.3826352330815599,1.109452964065003,-0.20563057907988114
1658790131730547,0.40717174029144765,1.0334019989318683,-0.18243686579690221
1658790131746546,0.423285267414359,1.1140917067215987,-0.17096208133058655
1658790131762546,0.3757991912718399,1.1669489585717558,-0.1870756084534979
1658790131778546,0.3432059205004956,1.1745174334325172,-0.2086823834592204
1658790131794546,0.32440680552376566,1.1708552681773101,-0.21576256961928753
1658790131810546,0.35846494239719195,1.2788891432059204,-0.19842832074464045
1658790131826545,0.39166857404440414,1.3268635080491338,-0.163149462119478
1658790131842545,0.3898374914168006,1.3157549401083388,-0.1476462958724345
1658790131858545,0.37689784084840205,1.242877851529717,-0.14361791409170666
1658790131874545,0.35797665369649767,1.3192950331883724,-0.1569237811856259
1658790131890545,0.35126268406195127,1.37288471808957,-0.15033188372625306
1658790131906544,0.33832303349355275,1.2708323796444647,-0.14569314106965736
1658790131922544,0.3141527428091857,1.1994201571679257,-0.16351567864499872
1658790131938544,0.3384451056687263,1.1955138475623714,-0.14911116197451735
1658790131954544,0.36176089112687837,1.340169375143053,-0.15533684290836947
1658790131970543,0.34967574578469485,1.2720531013962004,-0.13446250095368883
1658790131986543,0.3692072938124662,1.149858854047456,-0.09918364232852683
1658790132002543,0.3893492027161063,1.1429007400625624,-0.0955214770733197
1658790132018524,0.38361181048294846,1.1563286793316552,-0.08978408484016187
1658790132034524,0.3788509956511792,1.1262989242389567,-0.09039444571602973
1658790132050523,0.3988708323796448,1.0860151064316774,-0.09100480659189758
1658790132066523,0.45172808422980104,1.0880903334096281,-0.10699626153963537
1658790132082523,0.4750438696879531,1.0651407644769968,-0.10199130235751896
1658790132098523,0.4702830548561838,0.9719996948195622,-0.0753795681696805
1658790132114523,0.46930647745479526,0.9387960631723509,-0.05682459754329727
1658790132130522,0.5127641718165865,0.9635767147325858,-0.05413900968947871
1658790132146522,0.54706645304036,0.948439765011063,-0.07110704203860552
1658790132162522,0.5434042877851528,0.8535896849011975,-0.05535973144121442
1658790132178522,0.5524376287479971,0.7920653086137177,-0.029602502479590953
1658790132194522,0.5767299916075377,0.8379644464789804,-0.027161058976119534
1658790132210521,0.6050507362478061,0.8119630731670098,-0.03179980163271523
1658790132226521,0.5978484779125655,0.7221179522392616,-0.05133134966048658
1658790132242521,0.568673228046082,0.6253147173266198,-0.03851377126726163
1658790132258521,0.6165255207141218,0.626413366903182,-0.026916914625772392
1658790132274520,0.6474097810330361,0.6215304798962382,-0.022278171969176697
1658790132290520,0.6457007705806062,0.5192339971007858,-0.013122758831158876
1658790132306520,0.6405737392233162,0.44708934157320535,0.019470511940184565
1658790132322520,0.6638895246814682,0.49323262378881516,0.0319218738078888
1658790132338531,0.6891584649423974,0.5018997482261387,0.03558403906309593
1658790132354531,0.7267566948958573,0.36688792248416835,0.060852979324025114
1658790132370531,0.7382314793621729,0.27570000762951086,0.08783093003738429
1658790132386531,0.7395742732890822,0.275089646753643,0.10809491111619707
1658790132402530,0.7301747158007172,0.33966582742046203,0.11981383993285988
1658790132418530,0.7523918516823072,0.42096589608606116,0.04510566872663446
1658790132434530,0.7768062867170213,0.2813153276874951,0.057312886243991557
1658790132450530,0.8224612802319369,0.14837872892347637,0.12970168612192
1658790132466529,0.8592050049591817,0.12042420080872773,0.19513237201495404
1658790132482529,0.8507820248722053,0.15936522468909775,0.20416571297779829
1658790132498529,0.8219729915312426,0.16058594644083346,0.13287556267643286
1658790132514529,0.8122072175173569,0.16742198825055343,0.11212329289692491
1658790132530529,0.8438239108873118,0.18316929884794408,0.15265125505455135
1658790132546528,0.8666514076447696,0.1515526054779892,0.2091706721599147
1658790132562528,0.8593270771343553,0.019104295414663852,0.23065537499046318
1658790132578528,0.8422369726100554,-0.046814679179064456,0.21283283741512182
1658790132594528,0.852857251850156,0.03289845120927737,0.18219272144655552
1658790132610528,0.881300068665599,0.16644541084916487,0.17828641184100125
1658790132626527,0.910597390707256,0.15228503852903064,0.24432745860990313
1658790132642527,0.8805676356145575,0.028747997253375956,0.26276035706111234
1658790132658538,0.8773937590600447,-0.12518501564049744,0.2548256656748302
1658790132674538,0.9112077515831238,-0.07220569161516766,0.2650797283894102
1658790132690538,0.9806668192568857,0.031067368581673804,0.26434729533836876
1658790132706538,0.9434348058289466,-0.02789349202716096,0.24029907682917528
1658790132722538,0.930495155260548,-0.12372014953841459,0.23834592202639815
1658790132738537,0.9422140840772109,-0.1589990081635766,0.27875181200885013
1658790132754537,0.9507591363393608,-0.11566338597695891,0.2814373998626687
1658790132770537,0.9348897535667966,-0.16827649347676799,0.30084687571526647
1658790132786537,0.9265888456549938,-0.24896620126649882,0.3406424048218506
1658790132802537,0.9153582055390252,-0.2647135118638895,0.3544365606164641
1658790132818536,0.9086442359044788,-0.24420538643472955,0.34381628137636344
1658790132834536,0.9246356908522166,-0.21258869306477468,0.32452887769893923
1658790132850536,0.9290302891584652,-0.2330968184939346,0.3504081788357363
1658790132866536,0.9344014648661023,-0.2800946059357594,0.38495460440985774
1658790132882536,0.9026626993209739,-0.31793698023956685,0.397405966277562
1658790132898535,0.8654306858930338,-0.31537346456092186,0.3867856870374613
1658790132914535,0.8499275196459903,-0.27533379110399014,0.3717708094911112
1658790132930535,0.8394293125810632,-0.26849774929427017,0.35602349889372054
1658790132946535,0.8413824673838404,-0.27704280155642014,0.3423514152742806
1658790132962535,0.8565194171053632,-0.29547570000762935,0.33417257953765134
1658790132978515,0.8600595101853967,-0.3028000305180436,0.3306324864576178
1658790132994515,0.8634775310902567,-0.243228809033341,0.3209887846189057
1658790133010515,0.8582284275577932,-0.18231479362172864,0.3184252689402607
1658790133026515,0.8681162737468524,-0.19122606240939977,0.3275806820782785
1658790133042514,0.869947356374456,-0.14630350194552522,0.3279468986037992
1658790133058514,0.8599374380102232,-0.10992599374380108,0.31683833066300426
1658790133074514,0.852857251850156,-0.09991607537956826,0.3234302281223771
1658790133090514,0.8328374151216904,-0.1077286945906768,0.30634012359807716
1658790133106514,0.833813992523079,-0.06121919584954583,0.2638590066376745
1658790133122513,0.822705424582284,0.027649347676813818,0.2196688792248418
1658790133138513,0.8319829098954754,0.05780117494468584,0.2112458991378654
1658790133154513,0.8091554131380176,0.10785076676584993,0.22198825055313964
1658790133170513,0.8139162279697869,0.15301747158007206,0.21722743572137038
1658790133186513,0.8194094758525976,0.1713282978561077,0.23150988021667818
1658790133202512,0.820996414129854,0.20929274433508827,0.20990310521095612
1658790133218512,0.8035400930800334,0.2764324406805523,0.13617151140611927
1658790133234512,0.7860837720302127,0.28790722514686795,0.08172732127870574
1658790133250512,0.8043945983062484,0.3515068284122984,0.08294804303044145
1658790133266512,0.8145265888456548,0.4767528801403831,0.12213321126115773
1658790133282511,0.7864499885557334,0.509224078736553,0.07293812466620864
1658790133298523,0.7501945525291829,0.3602960250247955,9.15541313801782E-4
1658790133314522,0.7738765545128556,0.40582894636453837,-0.04388494697489875
1658790133330522,0.7967040512703134,0.6515602349889376,-0.05560387579156156
1658790133346522,0.7534905012588693,0.6413061722743576,-0.06854352635996053
1658790133362522,0.729686427100023,0.537666895551995,-0.10382238498512253
1658790133378522,0.7462882429236286,0.5087357900358587,-0.057312886243991557
1658790133394521,0.7578850995651178,0.7201647974364844,-0.04437323567559304
1658790133410521,0.7250476844434273,0.7384756237125201,-0.09600976577401399
1658790133426521,0.7014877546349281,0.7084458686198216,-0.1660791943236437
1658790133442521,0.6843976501106281,0.6113984893568318,-0.13690394445716025
1658790133458521,0.7002670328831924,0.6267795834287027,-0.09393453879606328
1658790133474520,0.6494850080109869,0.7050278477149616,-0.06964217593652267
1658790133490520,0.6193331807431139,0.8966811627374689,-0.12896925307087814
1658790133506520,0.579781795986877,0.7940184634164948,-0.15484855420767518
1658790133522520,0.6160372320134275,0.6902571145189595,-0.1152971694514382
1658790133538519,0.6225070572976268,0.7864499885557334,-0.08453498130769832
1658790133554519,0.5667200732433049,0.8814221408407725,-0.11627374685282676
1658790133570519,0.5532921339742121,0.9643091477836272,-0.18731975280384505
1658790133586519,0.5519493400473028,0.7949950408178834,-0.17230487525749583
1658790133602519,0.5759975585564963,0.7776607919432363,-0.1001602197299154
1658790133618530,0.5591515983825435,0.9099870298313881,-0.1022354467078661
1658790133634530,0.5383993286030364,0.9357442587930116,-0.14862287327382306
1658790133650529,0.5276569771877622,0.908888380254826,-0.18451209277485292
1658790133666529,0.5087357900358587,0.8366216525520711,-0.1502098115510795
1658790133682529,0.4926222629129473,0.8487067978942546,-0.09271381704432757
1658790133698529,0.45429159990844603,0.9894560158693828,-0.10504310673685824
1658790133714529,0.4225528343633176,1.019851987487602,-0.16559090562294942
1658790133730528,0.44574654764629607,0.9154802777141988,-0.14435034714274808
1658790133746528,0.4746776531624324,0.8772716868848711,-0.11017013809414822
1658790133762528,0.4497749294270239,0.9815213244831007,-0.11554131380178534
1658790133778528,0.4174258030060276,0.9949492637521935,-0.1531395437552452
1658790133794528,0.3986266880292977,0.9584496833752958,-0.18805218585488692
1658790133810527,0.36774242771038335,0.9164568551155874,-0.17730983443961224
1658790133826527,0.3611505302510105,0.9210955977721831,-0.1497215228503852
1658790133842527,0.32196536202029424,1.0175326161593041,-0.14862287327382306
1658790133858527,0.28790722514686795,1.0254673075455862,-0.19635309376668975
1658790133874527,0.29376668955519936,0.9580834668497751,-0.19684138246738403
1658790133890526,0.3457694361791406,1.0030060273136492,-0.15033188372625306
1658790133906526,0.3621271076523991,1.1283741512169074,-0.1085831998168918
1658790133922526,0.31512932021057427,1.1134813458457309,-0.10577553978789966
1658790133938507,0.31683833066300426,1.0202182040131227,-0.14984359502555877
1658790133954506,0.2924238956282901,1.050003814755474,-0.17669947356374438
1658790133970506,0.31696040283817783,1.1786678873884187,-0.20135805294880615
1658790133986506,0.31647211413748355,1.218951705195697,-0.23260852979324032
1658790134002506,0.27789730678263513,1.1260547798886096,-0.23834592202639815
1658790134018506,0.27277027542534515,1.0854047455558096,-0.2103913939116504
1658790134034505,0.30890363927672215,1.2691233691920347,-0.18829633020523406
1658790134050505,0.32574959945067494,1.4441748683909363,-0.1911039902342262
1658790134066505,0.33038834210727064,1.3813076981765473,-0.1981841763942933
1658790134082505,0.3544365606164641,1.2708323796444647,-0.17145037003128083
1658790134098505,0.3981383993286034,1.328816662851911,-0.1531395437552452
1658790134114504,0.3833676661326013,1.3888761730373087,-0.17401388570992582
1658790134130504,0.3645685511558705,1.312581063553826,-0.1854886701762415
1658790134146504,0.3523613336385134,1.2141908903639278,-0.18951705195696977
1658790134162504,0.3330739299610892,1.1826962691691465,-0.18597695887693577
1658790134178504,0.31561760891126855,1.2126039520866714,-0.1686427100022887
1658790134194503,0.2999923704890515,1.19478141451133,-0.17486839093614082
1658790134210503,0.3237964446478978,1.108354314488441,-0.18426794842450578
1658790134226503,0.3659113450827798,1.1252002746623946,-0.16351567864499872
1658790134242503,0.3859311818112463,1.2025940337224386,-0.15423819333180733
1658790134258514,0.40460822461280266,1.1579156176089116,-0.14654764629587236
1658790134274514,0.4094911116197455,1.0449988555733576,-0.13116655222400242
1658790134290514,0.43707942320897253,0.9689478904402229,-0.11041428244449536
1658790134306513,0.465400167849241,1.021805142290379,-0.11126878767071036
1658790134322513,0.4363469901579311,1.0334019989318683,-0.1576562142366673
1658790134338513,0.4422064545662625,0.9187762264438852,-0.13910124361028453
1658790134354513,0.47223620965896096,0.8888685435263604,-0.13861295490959025
1658790134370513,0.4939650568398566,0.8611581597619589,-0.10528725108720538
1658790134386512,0.5020218204013123,0.8766613260090033,-0.0774547951476312
1658790134402512,0.5112993057145037,0.8181887541008619,-0.055970092317082276
1658790134418512,0.5424277103837642,0.7820553902494849,-0.04901197833218873
1658790134434512,0.5718471046005948,0.7520256351567864,-0.02935835812924381
1658790134450512,0.6079804684519718,0.7755855649652856,-0.0012817578393224949
1658790134466511,0.6290989547570005,0.7338368810559244,0.0026245517662317752
1658790134482511,0.6415503166247047,0.6012664988174254,0.023010605020218122
1658790134498511,0.6476539253833833,0.5501182574196992,0.03717097734035235
1658790134514511,0.6382543678950183,0.5941863126573583,0.04486152437628732
1658790134530511,0.659983215075914,0.6736552986953539,0.04571602960250232
1658790134546510,0.6621805142290382,0.53339436942092,0.06622415503166224
1658790134562510,0.6808575570305946,0.4090028229190512,0.09845120927748496
1658790134578491,0.7033188372625316,0.41058976119630763,0.10833905546654421
1658790134594491,0.7113756008239873,0.4304875257495997,0.1109025711451892
1658790134610490,0.7407949950408179,0.4717479209582667,0.10724040588998207
1658790134626490,0.7704585336079957,0.36554512855725907,0.12738231479362216
1658790134642490,0.759838254367895,0.2923018234531165,0.16559090562294987
1658790134658490,0.7645990691996642,0.32281986724650924,0.14093232623788854
1658790134674490,0.7907225146868084,0.3325856412603949,0.1251850156404979
1658790134690489,0.8084229800869762,0.24127565423056385,0.10870527199206492
1658790134706489,0.8194094758525976,0.12921339742122573,0.11822690165560346
1658790134722489,0.8366216525520711,0.01104753185320817,0.15692378118562633
1658790134738489,0.819287403677424,0.13031204699778787,0.1768215457389184
1658790134754489,0.8119630731670098,0.2647135118638895,0.18780804150453978
1658790134770488,0.8258793011367969,0.2717936980239566,0.16241702906843702
1658790134786488,0.8457770656900889,0.1318989852750443,0.1721828030823227
1658790134802488,0.8811779964904254,-0.03155565728236809,0.22125581750209822
1658790134818488,0.9000991836423289,-0.1442282749675745,0.2659342336156252
1658790134834488,0.8859388113221947,-0.09771877622644398,0.28119325551232155
1658790134850487,0.8728770885786217,0.05926604104676869,0.242374303807126
1658790134866487,0.8954604409857332,0.1730373083085377,0.21222247653925397
1658790134882487,0.8866712443732361,0.03302052338445094,0.24554818036163883
1658790134898498,0.879591058213169,-0.10504310673685824,0.29205767910276936
1658790134914498,0.8784924086366068,-0.18475623712520006,0.3250171663996335
1658790134930498,0.882154573891814,-0.2007476920729383,0.31940184634164925
1658790134946498,0.8664072632944224,-0.20758373388265827,0.28912794689860366
1658790134962497,0.8645761806668188,-0.19452201113908618,0.2544594491493095
1658790134978497,0.8773937590600447,-0.1948882276646069,0.2666666666666666
1658790134994497,0.9043717097734039,-0.1698634317540244,0.3048752574959943
1658790135010497,0.945021744106203,-0.20599679560540185,0.33331807431143634
1658790135026497,0.9495384145876251,-0.25970855268177306,0.3632257572289612
1658790135042496,0.9494163424124515,-0.26776531624322875,0.36859693293659834
1658790135058496,0.9326924544136723,-0.2931563286793315,0.37811856260013776
1658790135074496,0.9081559472037846,-0.310368505378805,0.3779964904249642
1658790135090496,0.8990005340657667,-0.2737468528267337,0.3695735103379869
1658790135106495,0.8876478217746246,-0.239810788128481,0.35980773632410123
1658790135122495,0.8799572747386897,-0.23089951934081032,0.3738460364690619
1658790135138495,0.862256809338521,-0.2735027084763866,0.3788509956511792
1658790135154495,0.8401617456321047,-0.3032883192187379,0.37067215991454905
1658790135170495,0.8521248187991146,-0.2650797283894102,0.35724422064545625
1658790135186494,0.8599374380102232,-0.20721751735713756,0.33453879606317205
1658790135202494,0.8473640039673453,-0.19085984588387905,0.32196536202029424
1658790135218505,0.8371099412527654,-0.20086976424811187,0.3423514152742806
1658790135234505,0.8428473334859232,-0.15069810025177377,0.3480888075074384
1658790135250505,0.8483405813687339,-0.08429083695735118,0.32452887769893923
1658790135266505,0.8692149233234145,-0.09417868314641042,0.2982833600366215
1658790135282505,0.8826428625925082,-0.04095521477073305,0.2976729991607536
1658790135298504,0.8672617685206374,-7.934691386282111E-4,0.274235141527428
1658790135314504,0.8446784161135268,-0.005310139620050336,0.2670328831921873
1658790135330504,0.8423590447852289,0.08477912565804502,0.23456168459601745
1658790135346504,0.8467536430914775,0.14422827496757495,0.2057526512550547
1658790135362504,0.8491950865949489,0.16559090562294987,0.20086976424811187
1658790135378503,0.8272220950637061,0.2506752117189288,0.1957427328908219
1658790135394503,0.798535133897917,0.26398107881284805,0.18280308232242337
1658790135410503,0.793408102540627,0.27203784237430373,0.11480888075074347
1658790135426503,0.8137941557946133,0.2890058747234301,0.08270389868009431
1658790135442503,0.8156252384222169,0.3565117875944148,0.07794308384832505
1658790135458502,0.789135576409552,0.37640955214770777,0.07330434119172935
1658790135474502,0.7829098954756999,0.3729915312428469,0.027405203326466676
1658790135490502,0.7869382772564277,0.40131227588311624,0.005432211795223907
1658790135506502,0.795971618219272,0.4918898298619059,0.034851606012054503
1658790135522502,0.7674067292286564,0.559273670557717,0.06439307240405867
1658790135538482,0.759838254367895,0.5968719005111769,0.036438544289310926
1658790135554482,0.7671625848783092,0.5429159990844585,-0.02252231631952384
1658790135570482,0.7583733882658121,0.5507286182955671,-0.01751735713740743
1658790135586482,0.7597161821927214,0.685862516212711,-0.050598916609445155
1658790135602481,0.7349355306324865,0.6129854276340883,-0.07989623865110262
1658790135618481,0.727122911421378,0.5974822613870447,-0.11224536507209892
1658790135634481,0.6946517128252081,0.727977416647593,-0.09698634317540256
1658790135650481,0.6593728542000461,0.7561760891126879,-0.06964217593652267
1658790135666481,0.6719462882429239,0.7971923399710077,-0.10040436408026254
1658790135682480,0.6688944838635846,0.7760738536659799,-0.13897917143511096
1658790135698480,0.6751201647974368,0.6203097581445025,-0.093446250095369
1658790135714480,0.6614480811779968,0.7272449835965515,-0.06817730983443981
1658790135730480,0.5864957656214234,0.8260013733119704,-0.10724040588998252
1658790135746480,0.5612268253604942,0.8148928053711755,-0.1593652246890973
1658790135762479,0.5487754634927899,0.7704585336079957,-0.14496070801861594
1658790135778479,0.5640344853894863,0.7009994659342338,-0.07171740291447337
1658790135794479,0.5160601205462729,0.8339360646982525,-0.032410162508583085
1658790135810479,0.48688487067978947,0.9583276112001222,-0.10418860151064324
1658790135826479,0.5164263370717936,0.8434576943617911,-0.15484855420767518
1658790135842478,0.53852140077821,0.832104982070649,-0.13189898527504385
1658790135858490,0.5371786068513007,0.9060807202258339,-0.07171740291447337
1658790135874489,0.49201190203707945,0.96919203479057,-0.08136110475318548
1658790135890489,0.48529793240253305,0.9644312199588008,-0.12603952086671244
1658790135906489,0.5050736247806515,0.9103532463569088,-0.16925307087815655
1658790135922489,0.47565423056382095,0.8954604409857332,-0.16766613260090013
1658790135938489,0.4968947890440223,0.9488059815365837,-0.14923323414969092
1658790135954488,0.4406195162890061,1.0434119172961012,-0.14654764629587236
1658790135970488,0.3927672236209663,1.039505607690547,-0.1652246890974287
1658790135986488,0.386297398336767,0.9276874952315559,-0.1426413366903181
1658790136002488,0.38068207827878275,0.9400167849240866,-0.11761654077973605
1658790136018488,0.4019226367589841,1.0580605783169297,-0.12152285038529032
1658790136034487,0.41010147249561335,1.1215381094071866,-0.1669336995498587
1658790136050487,0.4052185854886705,1.0302281223773555,-0.20392156862745114
1658790136066487,0.37640955214770777,1.0814984359502553,-0.18060578316929865
1658790136082487,0.37482261387045046,1.2000305180437936,-0.17206073090714868
1658790136098487,0.3881284809643706,1.223224231326772,-0.17059586480506583
1658790136114486,0.35602349889372054,1.1200732433051037,-0.1589990081635766
1658790136130486,0.345647364003967,1.023514152742809,-0.16351567864499872
1658790136146486,0.3239185168230714,1.1547417410543988,-0.18536659800106792
1658790136162486,0.3495536736095213,1.3025711451895932,-0.18475623712520006
1658790136178466,0.3578545815213241,1.2881666285191118,-0.14398413061722737
1658790136194466,0.36847486076142477,1.2089417868314642,-0.10296787975890753
1658790136210466,0.39044785229266843,1.185137712672618,-0.06561379415579482
1658790136226466,0.4246280613412683,1.3371175707637137,-0.08404669260700404
1658790136242466,0.4090028229190512,1.3714198519874872,-0.10748455024032966
1658790136258465,0.3716487373159376,1.2648508430609597,-0.10870527199206537
1658790136274465,0.3754329747463192,1.1508354314488445,-0.07953002212558191
1658790136290465,0.3624933241779198,1.2022278171969178,-0.07415884641794479
1658790136306465,0.3344167238879985,1.2014953841458764,-0.08148317692835905
1658790136322465,0.31940184634164925,1.2321355001144427,-0.10235751888303968
1658790136338464,0.3427176317998013,1.2097962920576792,-0.10003814755474183
1658790136354464,0.38788433661402344,1.168047608148318,-0.07867551689936692
1658790136370464,0.41058976119630763,1.1355764095521481,-0.06292820630197626
1658790136386464,0.4271915770199133,1.0823529411764703,-0.07611200122072193
1658790136402464,0.42279697871366473,1.1138475623712516,-0.08734264133669045
1658790136418463,0.4447699702449075,1.116289005874723,-0.09942778667887398
1658790136434463,0.48700694285496304,1.0813763637750817,-0.07403677424277122
1658790136450463,0.49713893339436943,1.0408484016174562,-0.053040360112916574
1658790136466463,0.4812695506218052,0.9710231174181736,-0.04852368963149445
1658790136482463,0.5219195849546043,0.9800564583810178,-0.04876783398184159
1658790136498474,0.539375906004425,0.9922636758983749,-0.04205386434729519
1658790136514474,0.5354695963988707,0.9365987640192266,-0.02252231631952384
1658790136530473,0.5303425650415807,0.8186770428015562,-0.005676356145571049
1658790136546473,0.5528038452735178,0.8241702906843669,-0.029846646829938095
1658790136562473,0.5773403524834055,0.8521248187991146,-0.04510566872663446
1658790136578473,0.6102998397802697,0.8299076829175247,-0.05767910276951227
1658790136594473,0.6078583962767983,0.678171969176776,-0.028137636377508102
1658790136610472,0.6118867780575261,0.5701380941481649,0.01617456321049815
1658790136626472,0.6311741817349512,0.5856412603952084,0.021179522392614558
1658790136642472,0.6278782330052648,0.6710917830167089,0.0060425726710917615
1658790136658472,0.6331273365377283,0.659983215075914,-0.027527275501640247
1658790136674471,0.6620584420538647,0.44293888761730393,0.0014038300144960658
1658790136690471,0.673044937819486,0.29962615396353076,0.0386358434424352
1658790136706471,0.7007553215838866,0.32233157854581496,0.08001831082627575
1658790136722471,0.7162584878309302,0.4822461280231938,0.08160524910353217
1658790136738471,0.7113756008239873,0.4564888990615703,0.04510566872663446
1658790136754470,0.7232166018158237,0.24176394293125814,0.06060883497367797
1658790136770470,0.7741206988632028,0.1482566567483028,0.12713817044327502
1658790136786470,0.8183108262760355,0.26105134660868234,0.170107576104372
1658790136802470,0.8076905470359348,0.2780193789578087,0.17987335011825767
1658790136818481,0.7984130617227434,0.19183642328526762,0.13641565575646641
1658790136834481,0.8136720836194398,0.0995498588540471,0.13299763485160643
1658790136850481,0.8173342488746469,0.14410620279240138,0.15887693598840347
1658790136866480,0.829541466392004,0.1079728389410235,0.19159227893492048
1658790136882480,0.8351567864499883,0.10528725108720494,0.19842832074464045
1658790136898480,0.8267338063630119,0.05108720531013944,0.18048371099412552
1658790136914480,0.8650644693675131,-0.10724040588998252,0.1914702067597469
1658790136930480,0.9116960402838181,-0.16119630731670087,0.2208896009765775
1658790136946479,0.9025406271458003,-0.09222552834363329,0.22320897230487535
1658790136962479,0.8772716868848711,-0.09320210574502186,0.23956664377813386
1658790136978479,0.8523689631494618,-0.08319218738078904,0.2537270160982681
1658790136994479,0.8786144808117804,-0.12372014953841459,0.26935225452048517
1658790137010479,0.8998550392919817,-0.20050354772259116,0.2838788433661401
1658790137026478,0.9301289387350273,-0.3091477836270693,0.30780498970016
1658790137042478,0.9252460517280845,-0.33856717784390034,0.3342946517128249
1658790137058478,0.9015640497444117,-0.28168154421301583,0.342229343099107
1658790137074478,0.8906996261539639,-0.24213015945677885,0.35761043717097696
1658790137090478,0.8581063553826196,-0.24469367513542384,0.3683527885862512
1658790137106477,0.8385748073548482,-0.2886396581979094,0.3683527885862512
1658790137122477,0.8684824902723731,-0.3865415426871137,0.38019378957808847
1658790137138458,0.8850843060959797,-0.40900282291905077,0.37189288166628476
1658790137154458,0.8687266346227203,-0.39484245059891654,0.3511406118867777
1658790137170457,0.834668497749294,-0.36700999465934236,0.3300221255817499
1658790137186457,0.8181887541008619,-0.35480277714198527,0.3368581673914699
1658790137202457,0.826977950713359,-0.3154955367360954,0.3305104142824442
1658790137218457,0.8440680552376589,-0.25641260395208665,0.3305104142824442
1658790137234457,0.8483405813687339,-0.21747158007171752,0.2918135347524222
1658790137250456,0.8544441901274125,-0.3020675974670022,0.30170138094148147
1658790137266456,0.8350347142748147,-0.2284580758373389,0.2982833600366215
1658790137282456,0.8524910353246353,-0.09100480659189758,0.2850995651178758
1658790137298456,0.8361333638513768,-0.03826962691691449,0.3028000305180436
1658790137314456,0.835523002975509,-0.02545204852368954,0.28070496681162727
1658790137330455,0.8325932707713433,-0.019714656290531707,0.23553826199740602
1658790137346455,0.8197756923781183,0.01995880064087885,0.2112458991378654
1658790137362455,0.8306401159685661,0.12164492256046344,0.1957427328908219
1658790137378455,0.820141908903639,0.19977111467154973,0.17035172045471914
1658790137394455,0.7974364843213548,0.207095445181964,0.1255512321660186
1658790137410454,0.7659418631265735,0.2171053635461968,0.10138094148165067
1658790137426454,0.7605706874189364,0.2523842221713588,0.08429083695735073
1658790137442454,0.792553597314412,0.34247348744945416,0.07745479514763076
1658790137458465,0.7599603265430686,0.3469901579308763,0.0945448996719307
1658790137474465,0.7261463340199894,0.3881284809643706,0.05401693751430514
1658790137490465,0.7094224460212102,0.4578316929884796,0.03424124513618665
1658790137506465,0.7372549019607844,0.582345311665522,-0.04583810177767589
1658790137522464,0.785717555504692,0.5159380483710994,-0.05230792706187515
1658790137538464,0.8041504539559012,0.4977492942702373,-0.013122758831158876
1658790137554464,0.7468986037994965,0.6253147173266198,-0.010559243152513886
1658790137570464,0.6697489890897996,0.5545128557259478,-0.08892957961394687
1658790137586464,0.6546120393682768,0.5641565575646599,-0.15960936903944445
1658790137602463,0.6481422140840776,0.7407949950408179,-0.16095216296635373
1658790137618463,0.6189669642175932,0.7645990691996642,-0.12689402609292744
1658790137634463,0.5888151369497212,0.7289539940489815,-0.13263141832608527
1658790137650463,0.6129854276340883,0.7356679636835279,-0.1543602655069809
1658790137666463,0.643747615777829,0.7501945525291829,-0.16217288471808944
1658790137682462,0.6447241931792176,0.8516365300984203,-0.1862211032272829
1658790137698462,0.6238498512245361,0.8601815823605703,-0.1779201953154801
1658790137714462,0.5852750438696877,0.8223392080567633,-0.19269092851148262
1658790137730462,0.5546349279011213,0.8047608148317691,-0.22040131227588322
1658790137746461,0.5449912260624092,0.8405279621576254,-0.21576256961928753
1658790137762461,0.5216754406042572,0.9783474479285879,-0.21820401312275894
1658790137778473,0.49164568551155874,0.9928740367742428,-0.23334096284428174
1658790137794472,0.49445334554055087,0.8749523155565724,-0.24335088120851456
1658790137810472,0.49115739681086446,0.8324711985961697,-0.23712520027466244
1658790137826472,0.4695506218051424,0.9846952010376135,-0.21026932173647683
1658790137842472,0.4719920653086138,1.1121385519188216,-0.2368810559243153
1658790137858471,0.46845197222858026,1.0387731746395055,-0.23883421072709243
1658790137874471,0.4623483634699017,0.8756847486076147,-0.21100175478751826
1658790137890471,0.42011139085984617,0.8939955748836503,-0.19769588769359903
1658790137906471,0.39874876020447125,1.0240024414435034,-0.21698329137102323
1658790137922471,0.39154650186923057,1.1038376440070188,-0.25470359349965666
1658790137938470,0.3767757686732285,0.9933623254749371,-0.2456702525368124
1658790137954470,0.37811856260013776,0.8744640268558781,-0.17938506141756294
1658790137970470,0.3590753032730598,0.9894560158693828,-0.17084000915541298
1658790137986470,0.3192797741664757,1.0834515907530324,-0.1787747005416951
1658790138002470,0.3125658045319293,1.0213168535896848,-0.18683146410315077
1658790138018469,0.3313649195086592,1.0402380407415883,-0.18426794842450578
1658790138034469,0.353337911039902,1.0847943846799417,-0.16681162737468513
1658790138050469,0.3192797741664757,1.0948043030441745,-0.16729991607537942
1658790138066469,0.275089646753643,1.1107957579919123,-0.19037155718318477
1658790138082469,0.2796063172350651,1.0366979476615548,-0.2243076218814375
1658790138098449,0.30426489662012646,1.1273975738155189,-0.2138094148165104
1658790138114449,0.312077515831235,1.2039368276493478,-0.18744182497901862
1658790138130449,0.3007248035400929,1.2000305180437936,-0.18255893797207579
1658790138146449,0.29755092698558006,1.2046692607003893,-0.19928282597085545
1658790138162449,0.33209735255970063,1.2419012741283284,-0.18536659800106792
1658790138178448,0.3737239642938883,1.375448233768216,-0.18426794842450578
1658790138194448,0.3864194705119406,1.3503013656824594,-0.1694972152285037
1658790138210448,0.36066224155031623,1.2765697718776225,-0.16937514305333012
1658790138226448,0.34747844663157057,1.2715648126955061,-0.18524452582589435
1658790138242447,0.3335622186617835,1.2762035553521018,-0.1770656900892651
1658790138258447,0.3225757228961621,1.2953688868543525,-0.18304722667277007
1658790138274447,0.31122301060502,1.2327458609903106,-0.1986724650949876
1658790138290447,0.3187914854657814,1.1763485160601208,-0.1943999389639126
1658790138306447,0.34039826047150346,1.1872129396505686,-0.1817044327458608
1658790138322446,0.33868925001907346,1.21358052948806,-0.15484855420767518
1658790138338446,0.3327077134355685,1.1814755474174108,-0.132143129625391
1658790138354446,0.343938353551537,1.1553521019302666,-0.14227512016479738
1658790138370446,0.37225909819180547,1.131059739070726,-0.13275349050125884
1658790138386446,0.41852445258258975,1.1317921721217674,-0.13348592355230027
1658790138402445,0.43903257801174966,1.081864652475776,-0.10907148851758608
1658790138418457,0.4409857328145268,1.0454871442740519,-0.09137102311741829
1658790138434456,0.4589303425650417,1.0789349202716103,-0.11175707637140464
1658790138450456,0.4892042420080873,1.0626993209735254,-0.14019989318684667
1658790138466456,0.5243610284580758,1.0048371099412527,-0.13580529488059812
1658790138482456,0.5435263599603264,0.9562523842221715,-0.12188906691081103
1658790138498456,0.5383993286030364,0.9251239795529109,-0.10406652933546967
1658790138514455,0.53510337987335,0.9223163195239188,-0.11761654077973605
1658790138530455,0.5388876173037307,0.8316166933699547,-0.13397421225299455
1658790138546455,0.5607385366597999,0.7268787670710308,-0.13775844968337525
1658790138562455,0.5698939497978177,0.7714351110093842,-0.128725108720531
1658790138578455,0.54535744258793,0.7587396047913328,-0.09710841535057613
1658790138594454,0.5827115281910427,0.7145494773785002,-0.09063859006637687
1658790138610454,0.6074921797512776,0.5924773022049283,-0.06707866025787768
1658790138626454,0.6164034485389482,0.5108110170138094,-0.0042114900434881974
1658790138642454,0.6436255436026554,0.4749217975127795,0.03826962691691449
1658790138658454,0.6337376974135962,0.45539024948500817,0.04583810177767589
1658790138674453,0.6580300602731368,0.4271915770199133,0.0252079041733424
1658790138690453,0.6779278248264289,0.3549248493171584,0.029846646829938095
1658790138706453,0.6880598153658353,0.3372243839169906,0.07623407339589505
1658790138722453,0.7243152513923858,0.29791714351110077,0.13311970702678
1658790138738433,0.7421377889677272,0.23419546807049674,0.1579003585870149
1658790138754433,0.761547264820325,0.15655756466010562,0.15606927595941134
1658790138770433,0.7603265430685893,0.15741206988632062,0.13080033569848215
1658790138786433,0.7671625848783092,0.23260852979324032,0.11749446860456203
1658790138802433,0.7737544823376821,0.25128557259479667,0.09405661097123641
1658790138818432,0.7728999771114671,0.013977264057373873,0.11981383993285988
1658790138834432,0.821850919356069,-0.10052643625543611,0.1721828030823227
1658790138850432,0.8782482642862597,-0.04461738002594018,0.15423819333180777
1658790138866432,0.8809338521400782,-0.03204394598306237,0.12445258258945557
1658790138882432,0.8686045624475467,-0.0040894178683146265,0.12005798428320702
1658790138898431,0.8869153887235832,0.06073090714885154,0.1318989852750443
1658790138914431,0.8920424200808732,0.026306553749904538,0.1734035248340584
1658790138930431,0.8839856565194175,-0.13995574883649953,0.20135805294880615
1658790138946431,0.8936293583581296,-0.1467917906462195,0.2016021972991533
1658790138962431,0.9243915465018695,-6.103608758678547E-5,0.18634317540245693
1658790138978430,0.9225604638742659,-0.016662851911192433,0.1642481116960406
1658790138994430,0.9445334554055087,-0.1585107194628823,0.19562066071564832
1658790139010430,0.9698023956664379,-0.24786755168993668,0.2461585412375067
1658790139026430,0.9532005798428322,-0.2888838025482565,0.2697184710460059
1658790139042430,0.9276874952315559,-0.3087815671015486,0.28656443121995867
1658790139058441,0.9126726176852067,-0.2813153276874951,0.2561684596017395
1658790139074441,0.9030289158464946,-0.2385900663767453,0.2611734187838559
1658790139090440,0.9049820706492717,-0.21649500267032895,0.27582207980468443
1658790139106440,0.8638437476157774,-0.33307392996108964,0.31476310368505356
1658790139122440,0.8390630960555425,-0.43012130922407854,0.3443045700770577
1658790139138440,0.8516365300984203,-0.43048752574959925,0.3545586327916377
1658790139154440,0.8626230258640417,-0.4269474326695657,0.349065384908827
1658790139170439,0.8633554589150831,-0.4273136491950864,0.33246356908522134
1658790139186439,0.8589608606088346,-0.43012130922407854,0.3195239185168228
1658790139202439,0.8499275196459903,-0.4362249179827571,0.31488517586022713
1658790139218439,0.8544441901274125,-0.4005798428320744,0.3203784237430378
1658790139234439,0.857984283207446,-0.3684748607614252,0.31439688715953285
1658790139250438,0.8649423971923396,-0.3720149538414588,0.30768291752498644
1658790139266438,0.8750743877317468,-0.3530937666895553,0.3124437323567557
1658790139282438,0.8697032120241088,-0.33844510566872676,0.3057297627222093
1658790139298438,0.866529335469596,-0.28168154421301583,0.2864423590447851
1658790139314437,0.8712901503013653,-0.2554360265506981,0.29047074082551294
1658790139330437,0.8825207904173347,-0.21429770351720467,0.29169146257724865
1658790139346437,0.867383840695811,-0.14325169756618594,0.25519188220035094
1658790139362437,0.8535896849011975,-0.09662012664988184,0.2499427786678874
1658790139378448,0.8518806744487675,-0.06536964980544768,0.23492790112153816
1658790139394448,0.866529335469596,-0.0319218738078888,0.24347295338368813
1658790139410448,0.8635996032654303,-0.006286717021438903,0.2066071564812697
1658790139426447,0.8417486839093611,-0.033630884260318794,0.16656748302433844
1658790139442447,0.8256351567864497,0.014343480582894585,0.15008773937590636
1658790139458447,0.8313725490196076,0.165835049973297,0.1372701609826814
1658790139474447,0.8224612802319369,0.20978103303578255,0.10833905546654421
1658790139490447,0.8125734340428776,0.14923323414969136,0.08197146562905289
1658790139506446,0.7924315251392384,0.14373998626688067,0.07501335164415934
1658790139522446,0.8104982070649269,0.21600671396963467,0.09564354924849283
1658790139538446,0.7761959258411535,0.33319600213626277,0.09356832227054213
1658790139554446,0.7669184405279621,0.428412298771649,0.017273212787060288
1658790139570446,0.7600823987182421,0.34674601358052914,-0.06707866025787768
1658790139586445,0.7854734111543449,0.2713054093232623,-0.062439917601281536
1658790139602445,0.7724116884107728,0.492988479438468,-0.032410162508583085
1658790139618445,0.7400625619897765,0.5358358129243914,-0.07354848554207694
1658790139634445,0.7382314793621729,0.45624475471122317,-0.1581445029373616
1658790139650445,0.7654535744258792,0.5076371404592965,-0.20770580605783184
1658790139666444,0.7755855649652856,0.5208209353780422,-0.1543602655069809
1658790139682444,0.716868848706798,0.5509727626459142,-0.07904173342488763
1658790139698425,0.6680399786373696,0.6663309681849396,-0.13324177920195313
1658790139714425,0.6435034714274819,0.6857404440375374,-0.22528419928282606
1658790139730425,0.6687724116884111,0.6474097810330361,-0.26141756313420306
1658790139746424,0.6760967421988253,0.6509498741130697,-0.1745021744106201
1658790139762424,0.6345922026398112,0.7517814908064393,-0.15619134813458446
1658790139778424,0.6078583962767983,0.834668497749294,-0.21051346608682397
1658790139794424,0.6343480582894641,0.9344014648661023,-0.28278019378957797
1658790139810423,0.6402075226977955,0.8347905699244675,-0.2775310902571144
1658790139826423,0.6526588845654997,0.7035629816128788,-0.2086823834592204
1658790139842423,0.6104219119554433,0.7186999313344016,-0.16510261692225514
1658790139858423,0.5380331120775157,0.8646982528419924,-0.2351720454718853
1658790139874423,0.49250019073777374,0.8490730144197753,-0.3037766079194322
1658790139890422,0.4846875715266652,0.7915770199130234,-0.2780193789578087
1658790139906422,0.4669871061264974,0.7926756694895856,-0.18988326848249049
1658790139922422,0.46222629129472814,0.861402304112306,-0.17340352483405796
1658790139938422,0.4196231021591519,0.9291523613336388,-0.18573281452658863
1658790139954422,0.41901274128328403,0.9057145037003131,-0.20123598077363258
1658790139970421,0.43817807278553467,0.9328145265888459,-0.18048371099412508
1658790139986421,0.46002899214160387,0.9644312199588008,-0.15460440985732804
1658790140002421,0.4303654535744261,1.0171663996337834,-0.17779812314030652
1658790140018432,0.4112001220721755,1.0139925230792706,-0.20770580605783184
1658790140034432,0.431830319676509,1.0340123598077362,-0.23175402456702532
1658790140050432,0.4384222171358818,1.0866254673075453,-0.2272373540856032
1658790140066432,0.4112001220721755,1.1459525444419016,-0.2284580758373389
1658790140082431,0.3495536736095213,1.1366750591287103,-0.2775310902571144
1658790140098431,0.35797665369649767,1.1349660486762803,-0.2923018234531165
1658790140114431,0.3985046158541241,1.1934386205844207,-0.24750133516441597
1658790140130431,0.3804379339284356,1.3191729610131988,-0.25055313954375524
1658790140146431,0.36737621118486263,1.3295490959029523,-0.2540932326237888
1658790140162430,0.40839246204318336,1.2611886778057526,-0.21991302357518894
1658790140178430,0.45038529030289176,1.3676356145571065,-0.1854886701762415
1658790140194430,0.4308537422751204,1.4430762188143742,-0.17267109178301654
1658790140210430,0.39996948195620696,1.3789883268482495,-0.17853055619134794
1658790140226430,0.3609063859006634,1.2910963607232775,-0.2146639200427254
1658790140242429,0.3565117875944148,1.3085526817730981,-0.20318913557640972
1658790140258429,0.3585870145723655,1.313435568780041,-0.18731975280384505
1658790140274429,0.3279468986037992,1.2617990386816205,-0.1791409170672158
1658790140290429,0.32745860990310494,1.2250553139543756,-0.18780804150453978
1658790140306429,0.349919890135042,1.2675364309147783,-0.17511253528648796
1658790140322428,0.35675593194476196,1.2453192950331884,-0.15863279163805588
1658790140338440,0.35931944762340695,1.1645075150682844,-0.1342183566033417
1658790140354439,0.3793392843518735,1.1265430685893039,-0.14874494544899663
1658790140370439,0.4039978637369348,1.1266651407644774,-0.15277332722972448
1658790140386439,0.4287785152971697,1.2082093537804228,-0.16705577172503228
1658790140402439,0.4184023804074162,1.1138475623712516,-0.13812466620889596
1658790140418439,0.44879835202563534,1.032059205004959,-0.11346608682383463
1658790140434438,0.47614251926451523,1.0196078431372548,-0.11493095292591748
1658790140450438,0.4766308079652095,1.0043488212405585,-0.1316548409246967
1658790140466438,0.5038529030289158,1.033524071107042,-0.1447165636682688
1658790140482438,0.5097123674372472,0.9298847943846802,-0.15204089417868305
1658790140498438,0.5446250095368885,0.9125505455100331,-0.14703593499656664
1658790140514437,0.5397421225299457,0.9142595559624631,-0.13055619134813456
1658790140530437,0.5675745784695199,0.8101319905394062,-0.09112687876707115
1658790140546437,0.5705043106736856,0.7653315022507057,-0.08184939345387976
1658790140562437,0.5841763942931255,0.7398184176394293,-0.08709849698634331
1658790140578436,0.6092011902037076,0.8072022583352405,-0.0980849927519647
1658790140594436,0.6067597467002361,0.7558098725871671,-0.08233768215457404
1658790140610436,0.5993133440146483,0.5770962081330584,-0.06427100022888554
1658790140626436,0.5977264057373919,0.44159609369039465,-5.493247882810692E-4
1658790140642436,0.6310521095597776,0.5200885023270008,0.021911955443655984
1658790140658416,0.6571755550469218,0.5983367666132597,-0.0016479743648432077
1658790140674416,0.6601052872510875,0.4110780498970019,0.015930418860151008
1658790140690416,0.6571755550469218,0.2728923476005187,0.06524757763027367
1658790140706416,0.6836652170595867,0.18377965972381194,0.11346608682383419
1658790140722416,0.6831769283588924,0.22455176623178463,0.1544823376821549
1658790140738415,0.6857404440375374,0.3985046158541241,0.14789044022278208
1658790140754415,0.6973373006790267,0.3440604257267106,0.11273365377279276
1658790140770415,0.747875181200885,0.04180971999694805,0.1453269245441371
1658790140786415,0.8220950637064162,0.015930418860151008,0.19415579461356547
1658790140802415,0.8318608377203018,0.05951018539711583,0.21905851834897394
1658790140818414,0.8129396505683983,0.05658045319295013,0.26739909971770803
1658790140834414,0.7943846799420156,0.027283131151293105,0.2246738384069582
1658790140850414,0.7999999999999998,-0.08453498130769832,0.17328145265888484
1658790140866414,0.8257572289616233,-0.09625391012436113,0.16498054474708201
1658790140882413,0.871656366826886,-0.06341649500267055,0.19598687724116903
1658790140898413,0.8927748531319146,-0.14691386282139307,0.24750133516441597
1658790140914413,0.8711680781261917,-0.25348287174792095,0.25690089265278093
1658790140930413,0.8581063553826196,-0.27313649195086587,0.2582436865796902
1658790140946413,0.8750743877317468,-0.18524452582589435,0.25506981002517737
1658790140962412,0.8971694514381632,-0.17840848401617437,0.26813153276874946
1658790140978424,0.9221942473487452,-0.2788738841840237,0.30389868009460574
1658790140994423,0.9226825360494395,-0.37042801556420235,0.3007248035400929
1658790141010423,0.933058670939193,-0.4114442664225222,0.3108567940794993
1658790141026423,0.9438010223544673,-0.36249332417792024,0.3270923933775842
1658790141042423,0.9278095674067295,-0.31134508278019357,0.3342946517128249
1658790141058423,0.8600595101853967,-0.3505302510109103,0.31097886625467286
1658790141074422,0.816723887998779,-0.41290913252460504,0.29803921568627434
1658790141090422,0.8172121766994733,-0.4140077821011672,0.3145189593347064
1658790141106422,0.8454108491645682,-0.4143739986266879,0.3065842679484243
1658790141122422,0.8491950865949489,-0.48322270542458234,0.2964522774090179
1658790141138422,0.849439230945296,-0.4650339513237203,0.28741893644617367
