Timestamp (microseconds),Gyro X (°/s),Gyro Y (°/s),Gyro Z (°/s)
1658790116018768,0.2746623941404778,0.33569848172737693,-2.5940337224383256
1658790116034768,0.9460593575952316,0.33569848172737693,-1.983672846570471
1658790116050768,0.5798428320745188,0.5188067444876197,-1.5564202334630863
1658790116066767,0.8239871824216607,0.8239871824216607,-1.1291676203554744
1658790116082767,0.7629510948347615,0.5798428320745188,-1.8005645838102282
1658790116098767,-0.09155413138023505,0.2746623941404778,-2.166781109330941
1658790116114767,-2.655069810025225,0.03051804379333589,-1.6784924086366573
1658790116130766,-3.7537193865873633,0.03051804379333589,-1.1902037079423735
1658790116146766,-3.0212863355459376,0.7019150072480898,-1.4343480582895154
1658790116162766,-1.4953841458761872,0.8239871824216607,-2.3498893720911838
1658790116178766,2.8992141603723667,1.1902037079423735,-2.166781109330941
1658790116194766,4.180971999694748,1.983672846570471,-1.8005645838102282
1658790116210765,2.7161058976118966,2.4719615472647547,-1.3733119707026162
1658790116226765,1.739528496223329,2.4719615472647547,-1.3733119707026162
1658790116242765,1.6784924086366573,1.983672846570471,-1.6784924086366573
1658790116258765,1.1291676203554744,2.04470893415737,-1.0070954451819034
1658790116274765,-0.09155413138023505,1.4953841458761872,-1.6784924086366573
1658790116290764,-0.6408789196611906,2.227817196917613,-1.6784924086366573
1658790116306764,-2.166781109330941,2.410925459678083,-0.7019150072480898
1658790116322764,-2.288853284504512,1.3122758831159445,-0.8850232700083325
1658790116338775,0.5798428320745188,0.6408789196611906,-0.7629510948347615
1658790116354775,0.5798428320745188,0.33569848172737693,-0.8850232700083325
1658790116370775,-0.9460593575952316,0.5188067444876197,-2.166781109330941
1658790116386775,0.09155413138023505,0.8850232700083325,-2.4719615472647547
1658790116402774,1.6784924086366573,1.0070954451819034,-1.4343480582895154
1658790116418774,2.7771419851987957,0.9460593575952316,-0.45777065690094787
1658790116434774,0.45777065690094787,0.5188067444876197,-0.5798428320745188
1658790116450774,-3.0823224231326094,0.213626306553806,-1.6784924086366573
1658790116466774,-3.0212863355459376,-0.3967345693140487,-3.0212863355459376
1658790116482773,-0.213626306553806,0.09155413138023505,-2.166781109330941
1658790116498773,2.105745021744042,0.7629510948347615,-1.0681315327688026
1658790116514773,2.9602502479590385,1.1902037079423735,-1.6784924086366573
1658790116530773,1.0681315327688026,1.3733119707026162,-2.410925459678083
1658790116546773,0.5798428320745188,0.7629510948347615,-3.1433585107195086
1658790116562772,0.7629510948347615,0.45777065690094787,-2.4719615472647547
1658790116578772,0.9460593575952316,-0.09155413138023505,-1.8616006713969
1658790116594772,1.1902037079423735,0.2746623941404778,-1.1902037079423735
1658790116610772,-0.2746623941404778,0.213626306553806,-0.5798428320745188
1658790116626772,0.09155413138023505,-0.3967345693140487,-0.15259021896690683
1658790116642771,0.7019150072480898,-0.7629510948347615,-0.15259021896690683
1658790116658752,-1.1291676203554744,-0.8850232700083325,-1.3733119707026162
1658790116674752,-1.9226367589837992,-0.7019150072480898,-2.105745021744042
1658790116690752,0.09155413138023505,0.03051804379333589,-1.1291676203554744
1658790116706751,2.410925459678083,0.03051804379333589,-0.7019150072480898
1658790116722751,2.288853284504512,-0.03051804379333589,-0.6408789196611906
1658790116738751,1.1902037079423735,-0.33569848172737693,-0.8239871824216607
1658790116754751,1.2512397955290453,-0.15259021896690683,-1.6174563210497581
1658790116770751,-0.8239871824216607,-0.213626306553806,-1.8616006713969
1658790116786750,-1.3122758831159445,-0.2746623941404778,-1.3733119707026162
1658790116802750,0.8850232700083325,0.33569848172737693,-0.8850232700083325
1658790116818750,0.8850232700083325,0.7629510948347615,-0.7629510948347615
1658790116834750,-0.15259021896690683,0.03051804379333589,-1.4343480582895154
1658790116850750,0.6408789196611906,-0.5798428320745188,-1.9226367589837992
1658790116866749,0.8239871824216607,0.09155413138023505,-1.4953841458761872
1658790116882749,-1.6174563210497581,0.03051804379333589,-0.6408789196611906
1658790116898749,-2.3498893720911838,-0.03051804379333589,-0.213626306553806
1658790116914749,-0.7629510948347615,0.09155413138023505,0.7629510948347615
1658790116930749,-0.213626306553806,-0.213626306553806,0.5188067444876197
1658790116946748,-0.7019150072480898,-0.33569848172737693,-0.03051804379333589
1658790116962748,0.6408789196611906,0.7019150072480898,0.09155413138023505
1658790116978729,2.3498893720911838,1.5564202334630863,0.5798428320745188
1658790116994729,3.1433585107195086,1.983672846570471,1.1291676203554744
1658790117010728,2.532997634851654,1.3733119707026162,0.9460593575952316
1658790117026728,1.3122758831159445,1.2512397955290453,0.7019150072480898
1658790117042728,0.15259021896690683,1.2512397955290453,0.45777065690094787
1658790117058728,-0.15259021896690683,1.5564202334630863,0.8239871824216607
1658790117074728,0.6408789196611906,1.3733119707026162,1.0070954451819034
1658790117090727,0.33569848172737693,1.6784924086366573,1.4343480582895154
1658790117106727,-1.739528496223329,1.4343480582895154,1.2512397955290453
1658790117122727,-0.9460593575952316,0.7629510948347615,0.03051804379333589
1658790117138727,-0.7629510948347615,0.2746623941404778,-0.213626306553806
1658790117154727,-0.8850232700083325,0.6408789196611906,0.45777065690094787
1658790117170726,0.5188067444876197,1.1291676203554744,0.5188067444876197
1658790117186726,1.1291676203554744,1.4953841458761872,0.5188067444876197
1658790117202726,-0.5188067444876197,0.3967345693140487,-0.9460593575952316
1658790117218726,-1.2512397955290453,0.09155413138023505,-1.3122758831159445
1658790117234726,-0.5798428320745188,0.3967345693140487,-1.1902037079423735
1658790117250725,1.2512397955290453,0.8239871824216607,-1.0681315327688026
1658790117266725,1.1291676203554744,0.5188067444876197,-1.3733119707026162
1658790117282725,-0.213626306553806,0.45777065690094787,-1.8616006713969
1658790117298736,0.03051804379333589,0.5188067444876197,-2.166781109330941
1658790117314736,1.2512397955290453,0.8239871824216607,-1.5564202334630863
1658790117330736,1.2512397955290453,0.5798428320745188,-1.3733119707026162
1658790117346736,0.213626306553806,0.213626306553806,-1.1902037079423735
1658790117362735,-0.5188067444876197,0.45777065690094787,-1.5564202334630863
1658790117378735,-0.6408789196611906,0.45777065690094787,-2.227817196917613
1658790117394735,1.1902037079423735,0.09155413138023505,-2.04470893415737
1658790117410735,1.8005645838102282,0.213626306553806,-2.105745021744042
1658790117426735,0.5798428320745188,0.33569848172737693,-2.7771419851987957
1658790117442734,-0.3967345693140487,1.0070954451819034,-2.8381780727854675
1658790117458734,0.7019150072480898,0.8239871824216607,-2.8381780727854675
1658790117474734,2.227817196917613,0.7629510948347615,-2.04470893415737
1658790117490734,1.0070954451819034,0.5188067444876197,-2.105745021744042
1658790117506734,-0.8850232700083325,0.5188067444876197,-2.9602502479590385
1658790117522733,-0.33569848172737693,0.45777065690094787,-2.655069810025225
1658790117538733,2.8992141603723667,0.5798428320745188,-1.2512397955290453
1658790117554733,1.9226367589837992,0.6408789196611906,-0.33569848172737693
1658790117570733,-0.5798428320745188,0.09155413138023505,-1.3733119707026162
1658790117586732,-0.6408789196611906,0.2746623941404778,-1.9226367589837992
1658790117602732,1.4343480582895154,0.09155413138023505,-1.3122758831159445
1658790117618713,1.4343480582895154,0.2746623941404778,-0.6408789196611906
1658790117634713,0.7629510948347615,0.2746623941404778,0.15259021896690683
1658790117650713,0.7019150072480898,-0.03051804379333589,-0.213626306553806
1658790117666712,0.9460593575952316,-0.15259021896690683,-0.7019150072480898
1658790117682712,0.7629510948347615,0.09155413138023505,-1.1291676203554744
1658790117698712,-1.5564202334630863,0.3967345693140487,-0.8850232700083325
1658790117714712,-0.5798428320745188,0.5188067444876197,-0.3967345693140487
1658790117730712,1.5564202334630863,0.5798428320745188,-0.2746623941404778
1658790117746711,2.7161058976118966,0.5188067444876197,-0.213626306553806
1658790117762711,1.5564202334630863,0.2746623941404778,-0.5798428320745188
1658790117778711,0.213626306553806,0.09155413138023505,-0.7629510948347615
1658790117794711,-0.09155413138023505,0.2746623941404778,-0.213626306553806
1658790117810711,-0.45777065690094787,0.5188067444876197,-0.5188067444876197
1658790117826710,-1.0070954451819034,0.3967345693140487,-1.2512397955290453
1658790117842710,-0.09155413138023505,0.3967345693140487,-1.3733119707026162
1658790117858710,1.4953841458761872,0.03051804379333589,-2.105745021744042
1658790117874710,1.1902037079423735,0.5188067444876197,-2.166781109330941
1658790117890710,0.03051804379333589,0.8239871824216607,-1.3733119707026162
1658790117906709,0.5188067444876197,0.7019150072480898,-1.5564202334630863
1658790117922709,1.4953841458761872,1.0070954451819034,-0.7629510948347615
1658790117938720,-0.33569848172737693,0.8239871824216607,-1.0070954451819034
1658790117954720,-1.3122758831159445,0.33569848172737693,-2.105745021744042
1658790117970720,-0.5188067444876197,0.5188067444876197,-2.288853284504512
1658790117986720,0.45777065690094787,0.7629510948347615,-1.983672846570471
1658790118002720,1.6174563210497581,1.1902037079423735,-1.5564202334630863
1658790118018719,2.227817196917613,1.2512397955290453,-1.6174563210497581
1658790118034719,1.4343480582895154,0.6408789196611906,-2.5940337224383256
1658790118050719,1.5564202334630863,0.15259021896690683,-3.570611123826893
1658790118066719,2.410925459678083,0.9460593575952316,-2.655069810025225
1658790118082718,1.9226367589837992,1.739528496223329,-1.6784924086366573
1658790118098718,0.9460593575952316,2.166781109330941,-1.2512397955290453
1658790118114718,-0.45777065690094787,1.3122758831159445,-1.6174563210497581
1658790118130718,0.8850232700083325,0.3967345693140487,-2.227817196917613
1658790118146718,2.410925459678083,0.8239871824216607,-2.532997634851654
1658790118162717,1.2512397955290453,1.9226367589837992,-1.739528496223329
1658790118178717,0.45777065690094787,2.105745021744042,-1.6784924086366573
1658790118194717,1.1902037079423735,1.9226367589837992,-1.6784924086366573
1658790118210717,0.45777065690094787,1.3733119707026162,-1.3122758831159445
1658790118226717,-1.6784924086366573,1.1902037079423735,-1.739528496223329
1658790118242716,-1.2512397955290453,1.0681315327688026,-1.4343480582895154
1658790118258697,-0.5798428320745188,0.8239871824216607,-0.8850232700083325
1658790118274697,1.3122758831159445,0.7629510948347615,-0.45777065690094787
1658790118290697,1.1902037079423735,0.8239871824216607,-0.09155413138023505
1658790118306697,0.7629510948347615,0.7019150072480898,-0.8850232700083325
1658790118322696,1.0681315327688026,0.3967345693140487,-1.4953841458761872
1658790118338696,-0.2746623941404778,0.33569848172737693,-1.2512397955290453
1658790118354696,-1.3122758831159445,0.2746623941404778,-0.8239871824216607
1658790118370696,-0.2746623941404778,0.7629510948347615,-0.9460593575952316
1658790118386695,-0.7629510948347615,0.8239871824216607,-0.7629510948347615
1658790118402695,1.1291676203554744,0.03051804379333589,-0.8239871824216607
1658790118418695,2.7771419851987957,-0.03051804379333589,-1.3733119707026162
1658790118434695,1.6784924086366573,0.03051804379333589,-1.983672846570471
1658790118450695,-0.09155413138023505,0.9460593575952316,-1.3733119707026162
1658790118466694,-1.3733119707026162,0.5188067444876197,-1.8616006713969
1658790118482694,0.09155413138023505,0.7019150072480898,-1.4343480582895154
1658790118498694,0.2746623941404778,0.15259021896690683,-1.3122758831159445
1658790118514694,-1.3122758831159445,0.03051804379333589,-1.8616006713969
1658790118530694,-1.5564202334630863,-0.3967345693140487,-2.227817196917613
1658790118546693,0.5798428320745188,-0.213626306553806,-1.3122758831159445
1658790118562693,3.5095750362402214,0.33569848172737693,-0.09155413138023505
1658790118578704,1.5564202334630863,-0.33569848172737693,-1.2512397955290453
1658790118594704,-2.166781109330941,-0.9460593575952316,-2.166781109330941
1658790118610704,-2.04470893415737,-0.7629510948347615,-1.4343480582895154
1658790118626704,1.4953841458761872,0.5188067444876197,-0.5188067444876197
1658790118642704,0.8850232700083325,0.7019150072480898,-0.8850232700083325
1658790118658703,-1.3733119707026162,0.09155413138023505,-0.9460593575952316
1658790118674703,-0.7629510948347615,-0.45777065690094787,-0.7019150072480898
1658790118690703,1.1902037079423735,-0.33569848172737693,-0.5188067444876197
1658790118706703,1.1902037079423735,0.03051804379333589,-0.09155413138023505
1658790118722703,0.6408789196611906,0.6408789196611906,-0.3967345693140487
1658790118738702,0.03051804379333589,0.6408789196611906,-0.5798428320745188
1658790118754702,-0.5188067444876197,0.5798428320745188,0.15259021896690683
1658790118770702,0.6408789196611906,0.45777065690094787,0.7019150072480898
1658790118786702,-1.9226367589837992,0.7629510948347615,0.8850232700083325
1658790118802702,-2.4719615472647547,0.213626306553806,-0.09155413138023505
1658790118818701,0.03051804379333589,0.03051804379333589,0.33569848172737693
1658790118834701,1.4343480582895154,-0.15259021896690683,1.0070954451819034
1658790118850701,0.8850232700083325,0.33569848172737693,1.3733119707026162
1658790118866701,-0.5798428320745188,0.6408789196611906,0.09155413138023505
1658790118882701,-0.5798428320745188,0.3967345693140487,-1.3122758831159445
1658790118898712,0.15259021896690683,0.45777065690094787,-0.8850232700083325
1658790118914712,-0.5188067444876197,0.09155413138023505,-1.3122758831159445
1658790118930711,-0.45777065690094787,0.2746623941404778,-2.410925459678083
1658790118946711,-0.6408789196611906,0.213626306553806,-2.8992141603723667
1658790118962711,0.5798428320745188,0.213626306553806,-2.288853284504512
1658790118978711,0.9460593575952316,0.3967345693140487,-1.3733119707026162
1658790118994711,0.6408789196611906,0.2746623941404778,-1.8616006713969
1658790119010710,0.5798428320745188,0.5798428320745188,-2.532997634851654
1658790119026710,-1.8616006713969,0.7019150072480898,-3.7537193865873633
1658790119042710,-2.4719615472647547,0.7629510948347615,-4.119935912108076
1658790119058710,0.33569848172737693,0.7019150072480898,-3.2043945983061803
1658790119074710,2.655069810025225,1.1902037079423735,-2.227817196917613
1658790119090709,1.1902037079423735,1.3122758831159445,-2.04470893415737
1658790119106709,-0.45777065690094787,0.9460593575952316,-2.655069810025225
1658790119122709,-0.7019150072480898,0.8850232700083325,-2.532997634851654
1658790119138709,-1.1291676203554744,1.3122758831159445,-1.6784924086366573
1658790119154708,-0.6408789196611906,1.6784924086366573,-1.6784924086366573
1658790119170708,1.0070954451819034,2.105745021744042,-1.983672846570471
1658790119186708,2.227817196917613,1.5564202334630863,-2.3498893720911838
1658790119202708,4.058899824521177,1.4953841458761872,-2.410925459678083
1658790119218689,1.0070954451819034,1.6174563210497581,-2.105745021744042
1658790119234688,0.9460593575952316,1.6784924086366573,-2.166781109330941
1658790119250688,0.9460593575952316,1.8005645838102282,-1.8005645838102282
1658790119266688,0.213626306553806,1.739528496223329,-1.6174563210497581
1658790119282688,-1.0070954451819034,1.983672846570471,-1.0070954451819034
1658790119298688,-2.105745021744042,1.6784924086366573,-1.6784924086366573
1658790119314687,-2.7771419851987957,1.739528496223329,-2.227817196917613
1658790119330687,-0.7019150072480898,1.6784924086366573,-1.4343480582895154
1658790119346687,2.5940337224383256,1.6174563210497581,-0.09155413138023505
1658790119362687,2.288853284504512,1.5564202334630863,0.3967345693140487
1658790119378687,-2.8381780727854675,0.7019150072480898,-1.0070954451819034
1658790119394686,-3.4485389486533222,-0.09155413138023505,-2.532997634851654
1658790119410686,0.5798428320745188,0.5798428320745188,-1.6784924086366573
1658790119426686,2.288853284504512,1.5564202334630863,-0.3967345693140487
1658790119442686,2.655069810025225,2.166781109330941,-0.45777065690094787
1658790119458685,-0.15259021896690683,1.1902037079423735,-1.4343480582895154
1658790119474685,-1.0681315327688026,0.03051804379333589,-1.983672846570471
1658790119490685,-0.03051804379333589,0.03051804379333589,-2.410925459678083
1658790119506685,-0.09155413138023505,0.2746623941404778,-2.166781109330941
1658790119522685,0.5798428320745188,0.8239871824216607,-1.5564202334630863
1658790119538696,0.8239871824216607,0.8239871824216607,-0.6408789196611906
1658790119554696,0.5798428320745188,0.2746623941404778,-0.8239871824216607
1658790119570696,-0.7019150072480898,-0.09155413138023505,-1.6174563210497581
1658790119586695,-1.6784924086366573,-0.33569848172737693,-1.9226367589837992
1658790119602695,-0.09155413138023505,0.33569848172737693,-0.9460593575952316
1658790119618695,2.655069810025225,0.7629510948347615,0.03051804379333589
1658790119634695,1.9226367589837992,0.7629510948347615,0.7019150072480898
1658790119650694,-0.8239871824216607,0.09155413138023505,0.5188067444876197
1658790119666694,0.45777065690094787,0.09155413138023505,-0.2746623941404778
1658790119682694,2.288853284504512,1.1902037079423735,0.213626306553806
1658790119698694,1.0070954451819034,1.739528496223329,0.45777065690094787
1658790119714694,-1.2512397955290453,1.4953841458761872,0.6408789196611906
1658790119730693,-1.4953841458761872,0.33569848172737693,0.03051804379333589
1658790119746693,0.6408789196611906,0.5798428320745188,-0.09155413138023505
1658790119762693,0.8850232700083325,1.0681315327688026,-0.45777065690094787
1658790119778693,-0.2746623941404778,0.9460593575952316,-0.5798428320745188
1658790119794693,0.5188067444876197,0.45777065690094787,-0.3967345693140487
1658790119810692,1.8616006713969,0.45777065690094787,-0.15259021896690683
1658790119826692,1.0070954451819034,0.8239871824216607,-0.09155413138023505
1658790119842692,-0.33569848172737693,0.5188067444876197,-1.3122758831159445
1658790119858673,0.5188067444876197,0.3967345693140487,-2.3498893720911838
1658790119874673,0.213626306553806,1.1902037079423735,-2.04470893415737
1658790119890672,-1.0070954451819034,1.3122758831159445,-2.04470893415737
1658790119906672,0.5188067444876197,1.3733119707026162,-2.04470893415737
1658790119922672,1.0681315327688026,0.8850232700083325,-1.8005645838102282
1658790119938672,1.8005645838102282,1.1291676203554744,-1.8616006713969
1658790119954671,-0.09155413138023505,1.1291676203554744,-2.3498893720911838
1658790119970671,-0.7019150072480898,0.5798428320745188,-3.2654306858930795
1658790119986671,1.6784924086366573,0.7629510948347615,-2.5940337224383256
1658790120002671,3.0212863355459376,1.1902037079423735,-2.04470893415737
1658790120018671,1.0681315327688026,1.4953841458761872,-2.04470893415737
1658790120034670,-0.3967345693140487,0.8239871824216607,-2.227817196917613
1658790120050670,0.5188067444876197,0.33569848172737693,-2.227817196917613
1658790120066670,3.936827649347606,-0.03051804379333589,-2.5940337224383256
1658790120082670,4.60822461280236,1.1291676203554744,-2.3498893720911838
1658790120098670,-0.3967345693140487,2.04470893415737,-1.8616006713969
1658790120114669,-0.5798428320745188,1.9226367589837992,-1.9226367589837992
1658790120130669,1.9226367589837992,2.288853284504512,-1.6174563210497581
1658790120146669,0.45777065690094787,1.9226367589837992,-2.105745021744042
1658790120162669,-1.6174563210497581,2.105745021744042,-2.410925459678083
1658790120178680,-1.0070954451819034,1.8005645838102282,-2.5940337224383256
1658790120194680,2.105745021744042,1.6174563210497581,-1.6174563210497581
1658790120210680,3.570611123826893,1.5564202334630863,-0.5188067444876197
1658790120226679,1.3733119707026162,1.3122758831159445,-0.45777065690094787
1658790120242679,-0.8850232700083325,0.3967345693140487,-0.9460593575952316
1658790120258679,-0.9460593575952316,-0.2746623941404778,-1.4343480582895154
1658790120274679,0.6408789196611906,0.03051804379333589,-1.2512397955290453
1658790120290679,-0.33569848172737693,0.6408789196611906,-0.7019150072480898
1658790120306678,-0.2746623941404778,1.0070954451819034,-0.8239871824216607
1658790120322678,-0.2746623941404778,0.8850232700083325,-1.1291676203554744
1658790120338678,1.0681315327688026,0.09155413138023505,-1.2512397955290453
1658790120354678,0.2746623941404778,0.213626306553806,-0.2746623941404778
1658790120370678,-0.7019150072480898,-0.15259021896690683,-0.45777065690094787
1658790120386677,-0.6408789196611906,-0.09155413138023505,0.09155413138023505
1658790120402677,1.0070954451819034,-0.2746623941404778,0.6408789196611906
1658790120418677,2.410925459678083,0.213626306553806,0.8850232700083325
1658790120434677,1.5564202334630863,0.3967345693140487,0.15259021896690683
1658790120450677,-0.09155413138023505,-0.33569848172737693,-1.0070954451819034
1658790120466676,-0.2746623941404778,-0.8239871824216607,-1.0681315327688026
1658790120482676,1.4343480582895154,-1.0681315327688026,-0.213626306553806
1658790120498687,2.5940337224383256,-0.213626306553806,0.213626306553806
1658790120514687,0.213626306553806,-0.7629510948347615,-0.7019150072480898
1658790120530687,-0.03051804379333589,-1.0681315327688026,-1.4953841458761872
1658790120546687,0.5798428320745188,-0.7019150072480898,-1.2512397955290453
1658790120562687,-0.213626306553806,-0.2746623941404778,-1.1291676203554744
1658790120578686,0.2746623941404778,0.09155413138023505,-1.0070954451819034
1658790120594686,-0.03051804379333589,-0.09155413138023505,-1.4953841458761872
1658790120610686,0.2746623941404778,-0.3967345693140487,-1.983672846570471
1658790120626686,1.1902037079423735,0.213626306553806,-1.4953841458761872
1658790120642686,2.04470893415737,0.8239871824216607,-0.5188067444876197
1658790120658685,3.7537193865873633,1.0070954451819034,0.09155413138023505
1658790120674685,4.669260700389032,0.7629510948347615,0.45777065690094787
1658790120690685,4.60822461280236,0.9460593575952316,0.2746623941404778
1658790120706685,5.706874189364498,1.8616006713969,-0.5798428320745188
1658790120722684,7.537956816968062,2.7771419851987957,-0.213626306553806
1658790120738684,6.500343327992596,3.0823224231326094,0.213626306553806
1658790120754684,3.875791561760934,3.6316472114137923,-0.3967345693140487
1658790120770684,-0.2746623941404778,2.9602502479590385,-1.0681315327688026
1658790120786684,1.0681315327688026,2.3498893720911838,-0.8850232700083325
1658790120802683,5.584802014190927,2.410925459678083,0.2746623941404778
1658790120818664,2.105745021744042,2.3498893720911838,0.7629510948347615
1658790120834664,-3.936827649347606,1.8616006713969,0.33569848172737693
1658790120850664,-2.7161058976118966,1.4343480582895154,0.213626306553806
1658790120866664,5.279621576256886,1.6784924086366573,0.9460593575952316
1658790120882663,6.195162890058782,2.532997634851654,0.3967345693140487
1658790120898663,-0.7019150072480898,1.983672846570471,-1.1902037079423735
1658790120914663,-0.15259021896690683,1.6784924086366573,-1.6174563210497581
1658790120930663,4.60822461280236,1.8616006713969,-0.7629510948347615
1658790120946663,6.805523765926637,1.739528496223329,-0.2746623941404778
1658790120962662,3.997863736934505,0.9460593575952316,-0.45777065690094787
1658790120978662,2.04470893415737,0.45777065690094787,-0.09155413138023505
1658790120994662,0.9460593575952316,0.33569848172737693,0.09155413138023505
1658790121010662,-1.2512397955290453,-0.213626306553806,-0.2746623941404778
1658790121026661,-0.8239871824216607,0.3967345693140487,-0.8239871824216607
1658790121042661,0.45777065690094787,0.8239871824216607,-1.4953841458761872
1658790121058661,0.2746623941404778,0.8239871824216607,-1.6174563210497581
1658790121074661,-0.6408789196611906,0.2746623941404778,-1.1291676203554744
1658790121090661,0.9460593575952316,0.03051804379333589,-0.6408789196611906
1658790121106660,1.0070954451819034,-0.15259021896690683,-1.1291676203554744
1658790121122660,-0.5188067444876197,-0.33569848172737693,-1.3733119707026162
1658790121138672,-0.45777065690094787,-0.9460593575952316,-2.105745021744042
1658790121154671,-0.2746623941404778,-1.0070954451819034,-2.227817196917613
1658790121170671,-0.45777065690094787,-0.8239871824216607,-1.3122758831159445
1658790121186671,-0.5798428320745188,-0.5798428320745188,-0.9460593575952316
1658790121202671,-1.3122758831159445,-1.0070954451819034,-0.9460593575952316
1658790121218670,0.3967345693140487,-1.3122758831159445,-1.0070954451819034
1658790121234670,0.6408789196611906,-1.4343480582895154,-0.9460593575952316
1658790121250670,0.45777065690094787,-2.105745021744042,-2.288853284504512
1658790121266670,0.5188067444876197,-1.5564202334630863,-2.04470893415737
1658790121282670,0.7629510948347615,-1.2512397955290453,-1.6174563210497581
1658790121298669,-0.09155413138023505,-0.3967345693140487,-1.4953841458761872
1658790121314669,-2.288853284504512,-0.8850232700083325,-1.9226367589837992
1658790121330669,-0.9460593575952316,-1.0070954451819034,-2.410925459678083
1658790121346669,-1.0681315327688026,-0.5798428320745188,-2.3498893720911838
1658790121362669,-0.2746623941404778,-0.9460593575952316,-2.04470893415737
1658790121378668,1.0681315327688026,-0.6408789196611906,-1.4953841458761872
1658790121394668,1.4953841458761872,-0.8850232700083325,-1.0070954451819034
1658790121410668,1.6784924086366573,-0.8239871824216607,-0.5188067444876197
1658790121426668,0.213626306553806,-0.5798428320745188,-0.8239871824216607
1658790121442668,-1.3733119707026162,-0.33569848172737693,-1.0681315327688026
1658790121458648,-1.3733119707026162,0.15259021896690683,-0.5188067444876197
1658790121474648,-0.8239871824216607,0.6408789196611906,-0.7019150072480898
1658790121490648,-0.5798428320745188,1.1902037079423735,-0.7019150072480898
1658790121506648,-0.213626306553806,0.9460593575952316,-1.1291676203554744
1658790121522647,1.6784924086366573,1.4343480582895154,-0.7629510948347615
1658790121538647,1.8005645838102282,1.2512397955290453,-0.213626306553806
1658790121554647,3.1433585107195086,1.983672846570471,0.2746623941404778
1658790121570647,3.6316472114137923,2.7161058976118966,0.7019150072480898
1658790121586647,1.983672846570471,2.532997634851654,0.8850232700083325
1658790121602646,3.7537193865873633,2.5940337224383256,0.6408789196611906
1658790121618646,4.303044174868319,2.410925459678083,1.3733119707026162
1658790121634646,1.739528496223329,2.410925459678083,2.4719615472647547
1658790121650646,0.09155413138023505,2.410925459678083,2.5940337224383256
1658790121666646,-0.9460593575952316,1.6784924086366573,2.7161058976118966
1658790121682645,1.0070954451819034,1.0681315327688026,2.7161058976118966
1658790121698645,1.8005645838102282,0.7019150072480898,2.5940337224383256
1658790121714645,0.33569848172737693,1.2512397955290453,2.4719615472647547
1658790121730645,-0.5798428320745188,1.5564202334630863,1.6174563210497581
1658790121746645,1.3122758831159445,1.3122758831159445,0.9460593575952316
1658790121762644,2.04470893415737,1.4343480582895154,0.9460593575952316
1658790121778656,-1.0070954451819034,0.6408789196611906,-0.45777065690094787
1658790121794655,-2.4719615472647547,0.8239871824216607,-0.9460593575952316
1658790121810655,-1.0070954451819034,1.4343480582895154,-0.9460593575952316
1658790121826655,-0.09155413138023505,0.8239871824216607,-1.6174563210497581
1658790121842655,1.0070954451819034,0.2746623941404778,-1.4953841458761872
1658790121858655,3.5095750362402214,0.03051804379333589,-1.3733119707026162
1658790121874654,5.279621576256886,0.15259021896690683,-2.04470893415737
1658790121890654,5.462729839017356,0.09155413138023505,-3.875791561760934
1658790121906654,6.378271152819025,-0.09155413138023505,-4.303044174868319
1658790121922654,3.570611123826893,-0.213626306553806,-2.9602502479590385
1658790121938654,1.5564202334630863,-0.15259021896690683,-2.7771419851987957
1658790121954653,-0.15259021896690683,-0.5798428320745188,-2.532997634851654
1658790121970653,-0.3967345693140487,-1.5564202334630863,-1.5564202334630863
1658790121986653,-0.33569848172737693,-2.655069810025225,-0.15259021896690683
1658790122002653,-2.410925459678083,-2.8992141603723667,1.1291676203554744
1658790122018653,-2.105745021744042,-2.7771419851987957,1.4343480582895154
1658790122034652,1.0070954451819034,-1.9226367589837992,1.739528496223329
1658790122050652,3.3875028610666504,-1.6174563210497581,1.739528496223329
1658790122066652,0.9460593575952316,-1.6784924086366573,1.0070954451819034
1658790122082652,-1.3733119707026162,-1.4343480582895154,0.45777065690094787
1658790122098663,1.3122758831159445,-0.45777065690094787,0.5188067444876197
1658790122114663,2.410925459678083,-0.09155413138023505,1.0070954451819034
1658790122130663,2.166781109330941,-0.45777065690094787,1.5564202334630863
1658790122146662,0.09155413138023505,-0.8850232700083325,1.8616006713969
1658790122162662,0.2746623941404778,-0.8850232700083325,2.105745021744042
1658790122178662,1.6174563210497581,-0.9460593575952316,2.04470893415737
1658790122194662,2.7771419851987957,-0.45777065690094787,2.227817196917613
1658790122210662,-0.15259021896690683,0.03051804379333589,1.983672846570471
1658790122226661,-2.227817196917613,0.213626306553806,1.5564202334630863
1658790122242661,-2.288853284504512,0.45777065690094787,1.4343480582895154
1658790122258661,0.213626306553806,0.8239871824216607,0.7019150072480898
1658790122274661,1.3122758831159445,1.4953841458761872,-0.03051804379333589
1658790122290660,0.5798428320745188,1.3733119707026162,-0.213626306553806
1658790122306660,2.166781109330941,1.6174563210497581,-0.03051804379333589
1658790122322660,1.0070954451819034,2.288853284504512,-0.7629510948347615
1658790122338660,0.6408789196611906,2.532997634851654,-2.8992141603723667
1658790122354660,-0.15259021896690683,3.3264667734797513,-3.4485389486533222
1658790122370659,-0.2746623941404778,3.2043945983061803,-3.4485389486533222
1658790122386659,-0.8850232700083325,3.1433585107195086,-2.9602502479590385
1658790122402659,-0.33569848172737693,3.3264667734797513,-3.570611123826893
1658790122418640,1.3733119707026162,3.3264667734797513,-4.180971999694748
1658790122434640,3.0823224231326094,3.2043945983061803,-3.0212863355459376
1658790122450639,0.45777065690094787,3.3264667734797513,-1.983672846570471
1658790122466639,-1.3122758831159445,3.2654306858930795,-2.655069810025225
1658790122482639,-3.936827649347606,2.9602502479590385,-3.570611123826893
1658790122498639,-1.6784924086366573,2.166781109330941,-3.6316472114137923
1658790122514639,2.7771419851987957,2.4719615472647547,-2.288853284504512
1658790122530638,4.180971999694748,2.5940337224383256,-1.983672846570471
1658790122546638,1.4343480582895154,2.4719615472647547,-1.983672846570471
1658790122562638,-0.09155413138023505,1.4343480582895154,-1.2512397955290453
1658790122578638,2.7161058976118966,1.0070954451819034,-0.5188067444876197
1658790122594637,1.4953841458761872,1.3122758831159445,-0.6408789196611906
1658790122610637,-1.3733119707026162,1.1902037079423735,-1.6174563210497581
1658790122626637,-1.9226367589837992,1.2512397955290453,-1.4953841458761872
1658790122642637,-0.9460593575952316,0.6408789196611906,-0.9460593575952316
1658790122658637,1.3733119707026162,0.7019150072480898,-0.15259021896690683
1658790122674636,0.09155413138023505,0.2746623941404778,-0.6408789196611906
1658790122690636,0.03051804379333589,-0.45777065690094787,-1.0681315327688026
1658790122706636,0.8850232700083325,-1.3122758831159445,-1.8005645838102282
1658790122722636,3.5095750362402214,-0.8239871824216607,-1.2512397955290453
1658790122738647,1.5564202334630863,0.3967345693140487,-0.09155413138023505
1658790122754647,-1.0070954451819034,0.15259021896690683,-0.6408789196611906
1658790122770647,-1.0070954451819034,-0.7019150072480898,-1.6174563210497581
1658790122786646,1.4953841458761872,-0.8850232700083325,-1.6174563210497581
1658790122802646,1.0070954451819034,-0.3967345693140487,-1.1291676203554744
1658790122818646,0.3967345693140487,-0.213626306553806,-0.6408789196611906
1658790122834646,0.09155413138023505,0.09155413138023505,-0.33569848172737693
1658790122850646,0.5188067444876197,-0.5188067444876197,-0.3967345693140487
1658790122866645,1.4953841458761872,-0.8239871824216607,-0.7629510948347615
1658790122882645,1.4343480582895154,-0.3967345693140487,-0.7019150072480898
1658790122898645,0.213626306553806,-0.213626306553806,-1.1291676203554744
1658790122914645,-0.7629510948347615,-0.2746623941404778,-1.2512397955290453
1658790122930645,1.0070954451819034,-0.213626306553806,-0.5798428320745188
1658790122946644,1.739528496223329,-0.03051804379333589,-0.03051804379333589
1658790122962644,-0.09155413138023505,-0.6408789196611906,-0.5798428320745188
1658790122978644,-2.105745021744042,-0.6408789196611906,-1.8616006713969
1658790122994644,-1.983672846570471,-0.03051804379333589,-1.983672846570471
1658790123010644,0.03051804379333589,0.5188067444876197,-1.3122758831159445
1658790123026643,-0.3967345693140487,0.5798428320745188,-1.1291676203554744
1658790123042643,-1.9226367589837992,-0.3967345693140487,-1.6784924086366573
1658790123058624,-0.09155413138023505,-0.7019150072480898,-1.983672846570471
1658790123074624,3.1433585107195086,-0.6408789196611906,-2.04470893415737
1658790123090623,3.2654306858930795,-0.2746623941404778,-2.410925459678083
1658790123106623,-0.8239871824216607,0.03051804379333589,-2.655069810025225
1658790123122623,-1.6174563210497581,-0.5188067444876197,-2.5940337224383256
1658790123138623,1.9226367589837992,-0.15259021896690683,-2.105745021744042
1658790123154623,3.2043945983061803,0.3967345693140487,-1.739528496223329
1658790123170622,0.8239871824216607,0.45777065690094787,-2.410925459678083
1658790123186622,-0.213626306553806,0.03051804379333589,-2.8992141603723667
1658790123202622,1.4343480582895154,0.2746623941404778,-1.2512397955290453
1658790123218622,3.2043945983061803,0.6408789196611906,0.03051804379333589
1658790123234622,1.0681315327688026,0.8239871824216607,0.2746623941404778
1658790123250621,-2.3498893720911838,0.7019150072480898,-0.45777065690094787
1658790123266621,-2.04470893415737,0.5798428320745188,-1.4953841458761872
1658790123282621,-0.45777065690094787,0.6408789196611906,-1.3122758831159445
1658790123298621,0.03051804379333589,1.3122758831159445,-0.6408789196611906
1658790123314621,-0.03051804379333589,1.8616006713969,-0.7629510948347615
1658790123330620,0.03051804379333589,1.3733119707026162,-1.2512397955290453
1658790123346620,1.983672846570471,0.5188067444876197,-1.0681315327688026
1658790123362620,2.7161058976118966,0.7019150072480898,-0.03051804379333589
1658790123378631,-0.15259021896690683,0.8850232700083325,0.03051804379333589
1658790123394631,-1.3122758831159445,1.0070954451819034,-0.09155413138023505
1658790123410631,-0.5798428320745188,0.5798428320745188,-0.3967345693140487
1658790123426631,0.9460593575952316,0.213626306553806,-0.7629510948347615
1658790123442630,0.8850232700083325,0.5188067444876197,-1.2512397955290453
1658790123458630,0.33569848172737693,0.7629510948347615,-1.2512397955290453
1658790123474630,0.33569848172737693,0.7019150072480898,-0.8239871824216607
1658790123490630,0.5798428320745188,0.33569848172737693,-0.8239871824216607
1658790123506630,0.6408789196611906,0.2746623941404778,-0.6408789196611906
1658790123522629,0.5798428320745188,-0.15259021896690683,-1.4343480582895154
1658790123538629,-0.15259021896690683,0.2746623941404778,-1.3733119707026162
1658790123554629,-1.6174563210497581,0.2746623941404778,-1.6784924086366573
1658790123570629,-0.7629510948347615,0.3967345693140487,-0.8239871824216607
1658790123586629,3.570611123826893,0.6408789196611906,-0.5188067444876197
1658790123602628,2.655069810025225,0.2746623941404778,-1.0681315327688026
1658790123618628,-1.983672846570471,-0.213626306553806,-1.8005645838102282
1658790123634628,-2.532997634851654,-0.45777065690094787,-1.8616006713969
1658790123650628,1.8005645838102282,0.45777065690094787,-0.6408789196611906
1658790123666628,1.5564202334630863,1.0070954451819034,-0.6408789196611906
1658790123682627,-0.45777065690094787,0.33569848172737693,-1.6174563210497581
1658790123698639,-0.7019150072480898,-0.213626306553806,-1.3122758831159445
1658790123714638,0.15259021896690683,-0.5188067444876197,-0.5188067444876197
1658790123730638,1.983672846570471,0.09155413138023505,-0.15259021896690683
1658790123746638,1.0070954451819034,0.2746623941404778,-0.7629510948347615
1658790123762638,0.45777065690094787,0.45777065690094787,-1.4343480582895154
1658790123778638,0.33569848172737693,0.5188067444876197,-2.105745021744042
1658790123794637,0.5798428320745188,0.33569848172737693,-2.227817196917613
1658790123810637,1.1902037079423735,1.1291676203554744,-1.2512397955290453
1658790123826637,1.1291676203554744,0.8239871824216607,-1.8616006713969
1658790123842637,0.3967345693140487,0.7019150072480898,-1.8005645838102282
1658790123858636,-0.8850232700083325,0.3967345693140487,-1.9226367589837992
1658790123874636,-0.45777065690094787,0.7019150072480898,-1.9226367589837992
1658790123890636,0.09155413138023505,1.1902037079423735,-2.8992141603723667
1658790123906636,-0.03051804379333589,1.1902037079423735,-4.058899824521177
1658790123922636,-0.03051804379333589,1.6784924086366573,-3.2654306858930795
1658790123938635,0.5798428320745188,1.6174563210497581,-2.3498893720911838
1658790123954635,1.8005645838102282,2.04470893415737,-2.532997634851654
1658790123970635,0.6408789196611906,1.5564202334630863,-3.570611123826893
1658790123986635,0.3967345693140487,0.5798428320745188,-3.692683299000464
1658790124002635,3.3264667734797513,1.0681315327688026,-2.5940337224383256
1658790124018615,2.532997634851654,1.5564202334630863,-1.6174563210497581
1658790124034615,0.9460593575952316,1.5564202334630863,-1.4343480582895154
1658790124050615,-1.1902037079423735,1.2512397955290453,-1.5564202334630863
1658790124066615,-0.5798428320745188,0.5188067444876197,-1.5564202334630863
1658790124082615,-0.3967345693140487,0.5188067444876197,-0.9460593575952316
1658790124098614,0.7629510948347615,0.8239871824216607,-0.45777065690094787
1658790124114614,2.227817196917613,1.1291676203554744,0.09155413138023505
1658790124130614,1.6784924086366573,1.0070954451819034,-0.15259021896690683
1658790124146614,-0.09155413138023505,0.7629510948347615,-0.8850232700083325
1658790124162613,0.213626306553806,0.7019150072480898,-0.6408789196611906
1658790124178613,3.2043945983061803,1.2512397955290453,-0.03051804379333589
1658790124194613,2.9602502479590385,1.1902037079423735,-0.03051804379333589
1658790124210613,0.213626306553806,0.7019150072480898,-0.213626306553806
1658790124226613,-0.8239871824216607,-0.09155413138023505,0.213626306553806
1658790124242612,1.3122758831159445,0.03051804379333589,0.5188067444876197
1658790124258612,1.3122758831159445,0.09155413138023505,-0.15259021896690683
1658790124274612,-0.213626306553806,0.03051804379333589,-1.6174563210497581
1658790124290612,0.5798428320745188,0.2746623941404778,-1.739528496223329
1658790124306612,1.6174563210497581,0.5798428320745188,-0.8239871824216607
1658790124322611,0.09155413138023505,0.45777065690094787,-0.8850232700083325
1658790124338623,-2.227817196917613,0.09155413138023505,-1.3733119707026162
1658790124354622,-0.5188067444876197,-0.45777065690094787,-1.983672846570471
1658790124370622,4.119935912108076,-0.2746623941404778,-1.739528496223329
1658790124386622,3.2654306858930795,0.213626306553806,-1.3122758831159445
1658790124402622,1.1902037079423735,0.7629510948347615,-2.227817196917613
1658790124418622,-0.3967345693140487,0.9460593575952316,-2.288853284504512
1658790124434621,0.2746623941404778,0.2746623941404778,-1.8616006713969
1658790124450621,2.105745021744042,0.213626306553806,-1.4343480582895154
1658790124466621,0.15259021896690683,0.03051804379333589,-1.5564202334630863
1658790124482621,-0.7629510948347615,0.3967345693140487,-2.410925459678083
1658790124498621,0.2746623941404778,0.7629510948347615,-2.410925459678083
1658790124514620,2.166781109330941,0.2746623941404778,-1.983672846570471
1658790124530620,4.852368963149502,0.7629510948347615,-1.3733119707026162
1658790124546620,1.1291676203554744,0.7019150072480898,-1.983672846570471
1658790124562620,0.09155413138023505,0.6408789196611906,-3.2043945983061803
1658790124578620,0.15259021896690683,0.6408789196611906,-3.2043945983061803
1658790124594619,-1.1291676203554744,0.45777065690094787,-2.410925459678083
1658790124610619,-0.5798428320745188,0.7629510948347615,-1.739528496223329
1658790124626619,1.0070954451819034,0.8239871824216607,-2.410925459678083
1658790124642619,1.4953841458761872,0.8850232700083325,-2.227817196917613
1658790124658599,2.532997634851654,1.1291676203554744,-1.9226367589837992
1658790124674599,2.3498893720911838,1.3733119707026162,-1.0681315327688026
1658790124690599,1.4953841458761872,1.6174563210497581,-0.45777065690094787
1658790124706599,0.6408789196611906,2.105745021744042,0.2746623941404778
1658790124722599,-1.4953841458761872,1.8616006713969,1.1902037079423735
1658790124738598,-0.8239871824216607,1.8005645838102282,1.8616006713969
1658790124754598,-0.9460593575952316,2.655069810025225,3.3875028610666504
1658790124770598,-0.8850232700083325,2.9602502479590385,3.6316472114137923
1658790124786598,-0.03051804379333589,3.6316472114137923,4.791332875562603
1658790124802598,1.6784924086366573,4.058899824521177,6.9886320286868795
1658790124818597,2.166781109330941,4.303044174868319,9.124895094224485
1658790124834597,1.9226367589837992,5.096513313496644,10.833905546654478
1658790124850597,0.9460593575952316,4.547188525215461,12.726024261844714
1658790124866597,3.2654306858930795,4.180971999694748,15.228503852903032
1658790124882597,1.9226367589837992,5.0354772259097444,18.036163881895163
1658790124898596,-3.936827649347606,4.791332875562603,20.05035477225897
1658790124914596,-3.2043945983061803,4.547188525215461,22.552834363317288
1658790124930596,0.45777065690094787,4.669260700389032,25.848783093003703
1658790124946596,-0.213626306553806,5.523765926604028,28.717479209582507
1658790124962596,-5.828946364538069,5.828946364538069,30.73167009994654
1658790124978607,-7.2938124666209205,5.889982452124741,33.23414969100463
1658790124994607,-2.5940337224383256,6.744487678339738,36.83527885862509
1658790125010606,-1.8616006713969,7.965209430075447,39.21568627450961
1658790125026606,-9.369039444571627,9.613183794918768,40.253299763485074
1658790125042606,-10.162508583199724,11.01701380941472,41.90127412832817
1658790125058606,2.04470893415737,13.031204699778755,46.29587243457672
1658790125074606,8.51453421835663,14.80125123979542,51.36186770428003
1658790125090605,0.8239871824216607,15.716792553597315,55.939574273289054
1658790125106605,-6.378271152819025,14.496070801861606,62.409399557488086
1658790125122605,0.8850232700083325,14.068818188753994,70.58823529411802
1658790125138605,2.4719615472647547,15.472648203250174,77.48531319142467
1658790125154605,-12.848096437018285,15.289539940489703,82.3682001983675
1658790125170604,-18.036163881895163,14.92332341496899,86.45761806668224
1658790125186604,-11.566338597695903,15.411612115663274,92.25604638742652
1658790125202604,-9.918364232852582,17.42580300602731,98.11551079575793
1658790125218604,-15.594720378423744,18.219272144655406,99.82452124818792
1658790125234604,-13.824673838406852,19.867246509498727,101.28938735027077
1658790125250603,-5.95101853971164,20.782787823300396,103.60875867856885
1658790125266603,-0.3967345693140487,23.407339589532285,104.70740825513076
1658790125282603,-8.758678568703772,25.970855268177274,105.19569695582504
1658790125298614,-13.336385137712568,25.787747005416804,105.01258869306503
1658790125314614,-9.185931181811156,25.665674830243233,105.62294956893265
1658790125330614,-10.467689021133765,27.374685282673227,106.96574349584216
1658790125346614,-13.64156557564661,29.14473182269012,107.0878156710155
1658790125362613,-17.24269474326684,29.14473182269012,105.9891660944536
1658790125378613,-10.589761196307336,29.694056610971074,106.17227435721361
1658790125394613,-13.64156557564661,30.73167009994654,107.63714045929646
1658790125410613,-24.872205691615136,29.571984435797503,106.84367132066836
1658790125426612,-32.01342793926915,26.82536049439227,103.66979476615552
1658790125442612,-22.430762188143717,24.872205691615136,101.89974822613885
1658790125458612,-13.58052948805971,25.48256656748299,101.71663996337838
1658790125474612,-16.876478217746126,25.970855268177274,101.47249561303124
1658790125490612,-22.8580148012511,21.942473487449433,95.97924773022078
1658790125506611,-23.407339589532285,18.219272144655406,92.62226291294746
1658790125522611,-21.210040436408008,18.646524757763018,93.6598764019227
1658790125538611,-25.60463874265656,18.463416495002548,93.47676813916223
1658790125554611,-28.351262684061794,17.36476691844041,88.53284504463272
1658790125570611,-24.689097428854666,16.632333867398984,82.73441672388799
1658790125586610,-22.247653925383247,14.740215152208748,76.3866636148623
1658790125602610,-22.919050888838,14.618142977035177,73.88418402380421
1658790125618591,-23.83459220263967,20.05035477225897,74.31143663691182
1658790125634591,-16.693369954985883,23.89562829022657,72.7855344472423
1658790125650591,-4.669260700389032,23.590447852292527,69.06233310444804
1658790125666590,-6.439307240405924,21.759365224688963,64.72877088578662
1658790125682590,-13.946746013580423,18.95170519569683,60.33417257953761
1658790125698590,-20.599679560540153,20.904859998473967,61.37178606851285
1658790125714590,-15.716792553597315,23.346303501945386,63.263904783703765
1658790125730589,-3.4485389486533222,24.994277866788707,65.33913176165424
1658790125746589,5.401693751430457,24.07873655298681,64.301518272679
1658790125762589,-5.096513313496644,23.468375677118956,62.714579995422355
1658790125778589,-20.782787823300396,25.23842221713585,62.165255207140945
1658790125794589,-23.163195239185143,22.8580148012511,59.723811703669526
1658790125810588,-3.7537193865873633,20.721751735713724,61.00556954299191
1658790125826588,13.092240787365427,22.8580148012511,65.58327611200139
1658790125842588,10.101472495613052,26.764324406805372,69.24544136720851
1658790125858588,-5.2185854886702145,25.23842221713585,65.64431219958806
1658790125874588,-11.505302510109004,21.026932173647538,58.86930647745476
1658790125890587,-4.60822461280236,19.256885633630873,57.70962081330572
1658790125906587,-5.0354772259097444,23.224231326771815,64.72877088578662
1658790125922587,-14.129854276340893,25.970855268177274,67.53643091477852
1658790125938598,-19.9893186846723,24.567025253681095,65.76638437476186
1658790125954598,-15.350576028076603,24.994277866788707,64.85084306095996
1658790125970598,-2.166781109330941,25.29945830472252,65.0949874113071
1658790125986598,6.378271152819025,23.041123064011572,65.52224002441471
1658790126002597,-8.819714656290444,22.247653925383247,64.301518272679
1658790126018597,-28.412298771648693,20.23346303501944,59.96795605401667
1658790126034597,-30.914778362706784,18.76859693293659,58.01480125123953
1658790126050597,-19.745174334325156,17.54787518120088,59.1134508278019
1658790126066597,-18.463416495002548,15.533684290836845,58.075837338826204
1658790126082596,-27.374685282673227,14.312962539101136,52.46051728084194
1658790126098596,-38.97154192416269,11.810482948043045,44.159609369039345
1658790126114596,-44.76997024490743,7.904173342488775,34.2717631799801
1658790126130596,-41.41298542763411,3.4485389486533222,22.919050888838
1658790126146596,-40.13122758831173,0.03051804379333589,13.946746013580423
1658790126162595,-31.280994888227724,-2.288853284504512,11.20012207217519
1658790126178595,-10.467689021133765,-3.875791561760934,12.848096437018285
1658790126194595,13.824673838406852,-4.9134050507361735,13.885709925993751
1658790126210595,26.092927443350845,-6.500343327992596,9.55214770733187
1658790126226595,20.538643472953254,-6.927595941100208,0.9460593575952316
1658790126242594,10.528725108720437,-10.711833371480907,-9.369039444571627
1658790126258575,9.430075532158298,-15.167467765316132,-17.975127794308264
1658790126274575,11.444266422522333,-16.02197299153113,-25.543602655069662
1658790126290575,8.880750743877343,-16.510261692225413,-32.623788815137004
1658790126306574,7.598992904554734,-17.42580300602731,-37.50667582207984
1658790126322574,10.406652933546866,-17.54787518120088,-40.1922636758984
1658790126338574,13.275349050125897,-19.562066071564686,-43.36614023041125
1658790126354574,14.312962539101136,-20.477607385366582,-47.88281071183337
1658790126370574,17.181658655680167,-21.33211261158158,-53.25398641947049
1658790126386573,18.70756084534969,-25.42153047989609,-57.709620813305946
1658790126402573,21.45418478675515,-27.435721370260126,-61.615930418860216
1658790126418573,26.886396581978943,-28.16815442130155,-64.60669871061259
1658790126434573,28.107118333714652,-31.708247501335336,-67.65850308995186
1658790126450573,26.6422522316318,-33.051041428244616,-71.56481269550613
1658790126466572,27.61882963302037,-32.37964446478986,-74.61661707484541
1658790126482572,26.6422522316318,-33.17311360341819,-76.44769970244897
1658790126498572,24.689097428854666,-34.63797970550104,-79.80468451972229
1658790126514572,23.529411764705856,-37.62874799725341,-84.62653543907822
1658790126530572,26.092927443350845,-40.436408026245545,-89.08216983291368
1658790126546571,28.351262684061794,-42.26749065384911,-90.6691081101701
1658790126562571,27.008468757152514,-43.244068055237676,-91.58464942397177
1658790126578582,27.191577019912984,-42.57267109178315,-95.55199511711317
1658790126594582,30.243381399252257,-44.28168154421314,-101.53353170061814
1658790126610582,33.23414969100463,-45.807583733882666,-102.75425345235385
1658790126626582,36.469062333104375,-42.57267109178315,-99.76348516060125
1658790126642582,33.05104142824439,-40.80262455176626,-100.98420691233696
1658790126658581,28.16815442130155,-45.38033112077528,-103.85290302891599
1658790126674581,29.938200961318216,-46.29587243457695,-101.96078431372553
1658790126690581,32.562752727550105,-40.92469672693983,-95.00267032883198
1658790126706581,27.374685282673227,-39.093614099336264,-93.5988403143358
1658790126722581,22.61387045090396,-42.32852674143601,-97.81033035782411
1658790126738580,22.79697871366443,-41.779201953154825,-97.99343862058458
1658790126754580,17.60891126878755,-35.24834058136889,-95.67406729228674
1658790126770580,19.501029983978015,-32.44068055237676,-95.61303120469984
1658790126786580,24.872205691615136,-32.867933165484146,-92.3170824750132
1658790126802580,26.52018005645823,-32.37964446478986,-87.06797894254964
1658790126818579,22.552834363317288,-31.647211413748437,-87.80041199359107
1658790126834579,17.48683909361398,-31.036850537880355,-92.56122682536034
1658790126850579,17.120622568093268,-28.534370946822264,-90.85221637293034
1658790126866579,27.74090180819394,-22.430762188143717,-82.67338063630109
1658790126882578,30.853742275120112,-17.975127794308264,-79.92675669489586
1658790126898590,12.23773556115043,-17.914091706721592,-86.51865415426869
1658790126914590,-9.308003356984727,-19.256885633630873,-92.07293812466605
1658790126930589,-2.288853284504512,-16.571297779812312,-88.41077286945892
1658790126946589,24.689097428854666,-10.345616845960194,-77.54634927901111
1658790126962589,34.51590753032724,-5.828946364538069,-71.19859616998542
1658790126978589,13.946746013580423,-8.148317692835917,-73.70107576104374
1658790126994588,-8.270389868009488,-14.312962539101136,-76.99702449073015
1658790127010588,-1.2512397955290453,-16.998550392919697,-73.70107576104374
1658790127026588,17.24269474326684,-12.115663385976859,-65.40016784924092
1658790127042588,18.036163881895163,-9.002822919050914,-65.58327611200116
1658790127058588,1.3122758831159445,-11.20012207217519,-72.23620965896089
1658790127074587,-2.105745021744042,-12.4208438239109,-74.2504005493247
1658790127090587,13.76363775082018,-9.73525597009234,-67.84161135271233
1658790127106587,24.872205691615136,-4.669260700389032,-64.1794460975052
1658790127122587,19.439993896391115,-6.622415503166167,-66.80399786373687
1658790127138587,8.148317692835917,-8.270389868009488,-66.55985351338973
1658790127154586,4.60822461280236,-6.805523765926637,-62.34836346990164
1658790127170586,6.195162890058782,-3.3264667734797513,-60.63935301747165
1658790127186586,7.049668116273779,-3.4485389486533222,-62.0431830319676
1658790127202586,6.9886320286868795,-5.2185854886702145,-62.714579995422355
1658790127218567,10.833905546654478,-4.669260700389032,-60.151064316777365
1658790127234566,13.214312962538997,0.213626306553806,-55.75646601052881
1658790127250566,2.7161058976118966,3.6316472114137923,-53.376058594644064
1658790127266566,-0.2746623941404778,2.288853284504512,-53.98641947051192
1658790127282566,14.496070801861606,2.5940337224383256,-49.22560463874265
1658790127298565,15.777828641183987,7.11070420386045,-40.558480201419115
1658790127314565,1.1291676203554744,8.6366063935302,-35.06523231860842
1658790127330565,-5.0354772259097444,8.45349813076973,-27.496757457846797
1658790127346565,4.058899824521177,8.209353780422589,-16.815442130159454
1658790127362565,5.584802014190927,9.796292057679011,-5.706874189364498
1658790127378564,-4.730296787975931,9.73525597009234,3.0823224231326094
1658790127394564,-11.20012207217519,8.575570305943302,11.932555123216616
1658790127410564,-3.2654306858930795,8.148317692835917,21.942473487449433
1658790127426564,0.33569848172737693,10.345616845960194,31.586175326161538
1658790127442564,-11.749446860456146,11.810482948043045,39.94811932555103
1658790127458563,-17.48683909361398,11.749446860456146,46.723125047684334
1658790127474563,-11.993591210803288,12.115663385976859,56.24475471122287
1658790127490563,-10.711833371480907,12.481879911497572,63.87426565957139
1658790127506563,-20.416571297779683,12.970168612191856,69.30647745479519
1658790127522563,-22.919050888838,12.726024261844714,73.70107576104374
1658790127538574,-12.481879911497572,14.129854276340893,81.39162279697894
1658790127554574,-6.561379415579495,16.998550392919697,88.53284504463272
1658790127570573,-13.58052948805971,18.70756084534969,91.58464942397222
1658790127586573,-16.571297779812312,18.95170519569683,92.68329900053413
1658790127602573,-11.444266422522333,20.721751735713724,98.05447470817126
1658790127618573,-9.369039444571627,22.73594262607753,103.97497520408933
1658790127634573,-15.899900816357558,24.444953078507524,107.02677958342883
1658790127650572,-25.36049439230942,24.26184481574728,107.45403219653645
1658790127666572,-26.7032883192187,24.933241779201808,110.139620050355
1658790127682572,-18.463416495002548,26.092927443350845,114.29007400625642
1658790127698572,-14.92332341496899,29.877164873731545,117.34187838559546
1658790127714572,-20.05035477225897,31.95239185168225,117.158770122835
1658790127730571,-23.651483939879427,31.036850537880355,114.53421835660356
1658790127746571,-18.70756084534969,32.501716639963206,115.26665140764499
1658790127762571,-17.975127794308264,34.821087968261054,117.28084229800879
1658790127778571,-23.7125200274661,37.26253147173247,116.91462577248785
1658790127794571,-23.651483939879427,35.18730449378177,114.6562905317769
1658790127810570,-16.44922560463874,33.783474479285815,116.54840924696737
1658790127826570,-9.796292057679011,34.2717631799801,117.76913099870308
1658790127842570,-21.087968261234437,34.57694361791391,116.91462577248785
1658790127858551,-31.586175326161765,29.938200961318216,111.05516136415645
1658790127874550,-27.313649195086555,30.54856183718607,107.2098878461893
1658790127890550,-15.655756466010416,32.257572289616064,105.13466086823837
1658790127906550,-18.463416495002548,33.478294041351774,103.3646143282217
1658790127922550,-32.50171663996343,35.126268406195095,98.4206912336922
1658790127938550,-37.20149538414603,33.722438391698915,90.91325246051747
1658790127954549,-25.60463874265656,31.280994888227497,86.70176241702939
1658790127970549,-15.594720378423744,33.11207751583106,86.51865415426892
1658790127986549,-25.48256656748299,36.346990157930804,83.1616693369956
1658790128002549,-30.73167009994654,34.943160143434625,75.95941100175514
1658790128018549,-26.337071793697987,33.783474479285815,72.35828183413469
1658790128034548,-18.524452582589447,29.938200961318216,70.77134355687804
1658790128050548,-18.76859693293659,28.04608224612798,71.44274052033279
1658790128066548,-24.628061341267994,28.229190508888223,71.19859616998565
1658790128082548,-25.848783093003703,30.243381399252257,71.32066834515945
1658790128098548,-24.383916990920852,31.342030975814396,69.55062180514233
1658790128114547,-16.876478217746126,26.092927443350845,62.409399557488086
1658790128130547,-9.491111619745197,19.9282825970854,57.95376516365286
1658790128146547,-17.60891126878755,15.899900816357558,56.73304341191715
1658790128162547,-32.37964446478986,11.444266422522333,54.413672083619076
1658790128178558,-29.14473182269012,9.491111619745197,52.82673380636288
1658790128194558,-20.721751735713724,11.322194247348762,50.263218127717664
1658790128210558,-17.730983443961122,12.23773556115043,42.633707179369594
1658790128226557,-15.472648203250174,9.67421988250544,31.83031967650868
1658790128242557,-19.9893186846723,6.683451590753066,22.125581750209676
1658790128258557,-25.05531395437538,5.462729839017356,14.007782101167322
1658790128274557,-13.702601663233281,3.4485389486533222,10.89494163424115
1658790128290557,5.462729839017356,3.1433585107195086,11.871519035629717
1658790128306556,14.98435950255589,5.401693751430457,10.772869459067579
1658790128322556,6.012054627298312,3.570611123826893,3.6316472114137923
1658790128338556,-0.7629510948347615,-0.5798428320745188,-5.95101853971164
1658790128354556,3.936827649347606,-3.6316472114137923,-13.45845731288614
1658790128370556,8.6366063935302,-4.60822461280236,-18.76859693293659
1658790128386555,6.317235065232353,-6.622415503166167,-22.79697871366443
1658790128402555,7.904173342488775,-6.561379415579495,-25.05531395437538
1658790128418555,11.322194247348762,-6.805523765926637,-27.80193789578084
1658790128434555,14.312962539101136,-8.392462043183059,-32.623788815137004
1658790128450554,17.60891126878755,-11.20012207217519,-39.82604715037769
1658790128466554,19.256885633630873,-12.726024261844714,-45.01411459525457
1658790128482554,18.341344319828977,-14.557106889448278,-47.63866636148623
1658790128498565,19.01274128328373,-17.48683909361398,-51.48393987945383
1658790128514565,27.86297398336751,-19.1348134584573,-55.75646601052881
1658790128530565,33.96658274204606,-19.623102159151586,-58.99137865262833
1658790128546565,29.08369573510322,-22.003509575036105,-63.752193484397594
1658790128562564,22.308690012970146,-25.23842221713585,-69.00129701686114
1658790128578564,22.8580148012511,-27.86297398336751,-72.35828183413446
1658790128594564,28.04608224612798,-28.534370946822264,-73.64003967345684
1658790128610564,28.473334859235365,-29.08369573510322,-74.49454489967184
1658790128626564,23.651483939879427,-31.097886625467254,-77.85152971694515
1658790128642563,24.567025253681095,-34.94316014343485,-82.79545281147466
1658790128658563,31.097886625467254,-37.68978408484031,-84.93171587701227
1658790128674563,32.99000534065749,-35.55352101930271,-84.50446326390465
1658790128690563,34.08865491721963,-33.29518577859176,-85.66414892805369
1658790128706563,34.51590753032724,-33.60036621652557,-88.9600976577401
1658790128722562,35.98077363241009,-36.774242771038416,-93.5988403143358
1658790128738562,33.661402304112244,-39.398794537270305,-94.08712901503031
1658790128754562,29.755092698557974,-34.63797970550104,-89.69253070878153
1658790128770562,24.383916990920852,-28.839551384756078,-88.16662851911178
1658790128786562,25.05531395437538,-32.19653620202962,-92.98847943846795
1658790128802561,23.407339589532285,-37.750820172426984,-93.78194857709627
1658790128818542,21.27107652399468,-37.01838712138556,-88.5938811322194
1658790128834542,24.567025253681095,-31.586175326161765,-83.46684977492941
1658790128850542,27.130540932326085,-29.26680399786369,-85.84725719081393
1658790128866541,25.23842221713585,-33.66140230411247,-89.44838635843439
1658790128882541,26.092927443350845,-35.06523231860842,-85.29793240253298
1658790128898541,27.679865720607268,-27.61882963302037,-75.34905012588683
1658790128914541,32.01342793926892,-25.23842221713585,-75.5321583886473
1658790128930541,30.670634012359642,-27.191577019912984,-79.92675669489586
1658790128946540,18.036163881895163,-28.595407034408936,-82.06301976043324
1658790128962540,8.941786831464015,-28.04608224612798,-79.86572060730896
1658790128978540,13.519493400473038,-22.247653925383247,-73.3958953231097
1658790128994540,17.730983443961122,-18.95170519569683,-72.66346227206827
1658790129010540,19.317921721217544,-21.881437399862534,-77.1801327534904
1658790129026539,13.702601663233281,-22.73594262607753,-78.27878233005254
1658790129042539,10.284580758373295,-19.623102159151586,-75.10490577553969
1658790129058539,15.167467765316132,-15.411612115663274,-71.25963225757232
1658790129074539,15.838864728770886,-13.275349050125897,-71.19859616998542
1658790129090539,12.787060349431613,-15.594720378423744,-75.4711223010604
1658790129106538,7.843137254901876,-17.24269474326684,-75.04386968795302
1658790129122538,10.589761196307336,-14.98435950255589,-70.64927138170447
1658790129138549,14.557106889448278,-10.650797283894008,-65.46120393682759
1658790129154549,18.70756084534969,-7.782101167315204,-66.25467307545591
1658790129170549,20.35553521019301,-8.087281605249018,-69.06233310444804
1658790129186549,18.036163881895163,-9.918364232852582,-67.902647440299
1658790129202549,12.054627298390187,-7.537956816968062,-63.38597695887688
1658790129218548,6.012054627298312,-4.180971999694748,-60.028992141603794
1658790129234548,5.0354772259097444,-6.683451590753066,-60.94453345540546
1658790129250548,9.796292057679011,-7.721065079728305,-57.16029602502476
1658790129266548,7.598992904554734,-5.584802014190927,-49.897001602197406
1658790129282548,1.6784924086366573,-4.60822461280236,-49.04249637598241
1658790129298547,-2.4719615472647547,-5.096513313496644,-50.14114595254455
1658790129314547,3.570611123826893,-5.279621576256886,-45.807583733882666
1658790129330547,12.848096437018285,-3.3264667734797513,-41.1078049897003
1658790129346547,9.246967269398056,-1.4953841458761872,-39.398794537270305
1658790129362547,-1.739528496223329,-1.0681315327688026,-39.093614099336264
1658790129378546,-0.3967345693140487,0.7629510948347615,-36.28595407034413
1658790129394546,7.476920729381163,4.42511635004189,-30.182345311665358
1658790129410546,2.5940337224383256,5.645838101777599,-26.031891355763946
1658790129426546,-9.491111619745197,5.279621576256886,-23.651483939879427
1658790129442546,-5.523765926604028,3.3875028610666504,-18.58548867017612
1658790129458557,13.214312962538997,3.0823224231326094,-7.965209430075447
1658790129474557,16.02197299153113,4.669260700389032,1.6174563210497581
1658790129490556,-0.3967345693140487,4.974441138323073,6.134126802471883
1658790129506556,-7.537956816968062,4.852368963149502,13.64156557564661
1658790129522556,-0.5798428320745188,6.744487678339738,21.45418478675515
1658790129538556,-4.9134050507361735,9.796292057679011,28.412298771648693
1658790129554556,-22.79697871366443,10.223544670786623,33.3562218661782
1658790129570555,-30.60959792477297,10.162508583199724,38.23910887312104
1658790129586555,-22.73594262607753,10.406652933546866,45.99069199664291
1658790129602555,-14.740215152208748,11.932555123216616,54.352635996032404
1658790129618555,-17.181658655680167,11.383230334935433,59.35759517814904
1658790129634554,-21.14900434882111,10.955977721828049,65.64431219958806
1658790129650554,-18.402380407415876,11.383230334935433,72.54139009689516
1658790129666554,-17.059586480506596,11.566338597695903,77.54634927901134
1658790129682554,-22.980086976424673,13.76363775082018,79.74364843213561
1658790129698554,-28.96162355992965,15.716792553597315,79.80468451972229
1658790129714553,-24.26184481574728,18.463416495002548,81.75783932249942
1658790129730553,-13.58052948805971,21.45418478675515,87.06797894254987
1658790129746553,-11.322194247348762,24.628061341267994,91.88982986190604
1658790129762553,-20.721751735713724,25.116350041962278,94.08712901503031
1658790129778534,-24.994277866788707,24.567025253681095,95.61303120469984
1658790129794533,-18.463416495002548,24.383916990920852,98.66483558403934
1658790129810533,-15.411612115663274,24.567025253681095,101.59456778820504
1658790129826533,-23.163195239185143,24.26184481574728,102.32700083924647
1658790129842533,-31.830319676508907,26.947432669565842,102.87632562752742
1658790129858533,-30.975814450293683,29.08369573510322,102.57114518959361
1658790129874532,-24.505989166094423,30.792706187533213,102.26596475165934
1658790129890532,-22.186617837796575,31.586175326161538,102.51010910200648
1658790129906532,-24.689097428854666,27.130540932326085,99.27519645990697
1658790129922532,-27.92401007095441,27.130540932326085,95.42992294193937
1658790129938532,-30.975814450293683,29.938200961318216,94.39230945296413
1658790129954531,-25.726710917830133,29.999237048905115,94.20920119020366
1658790129970531,-16.388189517051842,29.51094834821083,93.04951552605507
1658790129986531,-13.58052948805971,30.121309224078686,89.32631418326082
1658790130002531,-20.843823910887295,28.473334859235365,84.01617456321082
1658790130018530,-30.182345311665358,24.567025253681095,80.17090104524323
1658790130034530,-25.36049439230942,23.95666437781324,81.08644235904512
1658790130050530,-11.01701380941472,28.595407034408936,87.19005111772367
1658790130066530,-4.60822461280236,33.17311360341796,87.43419546807081
1658790130082530,-15.472648203250174,27.86297398336751,74.86076142519278
1658790130098541,-29.20576791027679,18.646524757763018,60.70038910505809
1658790130114541,-36.04180971999699,17.36476691844041,58.9913786526281
1658790130130540,-26.886396581978943,25.42153047989609,66.010528725109
1658790130146540,-9.124895094224485,33.722438391698915,70.89341573205184
1658790130162540,-5.462729839017356,36.83527885862509,67.17021438925804
1658790130178540,-10.223544670786623,29.51094834821083,55.817502098115256
1658790130194540,-20.660715648126825,21.881437399862534,50.629434653238604
1658790130210539,-34.271763179980326,22.125581750209676,51.911192492560986
1658790130226539,-39.76501106279102,25.665674830243233,54.779888609140016
1658790130242539,-32.44068055237676,25.116350041962278,55.69542992294191
1658790130258539,-17.853055619134693,24.13977264057371,52.64362554360241
1658790130274539,-14.373998626688035,23.346303501945386,49.34767681391622
1658790130290538,-18.219272144655406,22.430762188143717,47.39452201113886
1658790130306538,-17.120622568093268,21.51522087434182,45.92965590905601
1658790130322538,-7.782101167315204,20.416571297779683,43.79339284351863
1658790130338538,5.706874189364498,21.637293049515392,44.403753719386486
1658790130354538,1.4953841458761872,24.383916990920852,45.68551155870887
1658790130370537,-9.002822919050914,23.346303501945386,41.8402380407415
1658790130386537,-18.158236057068734,21.57625696192872,37.44563973449294
1658790130402537,-20.294499122606112,20.660715648126825,34.69901579308748
1658790130418518,-9.246967269398056,23.102159151598244,37.567711909666514
1658790130434517,-1.6784924086366573,26.153963530937517,41.412985427633885
1658790130450517,-5.096513313496644,22.8580148012511,39.88708323796436
1658790130466517,-14.373998626688035,16.876478217746126,36.10284580758366
1658790130482517,-20.538643472953254,12.359807736324,33.11207751583106
1658790130498517,-18.341344319828977,9.918364232852582,32.440680552376534
1658790130514516,-12.4208438239109,10.89494163424115,32.62378881513678
1658790130530516,-11.749446860456146,11.444266422522333,30.853742275120112
1658790130546516,-14.068818188753994,11.322194247348762,26.886396581978943
1658790130562516,-17.60891126878755,9.85732814526591,20.599679560540153
1658790130578516,-15.411612115663274,6.500343327992596,15.411612115663274
1658790130594515,-16.937514305333025,1.8616006713969,10.650797283894008
1658790130610515,-22.125581750209676,-0.6408789196611906,5.401693751430457
1658790130626515,-22.125581750209676,-0.09155413138023505,-0.15259021896690683
1658790130642515,-9.85732814526591,1.0681315327688026,-5.828946364538069
1658790130658515,6.378271152819025,1.4343480582895154,-10.589761196307336
1658790130674514,13.64156557564661,-0.09155413138023505,-13.946746013580423
1658790130690514,13.214312962538997,-2.9602502479590385,-17.60891126878755
1658790130706514,19.745174334325156,-3.5095750362402214,-20.538643472953254
1658790130722514,27.313649195086555,-4.42511635004189,-22.67490653849086
1658790130738556,24.567025253681095,-8.45349813076973,-26.947432669565842
1658790130754555,17.914091706721592,-12.481879911497572,-31.586175326161765
1658790130770555,15.228503852903032,-13.031204699778755,-35.55352101930271
1658790130786555,17.60891126878755,-14.312962539101136,-39.64293888761745
1658790130802555,25.970855268177274,-16.08300907911803,-42.87785152971696
1658790130818555,32.86793316548392,-17.181658655680167,-43.91546501869243
1658790130834554,31.219958800640825,-17.914091706721592,-46.05172808422981
1658790130850554,31.342030975814396,-20.11139085984587,-49.16456855115598
1658790130866554,32.562752727550105,-24.26184481574728,-52.94880598153668
1658790130882554,26.947432669565842,-29.633020523384403,-57.465476462958804
1658790130898553,23.590447852292527,-34.149691004806755,-60.63935301747165
1658790130914553,21.942473487449433,-34.88212405584818,-62.714579995422355
1658790130930553,24.872205691615136,-34.57694361791414,-65.0339513237202
1658790130946553,28.412298771648693,-37.62874799725341,-68.39093614099329
1658790130962553,27.86297398336751,-43.06095979247743,-72.96864271000231
1658790130978552,21.33211261158158,-46.11276417181671,-76.14251926451516
1658790130994552,17.60891126878755,-47.028305485618375,-80.35400930800324
1658790131010552,19.684138246738257,-46.29587243457695,-85.05378805218584
1658790131026552,25.17738612954895,-46.66208896009766,-89.87563897154178
1658790131042552,28.595407034408936,-45.868619821469565,-91.82879377431891
1658790131058563,31.89135576409535,-44.037537193866,-92.92744335088105
1658790131074563,30.36545357442583,-43.427176317998146,-94.33127336537746
1658790131090562,32.07446402685582,-44.8310063324941,-96.6506446936753
1658790131106562,33.11207751583106,-43.67132066834529,-96.89478904402245
1658790131122562,28.900587472342977,-42.63370717936982,-97.87136644541101
1658790131138562,20.294499122606112,-43.9765011062791,-100.61799038681625
1658790131154562,16.02197299153113,-47.45555809872599,-102.143892576486
1658790131170561,22.308690012970146,-43.61028458075839,-96.89478904402245
1658790131186561,28.290226596475122,-35.91973754482342,-90.24185549706249
1658790131202561,22.61387045090396,-36.34699015793103,-91.64568551155867
1658790131218561,16.876478217746126,-42.084382391088866,-98.11551079575815
1658790131234561,18.58548867017612,-40.680552376592686,-95.97924773022055
1658790131250560,23.041123064011572,-27.374685282673227,-87.80041199359107
1658790131266560,30.4875257495994,-22.369726100556818,-88.83802548256654
1658790131282560,36.469062333104375,-24.322880903333953,-93.90402075226984
1658790131298560,27.191577019912984,-28.473334859235365,-91.95086594949248
1658790131314560,18.219272144655406,-23.773556115052997,-84.07721065079727
1658790131330559,20.599679560540153,-18.463416495002548,-79.92675669489586
1658790131346559,24.26184481574728,-19.01274128328373,-81.63576714732585
1658790131362559,19.195849546043974,-19.80621042191183,-80.41504539559014
1658790131378540,12.603952086671143,-19.1348134584573,-77.42427710383754
1658790131394539,13.76363775082018,-19.439993896391115,-74.37247272449827
1658790131410539,14.129854276340893,-16.08300907911803,-70.09994659342328
1658790131426539,5.889982452124741,-15.533684290836845,-69.97787441824971
1658790131442539,9.796292057679011,-18.82963302052326,-75.41008621347373
1658790131458539,14.92332341496899,-20.294499122606112,-74.98283360036612
1658790131474538,15.655756466010416,-18.402380407415876,-68.69611657892733
1658790131490538,16.754406042572555,-12.542915999084471,-63.38597695887688
1658790131506538,21.026932173647538,-13.45845731288614,-66.49881742580305
1658790131522538,17.66994735637445,-16.571297779812312,-68.45197222858019
1658790131538538,12.848096437018285,-17.975127794308264,-68.26886396581972
1658790131554537,11.932555123216616,-15.899900816357558,-66.07156481269544
1658790131570537,7.660028992141633,-11.993591210803288,-63.996337834744736
1658790131586537,-0.5188067444876197,-11.07804989700162,-65.0339513237202
1658790131602537,2.655069810025225,-12.970168612191856,-65.0339513237202
1658790131618537,10.89494163424115,-11.444266422522333,-60.63935301747165
1658790131634536,7.660028992141633,-10.345616845960194,-59.35759517814904
1658790131650536,1.3733119707026162,-12.603952086671143,-62.531471732661885
1658790131666536,6.805523765926637,-12.115663385976859,-62.409399557488314
1658790131682536,16.632333867398984,-7.537956816968062,-57.709620813305946
1658790131698547,14.557106889448278,-2.288853284504512,-53.13191424429692
1658790131714547,3.0823224231326094,-1.4953841458761872,-53.620202944991206
1658790131730547,1.6174563210497581,-2.227817196917613,-54.5357442587931
1658790131746546,5.401693751430457,1.5564202334630863,-49.04249637598241
1658790131762546,-1.2512397955290453,5.95101853971164,-41.962310215915295
1658790131778546,-7.4158846417944915,6.317235065232353,-36.34699015793103
1658790131794546,1.0070954451819034,5.828946364538069,-29.08369573510322
1658790131810546,11.07804989700162,6.073090714885211,-19.073777370870403
1658790131826545,9.063859006637585,7.4158846417944915,-12.176699473563758
1658790131842545,-1.1291676203554744,8.880750743877343,-5.401693751430457
1658790131858545,-0.15259021896690683,10.772869459067579,2.8992141603723667
1658790131874545,5.95101853971164,12.359807736324,11.322194247348762
1658790131890545,-3.5095750362402214,13.031204699778755,19.562066071564686
1658790131906544,-20.782787823300396,12.603952086671143,26.886396581978943
1658790131922544,-22.49179827573039,13.336385137712568,35.73662928206295
1658790131938544,-8.209353780422589,12.787060349431613,47.33348592355219
1658790131954544,-3.4485389486533222,13.275349050125897,57.404440375371905
1658790131970543,-15.411612115663274,11.01701380941472,63.99633783474519
1658790131986543,-20.23346303501944,8.575570305943302,70.16098268101041
1658790132002543,-14.618142977035177,10.955977721828049,78.58396276798658
1658790132018524,-15.838864728770886,12.298771648737329,86.0914015411613
1658790132034524,-24.750133516441565,11.993591210803288,89.38735027084795
1658790132050523,-27.374685282673227,12.542915999084471,93.04951552605507
1658790132066523,-23.773556115052997,15.045395590142562,98.60379949645221
1658790132082523,-23.7125200274661,16.1440451667047,102.32700083924647
1658790132098523,-29.816128786144645,14.435034714274707,103.66979476615552
1658790132114523,-26.7032883192187,13.702601663233281,105.8670939192798
1658790132130522,-17.059586480506596,16.754406042572555,110.56687266346216
1658790132146522,-14.557106889448278,20.11139085984587,111.97070267795834
1658790132162522,-21.69832913710229,20.477607385366582,111.05516136415645
1658790132178522,-23.468375677118956,19.439993896391115,110.20065613794168
1658790132194522,-17.42580300602731,20.660715648126825,111.48241397726406
1658790132210521,-19.317921721217544,24.322880903333953,111.36034180209072
1658790132226521,-28.16815442130155,24.994277866788707,106.6605630579079
1658790132242521,-29.816128786144645,23.83459220263967,105.62294956893265
1658790132258521,-22.064545662623004,23.163195239185143,107.75921263447026
1658790132274520,-21.026932173647538,24.628061341267994,108.61371786068503
1658790132290520,-29.20576791027679,22.79697871366443,103.97497520408933
1658790132306520,-31.219958800640825,20.904859998473967,101.41145952544457
1658790132322520,-23.651483939879427,22.186617837796575,103.18150606546124
1658790132338531,-20.477607385366582,24.628061341267994,104.1580834668498
1658790132354531,-25.48256656748299,22.73594262607753,97.44411383230363
1658790132370531,-33.29518577859176,18.646524757763018,88.41077286945938
1658790132386531,-32.13550011444272,18.82963302052326,88.04455634393844
1658790132402530,-21.45418478675515,24.750133516441565,93.41573205157556
1658790132418530,-7.2938124666209205,30.975814450293683,94.4533455405508
1658790132434530,-11.444266422522333,27.252613107499656,84.50446326390511
1658790132450530,-20.17242694743254,17.853055619134693,73.02967879758944
1658790132466529,-29.51094834821083,16.32715342946517,72.29724574654801
1658790132482529,-29.32784008545036,22.8580148012511,75.5931944762342
1658790132498529,-21.27107652399468,30.30441748683893,78.82810711833372
1658790132514529,-11.20012207217519,27.80193789578084,74.43350881208517
1658790132530529,-12.4208438239109,21.820401312275862,67.84161135271233
1658790132546528,-28.351262684061794,18.219272144655406,63.63012130922425
1658790132562528,-32.56275272755033,20.23346303501944,61.86007476920713
1658790132578528,-16.571297779812312,21.45418478675515,60.761425192644765
1658790132594528,10.833905546654478,21.881437399862534,59.906919966429996
1658790132610528,15.533684290836845,22.308690012970146,60.090028229190466
1658790132626527,-8.941786831464015,21.087968261234437,57.221332112611435
1658790132642527,-26.153963530937517,22.73594262607753,50.99565117875909
1658790132658538,-19.9893186846723,24.13977264057371,45.441367208361726
1658790132674538,-3.692683299000464,22.67490653849086,44.403753719386486
1658790132690538,-8.941786831464015,24.505989166094423,46.90623331044458
1658790132706538,-26.092927443350845,27.191577019912984,46.662088960097435
1658790132722538,-36.957351033798886,22.369726100556818,44.281681544212915
1658790132738537,-31.158922713053926,15.777828641183987,39.52086671244365
1658790132754537,-23.407339589532285,13.64156557564661,36.469062333104375
1658790132770537,-27.313649195086555,11.383230334935433,34.63797970550081
1658790132786537,-29.14473182269012,7.660028992141633,32.31860837720296
1658790132802537,-17.120622568093268,7.782101167315204,30.121309224078686
1658790132818536,0.7019150072480898,9.491111619745197,25.970855268177274
1658790132834536,8.51453421835663,8.148317692835917,19.1348134584573
1658790132850536,3.2043945983061803,3.0212863355459376,10.772869459067579
1658790132866536,-3.6316472114137923,-1.2512397955290453,3.2654306858930795
1658790132882536,-4.303044174868319,-2.532997634851654,-4.119935912108076
1658790132898535,1.6174563210497581,-1.8005645838102282,-11.01701380941472
1658790132914535,4.60822461280236,-2.227817196917613,-16.998550392919697
1658790132930535,4.486152437628789,-3.4485389486533222,-23.041123064011572
1658790132946535,4.974441138323073,-4.791332875562603,-28.16815442130155
1658790132962535,9.002822919050914,-7.17174029144735,-32.6848249027239
1658790132978515,15.716792553597315,-9.796292057679011,-37.44563973449317
1658790132994515,19.867246509498727,-14.068818188753994,-41.47402151522101
1658790133010515,17.303730830853738,-17.975127794308264,-44.647898069733856
1658790133026515,16.44922560463874,-20.35553521019301,-49.469748989089794
1658790133042514,19.80621042191183,-22.308690012970146,-55.20714122224763
1658790133058514,22.919050888838,-23.224231326771815,-60.028992141603794
1658790133074514,21.69832913710229,-24.811169604028237,-64.1794460975052
1658790133090514,26.82536049439227,-24.994277866788707,-67.59746700236519
1658790133106514,38.0560006103608,-24.26184481574728,-69.73373006790257
1658790133122513,43.61028458075816,-28.595407034408936,-71.62584878309303
1658790133138513,40.253299763485074,-34.027618829633184,-75.16594186312659
1658790133154513,34.943160143434625,-37.01838712138556,-78.82810711833372
1658790133170513,28.717479209582507,-39.093614099336264,-82.49027237354085
1658790133186513,22.369726100556818,-41.29091325246054,-87.49523155565726
1658790133202512,19.623102159151586,-41.1078049897003,-92.3170824750132
1658790133218512,21.820401312275862,-37.38460364690627,-94.08712901503031
1658790133234512,27.313649195086555,-35.98077363241032,-95.18577859159245
1658790133250512,31.158922713053926,-39.398794537270305,-97.19996948195626
1658790133266512,27.191577019912984,-41.35194934004744,-98.78690775921268
1658790133282511,20.843823910887295,-34.94316014343485,-100.19073777370886
1658790133298523,25.848783093003703,-32.806897077897474,-104.40222781719694
1658790133314522,40.43640802624532,-36.591134508278174,-105.19569695582527
1658790133330522,39.82604715037746,-35.98077363241032,-96.28442816815459
1658790133346522,27.008468757152514,-30.30441748683893,-90.91325246051724
1658790133362522,25.909819180590375,-33.29518577859176,-96.28442816815459
1658790133378522,25.36049439230942,-39.03257801174959,-100.3738460364691
1658790133394521,22.61387045090396,-35.370412756542464,-92.6832990005339
1658790133410521,15.899900816357558,-22.919050888838,-82.79545281147466
1658790133426521,14.007782101167322,-23.224231326771815,-88.47180895704582
1658790133442521,5.3406576638437855,-29.755092698557974,-93.5378042267489
1658790133458521,2.655069810025225,-32.928969253071045,-90.73014419775677
1658790133474520,12.176699473563758,-25.116350041962278,-80.53711757076371
1658790133490520,18.341344319828977,-19.378957808804444,-75.89837491416802
1658790133506520,11.261158159761862,-20.843823910887295,-80.23193713282967
1658790133522520,10.162508583199724,-27.313649195086555,-86.70176241702893
1658790133538519,12.726024261844714,-25.05531395437538,-82.79545281147466
1658790133554519,21.39314869916825,-16.2050812542916,-77.05806057831683
1658790133570519,19.684138246738257,-13.397421225299468,-75.65423056382087
1658790133586519,9.918364232852582,-16.876478217746126,-80.72022583352395
1658790133602519,8.941786831464015,-19.623102159151586,-81.94094758525966
1658790133618530,15.411612115663274,-11.444266422522333,-73.76211184863041
1658790133634530,16.1440451667047,-5.706874189364498,-69.6726939803159
1658790133650529,6.561379415579495,-8.087281605249018,-72.90760662241541
1658790133666529,-3.0212863355459376,-13.031204699778755,-74.55558098725874
1658790133682529,1.2512397955290453,-14.129854276340893,-70.34409094377042
1658790133698529,14.373998626688035,-8.45349813076973,-64.54566262302592
1658790133714529,19.80621042191183,-5.645838101777599,-64.1184100099183
1658790133730528,20.965896086060866,-8.880750743877343,-67.17021438925758
1658790133746528,22.125581750209676,-10.406652933546866,-67.59746700236519
1658790133762528,22.247653925383247,-7.4158846417944915,-63.14183260852974
1658790133778528,19.9893186846723,-5.462729839017356,-59.1134508278019
1658790133794528,18.341344319828977,-5.889982452124741,-59.845883878843324
1658790133810527,12.909132524605184,-6.805523765926637,-58.747234302281186
1658790133826527,8.270389868009488,-8.819714656290444,-54.718852521553345
1658790133842527,5.157549401083315,-8.209353780422589,-50.7515068284124
1658790133858527,-1.5564202334630863,-6.9886320286868795,-47.88281071183337
1658790133874527,5.706874189364498,-8.758678568703772,-48.49317158770123
1658790133890526,16.510261692225413,-10.101472495613052,-45.807583733882666
1658790133906526,12.664988174258042,-8.33142595559616,-43.427176317998146
1658790133922526,0.5798428320745188,-4.730296787975931,-44.09857328145267
1658790133938507,-0.45777065690094787,-1.4343480582895154,-45.990691996643136
1658790133954506,9.55214770733187,1.8005645838102282,-44.037537193866
1658790133970506,10.955977721828049,2.9602502479590385,-38.23910887312127
1658790133986506,-0.5188067444876197,4.60822461280236,-34.21072709239343
1658790134002506,-14.129854276340893,2.7771419851987957,-29.08369573510322
1658790134018506,-8.270389868009488,1.0070954451819034,-19.9893186846723
1658790134034505,2.166781109330941,2.8381780727854675,-6.500343327992596
1658790134050505,-6.805523765926637,5.2185854886702145,3.6316472114137923
1658790134066505,-21.33211261158158,4.852368963149502,6.9886320286868795
1658790134082505,-18.219272144655406,4.119935912108076,12.176699473563758
1658790134098505,-7.843137254901876,7.232776379034021,22.552834363317288
1658790134114504,-9.85732814526591,10.833905546654478,30.670634012359642
1658790134130504,-17.42580300602731,11.20012207217519,37.628747997253186
1658790134146504,-18.82963302052326,10.589761196307336,43.79339284351863
1658790134162504,-15.289539940489703,11.07804989700162,52.88776989394955
1658790134178504,-17.54787518120088,11.383230334935433,62.409399557488086
1658790134194503,-24.07873655298681,11.566338597695903,69.30647745479519
1658790134210503,-26.39810788128466,10.406652933546866,75.53215838864753
1658790134226503,-20.477607385366582,11.07804989700162,83.34477759975607
1658790134242503,-16.26611734187827,14.862287327382319,91.58464942397222
1658790134258514,-22.8580148012511,16.571297779812312,94.14816510261699
1658790134274514,-25.970855268177274,16.998550392919697,93.17158770122842
1658790134290514,-16.998550392919697,18.82963302052326,96.10131990539412
1658790134306513,-10.284580758373295,23.529411764705856,101.10627908751076
1658790134322513,-17.24269474326684,28.229190508888223,103.97497520408933
1658790134338513,-23.346303501945386,26.459143968871558,102.63218127718028
1658790134354513,-20.782787823300396,26.52018005645823,103.91393911650266
1658790134370513,-16.693369954985883,26.947432669565842,106.84367132066836
1658790134386512,-17.60891126878755,27.74090180819394,108.7968261234455
1658790134402512,-22.980086976424673,28.595407034408936,108.67475394827215
1658790134418512,-23.7125200274661,28.290226596475122,109.04097047379264
1658790134434512,-17.181658655680167,29.32784008545036,111.7265583276112
1658790134450512,-11.322194247348762,29.633020523384403,112.03173876554501
1658790134466511,-17.36476691844041,31.097886625467254,110.50583657587549
1658790134482511,-25.116350041962278,30.060273136491787,106.47745479514788
1658790134498511,-20.660715648126825,30.54856183718607,105.50087739375931
1658790134514511,-13.946746013580423,31.586175326161538,107.39299610894932
1658790134530511,-17.730983443961122,31.95239185168225,108.61371786068503
1658790134546510,-32.19653620202962,31.219958800640825,103.97497520408933
1658790134562510,-37.933928435187454,26.39810788128466,95.97924773022078
1658790134578491,-28.595407034408936,26.153963530937517,94.4533455405508
1658790134594491,-17.059586480506596,28.351262684061794,96.89478904402222
1658790134610490,-17.914091706721592,27.74090180819394,95.7961394674603
1658790134626490,-33.66140230411247,25.970855268177274,88.77698939497986
1658790134642490,-36.957351033798886,23.407339589532285,81.26955062180514
1658790134658490,-23.163195239185143,26.82536049439227,82.18509193560703
1658790134674490,-8.941786831464015,31.158922713053926,84.01617456321082
1658790134690489,-8.270389868009488,31.036850537880355,79.316395819028
1658790134706489,-19.80621042191183,27.008468757152514,73.27382314793658
1658790134722489,-31.647211413748437,22.003509575036105,70.28305485618375
1658790134738489,-32.806897077897474,21.820401312275862,73.4569314106966
1658790134754489,-29.694056610971074,28.900587472342977,79.56054016937514
1658790134770488,-23.163195239185143,31.83031967650868,76.87495231555658
1658790134786488,-21.57625696192872,27.069504844739413,65.52224002441471
1658790134802488,-26.214999618524416,17.975127794308264,55.69542992294191
1658790134818488,-26.337071793697987,13.64156557564661,57.64858472571905
1658790134834488,-11.01701380941472,18.280308232242305,66.62088960097662
1658790134850487,4.242008087281647,25.970855268177274,74.25040054932515
1658790134866487,0.09155413138023505,26.337071793697987,70.22201876859708
1658790134882487,-25.42153047989609,16.693369954985883,54.413672083619076
1658790134898498,-42.084382391088866,6.378271152819025,41.16884107728674
1658790134914498,-42.51163500419625,5.523765926604028,39.64293888761722
1658790134930498,-34.3938353551539,10.650797283894008,44.220645456626016
1658790134946498,-23.773556115052997,15.838864728770886,47.45555809872576
1658790134962497,-18.76859693293659,15.655756466010416,45.441367208361726
1658790134978497,-23.83459220263967,10.833905546654478,39.154650186922936
1658790134994497,-28.900587472342977,7.17174029144735,32.92896925307082
1658790135010497,-33.72243839169914,6.073090714885211,25.970855268177274
1658790135026497,-32.50171663996343,5.76791027695117,16.815442130159454
1658790135042496,-27.130540932326085,5.3406576638437855,9.55214770733187
1658790135058496,-21.637293049515392,5.279621576256886,4.364080262455218
1658790135074496,-13.214312962538997,4.364080262455218,-1.6174563210497581
1658790135090496,5.76791027695117,3.5095750362402214,-6.683451590753066
1658790135106495,20.05035477225897,2.5940337224383256,-12.848096437018285
1658790135122495,22.064545662623004,-1.3122758831159445,-19.9893186846723
1658790135138495,21.026932173647538,-5.95101853971164,-27.80193789578084
1658790135154495,23.773556115052997,-9.73525597009234,-34.82108796826128
1658790135170495,28.412298771648693,-13.275349050125897,-39.15465018692316
1658790135186494,27.92401007095441,-14.496070801861606,-41.657129777981254
1658790135202494,19.867246509498727,-16.632333867398984,-44.8310063324941
1658790135218505,12.848096437018285,-21.39314869916825,-49.713893339436936
1658790135234505,14.190890363927565,-23.83459220263967,-54.779888609140244
1658790135250505,20.660715648126825,-22.79697871366443,-58.503089951934044
1658790135266505,27.86297398336751,-22.125581750209676,-63.08079652094307
1658790135282505,32.07446402685582,-24.933241779201808,-67.10917830167091
1658790135298504,28.351262684061794,-25.543602655069662,-70.95445181963828
1658790135314504,27.374685282673227,-26.82536049439227,-76.26459143968873
1658790135330504,33.783474479285815,-27.496757457846797,-78.88914320592039
1658790135346504,34.14969100480653,-28.290226596475122,-79.62157625696182
1658790135362504,26.52018005645823,-30.914778362706784,-82.61234454871442
1658790135378503,24.444953078507524,-31.769283588922008,-86.39658197909512
1658790135394503,26.7032883192187,-28.839551384756078,-89.02113374532678
1658790135410503,31.83031967650868,-29.022659647516548,-91.64568551155867
1658790135426503,32.80689707789725,-33.11207751583129,-92.01190203707938
1658790135442503,26.153963530937517,-35.91973754482342,-89.69253070878153
1658790135458502,20.599679560540153,-35.431448844129136,-88.41077286945892
1658790135474502,25.909819180590375,-35.187304493781994,-89.38735027084749
1658790135490502,33.29518577859153,-37.872892347600555,-90.05874723430225
1658790135506502,29.51094834821083,-40.1922636758984,-88.65491721980607
1658790135522502,22.064545662623004,-36.16388189517056,-86.57969024185536
1658790135538482,14.679179064621849,-31.219958800640825,-88.65491721980607
1658790135554482,16.388189517051842,-29.08369573510322,-95.3688868543527
1658790135570482,24.872205691615136,-29.38887617303726,-97.5051499198903
1658790135586482,26.153963530937517,-24.750133516441565,-91.76775768673224
1658790135602481,22.919050888838,-20.660715648126825,-89.7535667963682
1658790135618481,24.994277866788707,-22.186617837796575,-93.11055161364152
1658790135634481,24.689097428854666,-23.95666437781324,-91.95086594949248
1658790135650481,26.153963530937517,-21.27107652399468,-85.78622110322726
1658790135666481,32.31860837720296,-18.097199969481835,-84.68757152666512
1658790135682480,25.970855268177274,-17.54787518120088,-87.06797894254964
1658790135698480,18.95170519569683,-21.881437399862534,-88.04455634393821
1658790135714480,21.087968261234437,-21.33211261158158,-82.49027237354085
1658790135730480,22.67490653849086,-13.702601663233281,-74.73868925001898
1658790135746480,23.102159151598244,-14.740215152208748,-74.2504005493247
1658790135762479,20.477607385366582,-20.23346303501944,-77.72945754177158
1658790135778479,13.214312962538997,-24.01770046540014,-76.50873579003587
1658790135794479,13.275349050125897,-20.599679560540153,-69.611657892729
1658790135810479,12.4208438239109,-13.214312962538997,-65.09498741130687
1658790135826479,14.557106889448278,-14.862287327382319,-72.17517357137399
1658790135842478,21.026932173647538,-19.378957808804444,-77.11909666590373
1658790135858490,16.754406042572555,-18.402380407415876,-74.49454489967184
1658790135874489,10.89494163424115,-11.688410772869474,-70.95445181963828
1658790135890489,12.787060349431613,-8.148317692835917,-71.99206530861375
1658790135906489,14.862287327382319,-6.805523765926637,-74.12832837415112
1658790135922489,18.82963302052326,-7.843137254901876,-73.02967879758899
1658790135938489,18.463416495002548,-8.392462043183059,-66.98710612649734
1658790135954488,13.336385137712568,-5.706874189364498,-63.01976043335617
1658790135970488,4.180971999694748,-4.791332875562603,-61.73800259403379
1658790135986488,-2.166781109330941,-6.195162890058782,-62.1042191195545
1658790136002488,-1.739528496223329,-3.875791561760934,-59.54070344090951
1658790136018488,-1.2512397955290453,3.3875028610666504,-54.718852521553345
1658790136034487,-7.537956816968062,8.209353780422589,-53.31502250705739
1658790136050487,-10.711833371480907,8.392462043183059,-54.41367208361953
1658790136066487,-0.3967345693140487,4.852368963149502,-50.38529030289169
1658790136082487,1.9226367589837992,5.584802014190927,-43.67132066834529
1658790136098487,-4.303044174868319,6.500343327992596,-40.80262455176626
1658790136114486,-7.11070420386045,8.33142595559616,-36.22491798275746
1658790136130486,0.5188067444876197,7.843137254901876,-30.853742275120112
1658790136146486,12.115663385976859,7.598992904554734,-21.45418478675515
1658790136162486,7.049668116273779,8.697642481116873,-9.918364232852582
1658790136178466,-6.683451590753066,8.148317692835917,-4.119935912108076
1658790136194466,-16.693369954985883,8.6366063935302,0.15259021896690683
1658790136210466,-12.970168612191856,10.284580758373295,5.523765926604028
1658790136226466,-7.843137254901876,13.76363775082018,14.190890363927565
1658790136242466,-17.120622568093268,15.716792553597315,20.782787823300396
1658790136258465,-22.8580148012511,13.824673838406852,24.383916990920852
1658790136274465,-16.08300907911803,11.261158159761862,29.999237048905115
1658790136290465,-6.8665598535133086,11.383230334935433,37.2014953841458
1658790136306465,-9.491111619745197,12.054627298390187,47.760738536659574
1658790136322465,-12.787060349431613,11.20012207217519,55.573357747768114
1658790136338464,-14.740215152208748,10.955977721828049,63.080796520943295
1658790136354464,-14.862287327382319,9.979400320439481,68.63508049134089
1658790136370464,-18.70756084534969,11.07804989700162,74.49454489967229
1658790136386464,-24.567025253681095,11.810482948043045,81.33058670939226
1658790136402464,-25.909819180590375,11.932555123216616,89.57045853360796
1658790136418463,-23.407339589532285,11.993591210803288,98.11551079575793
1658790136434463,-19.378957808804444,9.613183794918768,101.41145952544457
1658790136450463,-21.026932173647538,9.979400320439481,104.70740825513076
1658790136466463,-15.960936903944457,11.139085984588291,108.43060959792501
1658790136482463,-6.8665598535133086,11.932555123216616,112.58106355382643
1658790136498474,-9.55214770733187,14.435034714274707,115.08354314488452
1658790136514474,-23.468375677118956,15.960936903944457,115.87701228351261
1658790136530473,-28.473334859235365,16.998550392919697,114.53421835660356
1658790136546473,-21.087968261234437,20.11139085984587,115.20561532005786
1658790136562473,-14.129854276340893,22.003509575036105,117.34187838559546
1658790136578473,-16.632333867398984,23.651483939879427,117.09773403524832
1658790136594473,-25.970855268177274,22.49179827573039,114.22903791866929
1658790136610472,-29.08369573510322,20.599679560540153,111.48241397726406
1658790136626472,-22.79697871366443,23.224231326771815,113.13038834210738
1658790136642472,-15.411612115663274,28.229190508888223,115.81597619592594
1658790136658472,-18.646524757763018,30.4264896620125,113.49660486762787
1658790136674471,-31.097886625467254,25.970855268177274,104.89051651789123
1658790136690471,-36.530098420691274,20.416571297779683,99.2141603723203
1658790136706471,-26.39810788128466,20.965896086060866,104.03601129167646
1658790136722471,-15.350576028076603,27.130540932326085,112.33691920347928
1658790136738471,-14.98435950255589,30.792706187533213,112.09277485313214
1658790136754470,-20.721751735713724,23.285267414358714,98.48172732127887
1658790136770470,-22.186617837796575,14.435034714274707,88.28870069428558
1658790136786470,-19.684138246738257,16.32715342946517,92.37811856260032
1658790136802470,-17.24269474326684,26.276035706111088,97.99343862058458
1658790136818481,-14.862287327382319,28.717479209582507,93.41573205157556
1658790136834481,-12.848096437018285,24.200808728160382,81.63576714732608
1658790136850481,-11.444266422522333,21.27107652399468,76.63080796520944
1658790136866480,-12.848096437018285,24.505989166094423,77.79049362935848
1658790136882480,-8.575570305943302,28.778515297169406,75.715266651408
1658790136898480,-11.07804989700162,30.30441748683893,69.91683833066327
1658790136914480,-17.24269474326684,26.214999618524416,62.77561608300948
1658790136930480,-15.594720378423744,21.942473487449433,61.61593041885999
1658790136946479,-14.251926451514464,21.942473487449433,64.66773479819949
1658790136962479,-18.70756084534969,23.468375677118956,65.8884565499352
1658790136978479,-18.097199969481835,21.942473487449433,62.165255207140945
1658790136994479,-14.679179064621849,19.745174334325156,55.390249485007644
1658790137010479,-18.280308232242305,14.068818188753994,46.967269398031476
1658790137026478,-21.45418478675515,7.4158846417944915,40.74158846417936
1658790137042478,-18.280308232242305,2.655069810025225,37.628747997253186
1658790137058478,-14.557106889448278,1.3122758831159445,35.98077363241009
1658790137074478,-13.031204699778755,2.105745021744042,29.755092698557974
1658790137090478,-13.214312962538997,1.6174563210497581,17.24269474326684
1658790137106477,-15.289539940489703,-1.3733119707026162,2.9602502479590385
1658790137122477,-13.092240787365427,-3.570611123826893,-8.6366063935302
1658790137138458,-1.983672846570471,-2.166781109330941,-15.289539940489703
1658790137154458,11.810482948043045,0.7019150072480898,-19.01274128328373
1658790137170457,17.60891126878755,-0.9460593575952316,-23.590447852292527
1658790137186457,19.9893186846723,-6.744487678339738,-31.036850537880355
1658790137202457,23.102159151598244,-11.566338597695903,-39.58190280003055
1658790137218457,22.308690012970146,-14.740215152208748,-47.39452201113909
1658790137234457,13.76363775082018,-17.853055619134693,-52.76569771877621
1658790137250456,7.904173342488775,-22.369726100556818,-58.2589456015869
1658790137266456,21.087968261234437,-25.36049439230942,-62.836652170595926
1658790137282456,33.17311360341796,-25.726710917830133,-65.09498741130687
1658790137298456,30.060273136491787,-27.191577019912984,-69.85580224307614
1658790137314456,30.54856183718607,-27.61882963302037,-75.4711223010604
1658790137330455,32.86793316548392,-27.496757457846797,-80.23193713282967
1658790137346455,37.01838712138533,-31.280994888227724,-85.35896849011965
1658790137362455,36.65217059586462,-34.3938353551539,-88.41077286945892
1658790137378455,31.70824750133511,-33.23414969100486,-90.36392767223606
1658790137394455,20.294499122606112,-32.56275272755033,-92.07293812466605
1658790137410454,16.998550392919697,-38.1170366979477,-97.01686121919602
1658790137426454,26.153963530937517,-42.14541847867554,-100.98420691233696
1658790137442454,32.257572289616064,-43.36614023041125,-101.04524299992386
1658790137458465,28.839551384756078,-42.57267109178315,-101.10627908751053
1658790137474465,28.656443121995835,-41.1078049897003,-101.77767605096528
1658790137490465,37.1404592965589,-40.13122758831173,-102.57114518959338
1658790137506465,44.7699702449072,-36.774242771038416,-102.38803692683314
1658790137522464,40.253299763485074,-37.50667582207984,-105.0736247806517
1658790137538464,26.764324406805372,-42.93888761730386,-108.67475394827193
1658790137554464,13.275349050125897,-40.07019150072483,-106.11123826962694
1658790137570464,9.67421988250544,-32.6848249027239,-102.44907301441981
1658790137586464,25.970855268177274,-35.85870145723675,-105.0736247806517
1658790137602463,30.54856183718607,-39.398794537270305,-102.69321736476695
1658790137618463,15.960936903944457,-39.45983062485698,-98.11551079575815
1658790137634463,15.10643167772946,-37.56771190966674,-97.26100556954316
1658790137650463,26.58121614404513,-36.04180971999699,-99.27519645990697
1658790137666463,34.33279926756677,-33.23414969100486,-98.97001602197315
1658790137682462,30.060273136491787,-30.30441748683893,-95.3688868543527
1658790137698462,13.214312962538997,-28.229190508888223,-94.5143816281377
1658790137714462,1.3733119707026162,-25.543602655069662,-96.46753643091483
1658790137730462,8.270389868009488,-22.125581750209676,-95.97924773022055
1658790137746461,19.1348134584573,-19.1348134584573,-91.70672159914534
1658790137762461,20.05035477225897,-17.120622568093268,-88.5938811322194
1658790137778473,8.270389868009488,-14.312962539101136,-85.72518501564036
1658790137794472,0.9460593575952316,-14.92332341496899,-86.45761806668179
1658790137810472,13.76363775082018,-14.80125123979542,-85.78622110322726
1658790137826472,26.82536049439227,-13.214312962538997,-78.76707103074682
1658790137842472,26.6422522316318,-8.392462043183059,-72.96864271000231
1658790137858471,12.054627298390187,-7.232776379034021,-74.3114366369116
1658790137874471,1.1291676203554744,-8.392462043183059,-77.66842145418468
1658790137890471,6.622415503166167,-6.012054627298312,-72.84657053482874
1658790137906471,17.303730830853738,-0.213626306553806,-63.69115739681092
1658790137922471,12.176699473563758,0.45777065690094787,-61.73800259403379
1658790137938470,-4.42511635004189,-2.8992141603723667,-62.77561608300903
1658790137954470,-6.073090714885211,-4.974441138323073,-59.90691996643022
1658790137970470,3.997863736934505,-2.04470893415737,-53.803311207751676
1658790137986470,4.364080262455218,1.1902037079423735,-50.62943465323883
1658790138002470,1.983672846570471,-0.6408789196611906,-51.17875944151979
1658790138018469,11.993591210803288,-0.7019150072480898,-48.85938811322194
1658790138034469,17.24269474326684,0.8239871824216607,-44.220645456626244
1658790138050469,9.979400320439481,2.04470893415737,-44.220645456626244
1658790138066469,-0.5188067444876197,3.2654306858930795,-42.63370717936982
1658790138082469,3.997863736934505,3.692683299000464,-38.056000610361025
1658790138098449,12.176699473563758,3.0823224231326094,-31.708247501335336
1658790138114449,1.9226367589837992,4.852368963149502,-25.17738612954895
1658790138130449,-13.76363775082018,5.889982452124741,-20.11139085984587
1658790138146449,-15.838864728770886,6.927595941100208,-13.031204699778755
1658790138162449,-3.570611123826893,6.683451590753066,-5.401693751430457
1658790138178448,0.09155413138023505,9.124895094224485,2.04470893415737
1658790138194448,-11.261158159761862,10.467689021133765,6.927595941100208
1658790138210448,-15.960936903944457,11.688410772869474,12.970168612191856
1658790138226448,-9.796292057679011,12.970168612191856,20.538643472953254
1658790138242447,-3.570611123826893,12.787060349431613,28.473334859235365
1658790138258447,-9.55214770733187,14.251926451514464,38.23910887312104
1658790138274447,-18.76859693293659,14.007782101167322,48.126955062180514
1658790138290447,-17.79201953154802,12.542915999084471,57.52651255054525
1658790138306447,-15.655756466010416,11.810482948043045,67.41435873960518
1658790138322446,-20.538643472953254,10.955977721828049,75.04386968795325
1658790138338446,-28.717479209582507,10.467689021133765,82.67338063630132
1658790138354446,-28.595407034408936,10.589761196307336,89.20424200808748
1658790138370446,-23.89562829022657,10.528725108720437,95.3688868543527
1658790138386446,-20.294499122606112,11.07804989700162,101.16731517509743
1658790138402445,-19.378957808804444,11.322194247348762,105.19569695582504
1658790138418457,-16.571297779812312,11.566338597695903,107.63714045929646
1658790138434456,-12.542915999084471,14.862287327382319,110.62790875104929
1658790138450456,-14.740215152208748,18.76859693293659,112.5200274662393
1658790138466456,-19.9282825970854,20.11139085984587,112.33691920347928
1658790138482456,-22.064545662623004,22.430762188143717,112.6420996414131
1658790138498456,-21.210040436408008,24.689097428854666,114.22903791866929
1658790138514455,-19.9893186846723,27.92401007095441,114.47318226901643
1658790138530455,-18.82963302052326,31.158922713053926,116.42633707179357
1658790138546455,-16.08300907911803,31.95239185168225,118.74570840009164
1658790138562455,-20.23346303501944,32.31860837720296,122.40787365529877
1658790138578455,-30.54856183718607,32.62378881513678,127.04661631189447
1658790138594454,-38.056000610361025,30.60959792477297,126.9855802243078
1658790138610454,-39.64293888761745,29.38887617303726,125.33760585946447
1658790138626454,-38.54428931105531,25.543602655069662,124.29999237048924
1658790138642454,-37.872892347600555,24.444953078507524,125.9479667353321
1658790138658454,-34.51590753032747,25.726710917830133,127.53490501258875
1658790138674453,-32.806897077897474,25.665674830243233,127.53490501258875
1658790138690453,-23.285267414358714,22.430762188143717,122.71305409323259
1658790138706453,-18.402380407415876,17.48683909361398,117.46395056076926
1658790138722453,-24.07873655298681,15.228503852903032,111.48241397726406
1658790138738433,-36.652170595864845,16.815442130159454,105.25673304341217
1658790138754433,-39.276722362096734,19.562066071564686,97.87136644541079
1658790138770433,-27.069504844739413,22.064545662623004,93.7819485770965
1658790138786433,-15.350576028076603,24.01770046540014,91.09636072327794
1658790138802433,-18.524452582589447,25.23842221713585,85.66414892805369
1658790138818432,-30.975814450293683,21.759365224688963,77.48531319142467
1658790138834432,-30.182345311665358,15.228503852903032,70.6492713817047
1658790138850432,-19.439993896391115,18.158236057068734,72.84657053482897
1658790138866432,-13.275349050125897,25.05531395437538,78.46189059281323
1658790138882432,-4.303044174868319,27.679865720607268,80.29297322041657
1658790138898431,-8.33142595559616,24.872205691615136,75.95941100175514
1658790138914431,-31.89135576409558,18.463416495002548,67.78057526512566
1658790138930431,-46.17380025940338,15.899900816357558,62.226291294727616
1658790138946431,-27.557793545433697,16.876478217746126,61.61593041885999
1658790138962431,-5.2185854886702145,20.843823910887295,65.94949263752233
1658790138978430,1.6174563210497581,24.628061341267994,64.72877088578662
1658790138994430,-1.6174563210497581,20.721751735713724,57.46547646295858
1658790139010430,-8.270389868009488,14.129854276340893,52.15533684290813
1658790139026430,-10.467689021133765,13.214312962538997,51.056687266346216
1658790139042430,-7.721065079728305,17.059586480506596,51.667048142213844
1658790139058441,-3.2654306858930795,20.416571297779683,49.53078507667624
1658790139074441,-4.730296787975931,18.036163881895163,43.060959792477206
1658790139090440,-18.89066910811016,12.298771648737329,33.478294041351774
1658790139106440,-35.73662928206318,6.561379415579495,20.782787823300396
1658790139122440,-33.23414969100486,2.532997634851654,10.650797283894008
1658790139138440,-17.42580300602731,2.7161058976118966,4.791332875562603
1658790139154440,-5.2185854886702145,4.242008087281647,0.7019150072480898
1658790139170439,2.3498893720911838,3.5095750362402214,-4.486152437628789
1658790139186439,7.11070420386045,1.3122758831159445,-11.07804989700162
1658790139202439,12.542915999084471,-2.4719615472647547,-18.58548867017612
1658790139218439,16.815442130159454,-6.561379415579495,-24.567025253681095
1658790139234439,17.059586480506596,-9.73525597009234,-30.121309224078686
1658790139250438,13.336385137712568,-13.885709925993751,-36.957351033798886
1658790139266438,12.787060349431613,-18.646524757763018,-43.06095979247743
1658790139282438,18.280308232242305,-20.599679560540153,-48.249027237354085
1658790139298438,23.83459220263967,-23.407339589532285,-53.43709468223096
1658790139314437,21.942473487449433,-26.58121614404513,-58.01480125123976
1658790139330437,20.35553521019301,-28.04608224612798,-61.188677805752604
1658790139346437,24.628061341267994,-25.48256656748299,-64.36255436026545
1658790139362437,28.16815442130155,-26.459143968871558,-69.91683833066304
1658790139378448,30.792706187533213,-29.877164873731545,-76.81391622796968
1658790139394448,28.16815442130155,-31.89135576409558,-80.29297322041657
1658790139410448,24.01770046540014,-30.914778362706784,-81.33058670939181
1658790139426447,24.628061341267994,-29.14473182269012,-82.73441672388799
1658790139442447,33.4172579537651,-32.37964446478986,-85.17586022735941
1658790139458447,34.33279926756677,-37.68978408484031,-87.55626764324393
1658790139474447,23.041123064011572,-39.76501106279102,-90.11978332188892
1658790139490447,11.627374685282575,-41.41298542763411,-93.47676813916223
1658790139506446,12.726024261844714,-45.44136720836195,-96.77271686884887
1658790139522446,21.14900434882111,-46.66208896009766,-98.60379949645244
1658790139538446,26.031891355763946,-42.57267109178315,-97.19996948195626
1658790139554446,30.4875257495994,-36.652170595864845,-96.40650034332816
1658790139570446,31.219958800640825,-35.309376668955565,-98.97001602197315
1658790139586445,29.26680399786369,-44.70893415732053,-105.98916609445337
1658790139602445,27.069504844739413,-48.310063324940984,-105.56191348134598
1658790139618445,19.073777370870403,-38.056000610361025,-97.19996948195626
1658790139634445,29.32784008545036,-33.60036621652557,-98.84794384679958
1658790139650445,43.9154650186922,-39.337758449683406,-103.18150606546124
1658790139666444,28.595407034408936,-46.9672693980317,-104.28015564202337
1658790139682444,8.758678568703772,-44.220645456626244,-99.94659342336172
1658790139698425,6.927595941100208,-31.097886625467254,-94.45334554055103
1658790139714425,14.862287327382319,-24.628061341267994,-96.83375295643555
1658790139730425,20.538643472953254,-29.816128786144645,-104.64637216754409
1658790139746424,12.359807736324,-36.4690623331046,-106.59952697032122
1658790139762424,11.444266422522333,-28.534370946822264,-99.39726863508054
1658790139778424,21.39314869916825,-16.754406042572555,-93.35469596398866
1658790139794424,29.32784008545036,-13.946746013580423,-96.6506446936753
1658790139810423,28.04608224612798,-17.120622568093268,-103.24254215304813
1658790139826423,20.17242694743254,-21.881437399862534,-103.60875867856885
1658790139842423,14.679179064621849,-16.510261692225413,-96.71168078126198
1658790139858423,15.655756466010416,-6.683451590753066,-86.39658197909512
1658790139874423,15.045395590142562,-5.3406576638437855,-83.58892195010299
1658790139890422,12.298771648737329,-12.787060349431613,-87.55626764324393
1658790139906422,4.547188525215461,-16.08300907911803,-86.0303654535744
1658790139922422,0.5188067444876197,-13.153276874952326,-79.80468451972229
1658790139938422,3.692683299000464,-11.566338597695903,-75.89837491416802
1658790139954422,7.598992904554734,-11.07804989700162,-77.2411688410773
1658790139970421,14.740215152208748,-11.871519035629717,-78.70603494316015
1658790139986421,16.998550392919697,-9.124895094224485,-78.33981841763944
1658790140002421,11.07804989700162,-4.791332875562603,-79.07225146868086
1658790140018432,9.002822919050914,-2.7771419851987957,-79.13328755626753
1658790140034432,12.176699473563758,0.33569848172737693,-77.48531319142444
1658790140050432,8.941786831464015,2.166781109330941,-75.59319447623398
1658790140066432,-4.730296787975931,5.401693751430457,-72.23620965896089
1658790140082431,-10.589761196307336,7.598992904554734,-68.94026092927447
1658790140098431,-2.166781109330941,6.256198977645454,-62.531471732661885
1658790140114431,6.256198977645454,6.8665598535133086,-53.86434729533835
1658790140130431,0.2746623941404778,11.322194247348762,-44.58686198214696
1658790140146431,-8.270389868009488,11.810482948043045,-35.91973754482342
1658790140162430,-1.4953841458761872,10.467689021133765,-27.86297398336751
1658790140178430,5.401693751430457,13.336385137712568,-18.341344319828977
1658790140194430,-4.242008087281647,17.24269474326684,-9.918364232852582
1658790140210430,-19.501029983978015,18.58548867017612,-2.227817196917613
1658790140226430,-16.08300907911803,19.501029983978015,6.317235065232353
1658790140242429,-3.570611123826893,19.073777370870403,18.463416495002548
1658790140258429,-6.927595941100208,18.76859693293659,29.633020523384403
1658790140274429,-17.059586480506596,16.571297779812312,38.11703669794747
1658790140290429,-17.730983443961122,15.228503852903032,49.225604638742425
1658790140306429,-14.129854276340893,14.068818188753994,59.7848477912562
1658790140322428,-21.39314869916825,13.885709925993751,68.69611657892756
1658790140338440,-29.877164873731545,12.848096437018285,74.49454489967229
1658790140354439,-28.839551384756078,15.10643167772946,81.51369497215228
1658790140370439,-23.407339589532285,15.472648203250174,89.63149462119509
1658790140386439,-24.505989166094423,16.632333867398984,96.10131990539412
1658790140402439,-29.08369573510322,16.693369954985883,100.61799038681647
1658790140418439,-25.665674830243233,16.693369954985883,102.63218127718028
1658790140434438,-18.341344319828977,19.439993896391115,106.11123826962694
1658790140450438,-18.89066910811016,21.942473487449433,109.40718699931358
1658790140466438,-25.29945830472252,24.200808728160382,113.19142442969405
1658790140482438,-28.534370946822264,25.29945830472252,114.22903791866929
1658790140498438,-23.346303501945386,26.58121614404513,115.32768749523166
1658790140514437,-22.49179827573039,28.656443121995835,119.11192492561213
1658790140530437,-25.909819180590375,29.14473182269012,119.2950331883726
1658790140546437,-27.496757457846797,31.158922713053926,120.0885023270007
1658790140562437,-24.811169604028237,33.661402304112244,124.42206454566258
1658790140578436,-18.341344319828977,37.384603646906044,129.06080720225827
1658790140594436,-24.750133516441565,38.0560006103608,128.8776989394978
1658790140610436,-40.741588464179586,35.065232318608196,124.60517280842305
1658790140626436,-39.82604715037769,32.80689707789725,124.23895628290211
1658790140642436,-24.628061341267994,34.2107270923932,129.06080720225827
1658790140658416,-22.125581750209676,37.811856260013656,131.1360341802092
1658790140674416,-38.48325322346841,35.004196231021524,124.23895628290211
1658790140690416,-47.7607385366598,27.191577019912984,116.67048142214071
1658790140706416,-45.62447547112242,24.200808728160382,117.64705882352928
1658790140722416,-33.11207751583129,25.116350041962278,120.14953841458782
1658790140738415,-26.58121614404513,28.656443121995835,121.4312962539102
1658790140754415,-33.5393301289389,30.60959792477297,116.06012054627308
1658790140770415,-35.492484931716035,23.468375677118956,101.10627908751076
1658790140786415,-23.285267414358714,15.350576028076603,91.40154116121175
1658790140802415,-23.224231326771815,15.960936903944457,92.62226291294746
1658790140818414,-27.92401007095441,21.210040436408008,95.61303120469984
1658790140834414,-26.6422522316318,30.121309224078686,94.81956206607174
1658790140850414,-18.524452582589447,32.31860837720296,85.48104066529368
1658790140866414,-17.853055619134693,24.322880903333953,77.60738536659801
1658790140882413,-29.26680399786369,16.1440451667047,74.7997253376061
1658790140898413,-46.906233310444804,14.007782101167322,72.54139009689516
1658790140914413,-47.51659418631266,14.862287327382319,69.24544136720851
1658790140930413,-30.36545357442583,14.251926451514464,67.47539482719185
1658790140946413,-14.740215152208748,11.932555123216616,65.2170595864809
1658790140962412,-14.068818188753994,9.796292057679011,60.39520866712428
1658790140978424,-19.01274128328373,7.476920729381163,51.17875944151956
1658790140994423,-11.444266422522333,7.11070420386045,42.20645456626221
1658790141010423,-1.4343480582895154,5.462729839017356,37.26253147173247
1658790141026423,-0.8850232700083325,2.04470893415737,32.684824902723676
1658790141042423,-11.20012207217519,1.1902037079423735,26.092927443350845
1658790141058423,-19.1348134584573,2.105745021744042,15.899900816357558
1658790141074422,-15.777828641183987,-0.09155413138023505,6.195162890058782
1658790141090422,-8.45349813076973,-3.3875028610666504,-2.410925459678083
1658790141106422,-4.242008087281647,-4.9134050507361735,-9.796292057679011
1658790141122422,-0.8850232700083325,-4.791332875562603,-16.754406042572555
1658790141138422,11.810482948043045,-6.134126802471883,-20.294499122606112
1658790141154421,23.773556115052997,-7.476920729381163,-23.224231326771815
1658790141170421,25.42153047989609,-11.261158159761862,-29.449912260623933
1658790141186421,17.181658655680167,-18.036163881895163,-38.54428931105531
1658790141202421,13.031204699778755,-21.026932173647538,-47.94384679942027
1658790141218421,15.899900816357558,-21.637293049515392,-53.92538338292525
1658790141234420,18.280308232242305,-21.759365224688963,-56.73304341191738
1658790141250420,21.45418478675515,-22.61387045090396,-60.33417257953761
1658790141266420,24.322880903333953,-24.505989166094423,-66.13260090028234
1658790141282420,29.32784008545036,-27.252613107499656,-72.05310139620042
1658790141298401,30.182345311665358,-28.107118333714652,-76.26459143968873
1658790141314400,25.23842221713585,-28.229190508888223,-79.68261234454872
1658790141330400,25.42153047989609,-27.98504615854108,-84.38239108873108
1658790141346400,32.86793316548392,-28.656443121995835,-88.5938811322194
1658790141362400,32.13550011444249,-32.01342793926915,-90.79118028534367
1658790141378399,27.679865720607268,-33.478294041352,-91.70672159914534
1658790141394399,24.200808728160382,-32.928969253071045,-92.6832990005339
1658790141410399,22.73594262607753,-33.90554665445961,-97.62722209506387
1658790141426399,30.243381399252257,-37.62874799725341,-104.34119172961027
1658790141442399,29.32784008545036,-37.3235675593196,-103.91393911650266
1658790141458398,23.529411764705856,-32.928969253071045,-101.77767605096528
1658790141474398,19.9282825970854,-31.342030975814623,-102.99839780270099
1658790141490398,17.975127794308264,-34.271763179980326,-106.41641870756098
1658790141506398,20.05035477225897,-36.10284580758389,-107.1488517586024
1658790141522398,28.534370946822264,-32.37964446478986,-101.47249561303124
1658790141538397,25.543602655069662,-29.694056610971074,-97.38307774471673
1658790141554397,13.76363775082018,-33.78347447928604,-101.59456778820481
1658790141570397,4.669260700389032,-37.01838712138556,-107.1488517586024
1658790141586397,10.711833371480907,-36.28595407034413,-106.23331044480051
1658790141602397,24.322880903333953,-32.25757228961629,-99.1531242847334
1658790141618408,32.684824902723676,-27.313649195086555,-97.32204165712983
1658790141634408,24.26184481574728,-28.107118333714652,-100.434882124056
1658790141650407,12.176699473563758,-32.806897077897474,-103.85290302891599
1658790141666407,17.24269474326684,-31.952391851682478,-102.87632562752742
1658790141682407,23.95666437781324,-21.087968261234437,-96.28442816815459
1658790141698407,18.402380407415876,-17.48683909361398,-101.2283512626841
1658790141714407,11.20012207217519,-21.27107652399468,-109.59029526207382
1658790141730406,12.4208438239109,-21.27107652399468,-107.51506828412312
1658790141746406,30.182345311665358,-15.411612115663274,-97.07789730678269
1658790141762406,41.22987716487364,-7.354848554207592,-88.65491721980607
1658790141778406,30.792706187533213,-7.782101167315204,-92.7443350881208
1658790141794406,13.519493400473038,-12.909132524605184,-99.09208819714672
1658790141810405,11.932555123216616,-15.533684290836845,-97.19996948195626
1658790141826405,20.11139085984587,-8.087281605249018,-87.7393759060044
1658790141842405,17.24269474326684,-0.8239871824216607,-81.14747844663157
