Timestamp (microseconds),Gyro X (°/s),Gyro Y (°/s),Gyro Z (°/s)
1658790021776214,0.7629510948347615,-0.9460593575952316,-1.2512397955290453
1658790021792211,0.213626306553806,-0.7629510948347615,-0.3967345693140487
1658790021808208,0.7629510948347615,-1.0070954451819034,-1.1291676203554744
1658790021824205,1.5564202334630863,-0.6408789196611906,-1.739528496223329
1658790021840202,1.4953841458761872,-0.7629510948347615,-1.1902037079423735
1658790021856199,0.7629510948347615,-0.6408789196611906,-0.6408789196611906
1658790021872196,0.9460593575952316,-0.09155413138023505,-0.8239871824216607
1658790021888193,1.4343480582895154,-0.9460593575952316,-1.0681315327688026
1658790021904190,1.1291676203554744,-1.739528496223329,-1.1902037079423735
1658790021920187,-0.7629510948347615,-1.4953841458761872,-0.9460593575952316
1658790021936184,-1.3122758831159445,-0.2746623941404778,-0.5798428320745188
1658790021952180,-0.45777065690094787,-0.2746623941404778,0.2746623941404778
1658790021968177,1.1291676203554744,-0.5188067444876197,-0.213626306553806
1658790021984174,1.1291676203554744,-0.5188067444876197,-1.0681315327688026
1658790022000171,0.09155413138023505,-0.8239871824216607,-1.1291676203554744
1658790022016168,-0.5798428320745188,-0.8239871824216607,-0.8850232700083325
1658790022032165,0.03051804379333589,-0.9460593575952316,-0.6408789196611906
1658790022048162,-2.4719615472647547,-0.9460593575952316,-0.45777065690094787
1658790022064159,-3.7537193865873633,-0.5798428320745188,-0.7019150072480898
1658790022080156,-0.45777065690094787,-0.33569848172737693,-0.7629510948347615
1658790022096161,2.7771419851987957,-0.45777065690094787,-0.8850232700083325
1658790022112157,1.8616006713969,-0.8239871824216607,-0.5798428320745188
1658790022128154,-0.33569848172737693,-0.213626306553806,0.03051804379333589
1658790022144151,0.5798428320745188,0.5798428320745188,0.15259021896690683
1658790022160148,1.2512397955290453,-0.213626306553806,-0.33569848172737693
1658790022176145,1.739528496223329,-1.0681315327688026,-0.33569848172737693
1658790022192142,1.0681315327688026,-1.0070954451819034,0.5188067444876197
1658790022208139,1.1291676203554744,-0.5798428320745188,0.5798428320745188
1658790022224136,1.3733119707026162,-0.9460593575952316,-0.2746623941404778
1658790022240133,2.166781109330941,-0.8239871824216607,-0.45777065690094787
1658790022256130,0.8239871824216607,-1.0070954451819034,-0.33569848172737693
1658790022272127,-3.1433585107195086,-0.5798428320745188,0.213626306553806
1658790022288124,-6.805523765926637,-1.0070954451819034,0.8239871824216607
1658790022304121,-5.523765926604028,-2.04470893415737,0.7629510948347615
1658790022320118,-2.9602502479590385,-2.5940337224383256,1.0070954451819034
1658790022336115,-1.0681315327688026,-2.410925459678083,1.5564202334630863
1658790022352111,1.9226367589837992,-1.1902037079423735,2.410925459678083
1658790022368108,4.852368963149502,-0.5188067444876197,2.5940337224383256
1658790022384105,5.828946364538069,-1.5564202334630863,1.6784924086366573
1658790022400102,5.76791027695117,-1.6784924086366573,0.8239871824216607
1658790022416107,0.03051804379333589,-1.8616006713969,0.8850232700083325
1658790022432104,-6.683451590753066,-2.4719615472647547,1.4343480582895154
1658790022448101,-9.369039444571627,-2.04470893415737,2.410925459678083
1658790022464098,-6.073090714885211,-1.3733119707026162,2.7771419851987957
1658790022480095,-2.3498893720911838,-1.0070954451819034,2.3498893720911838
1658790022496091,-1.8616006713969,-1.5564202334630863,1.983672846570471
1658790022512088,-0.09155413138023505,-2.227817196917613,1.4343480582895154
1658790022528085,1.4953841458761872,-2.04470893415737,1.3733119707026162
1658790022544082,3.1433585107195086,-0.9460593575952316,1.5564202334630863
1658790022560079,4.42511635004189,-1.0681315327688026,1.3122758831159445
1658790022576076,3.3875028610666504,-2.04470893415737,0.33569848172737693
1658790022592073,-0.03051804379333589,-2.8381780727854675,-0.03051804379333589
1658790022608070,-3.0823224231326094,-3.0212863355459376,0.7629510948347615
1658790022624067,-3.0823224231326094,-2.8992141603723667,1.3122758831159445
1658790022640064,-0.6408789196611906,-3.0823224231326094,1.2512397955290453
1658790022656061,3.0212863355459376,-3.0212863355459376,1.8005645838102282
1658790022672058,6.561379415579495,-1.983672846570471,2.04470893415737
1658790022688055,5.76791027695117,-1.4343480582895154,1.0070954451819034
1658790022704052,3.0212863355459376,-0.33569848172737693,0.7629510948347615
1658790022720049,0.7629510948347615,-0.15259021896690683,1.1902037079423735
1658790022735901,-0.33569848172737693,-0.15259021896690683,0.33569848172737693
1658790022751897,-2.04470893415737,0.09155413138023505,-0.15259021896690683
1658790022767893,-2.3498893720911838,0.45777065690094787,0.6408789196611906
1658790022783890,-2.410925459678083,0.5188067444876197,1.0070954451819034
1658790022799886,-0.7019150072480898,0.15259021896690683,1.1902037079423735
1658790022815883,2.655069810025225,1.1902037079423735,0.8850232700083325
1658790022831879,2.3498893720911838,1.6174563210497581,0.03051804379333589
1658790022847876,0.213626306553806,0.8239871824216607,0.2746623941404778
1658790022863872,-0.6408789196611906,0.15259021896690683,0.9460593575952316
1658790022879869,2.7771419851987957,0.8239871824216607,0.8239871824216607
1658790022895865,4.9134050507361735,0.5798428320745188,-0.213626306553806
1658790022911862,3.936827649347606,0.213626306553806,-1.6784924086366573
1658790022927858,0.5188067444876197,0.5188067444876197,-1.6174563210497581
1658790022943854,-0.2746623941404778,-0.33569848172737693,-1.4343480582895154
1658790022959851,1.2512397955290453,-0.33569848172737693,-1.9226367589837992
1658790022975847,1.5564202334630863,-0.8239871824216607,-2.166781109330941
1658790022991844,-0.6408789196611906,-1.0681315327688026,-2.105745021744042
1658790023007840,-2.3498893720911838,-0.33569848172737693,-1.4953841458761872
1658790023023837,-0.8850232700083325,0.213626306553806,-1.4343480582895154
1658790023039833,2.227817196917613,-0.6408789196611906,-1.6784924086366573
1658790023055664,2.5940337224383256,-1.4953841458761872,-1.739528496223329
1658790023071660,2.04470893415737,-0.45777065690094787,-1.739528496223329
1658790023087656,2.7771419851987957,-0.213626306553806,-1.8005645838102282
1658790023103652,2.166781109330941,-1.4953841458761872,-1.4953841458761872
1658790023119648,1.0681315327688026,-2.227817196917613,-1.5564202334630863
1658790023135644,0.213626306553806,-1.8616006713969,-1.3733119707026162
1658790023151640,-0.33569848172737693,-1.2512397955290453,-1.0681315327688026
1658790023167636,-0.03051804379333589,-1.0070954451819034,-0.7019150072480898
1658790023183632,2.532997634851654,-2.04470893415737,-0.5188067444876197
1658790023199628,4.119935912108076,-2.166781109330941,-0.03051804379333589
1658790023215623,1.0070954451819034,-1.3122758831159445,0.6408789196611906
1658790023231619,0.45777065690094787,-0.33569848172737693,-0.213626306553806
1658790023247615,1.739528496223329,-1.0681315327688026,-0.5798428320745188
1658790023263611,3.4485389486533222,-2.04470893415737,-1.0070954451819034
1658790023279607,2.8381780727854675,-2.410925459678083,-0.8850232700083325
1658790023295603,0.5188067444876197,-2.166781109330941,-0.8850232700083325
1658790023311599,-2.3498893720911838,-1.3122758831159445,-1.1291676203554744
1658790023327595,-0.33569848172737693,-1.8616006713969,-0.6408789196611906
1658790023343591,2.3498893720911838,-1.8616006713969,-0.8850232700083325
1658790023359587,2.04470893415737,-0.8850232700083325,-0.7629510948347615
1658790023375396,1.1902037079423735,-0.15259021896690683,-1.0070954451819034
1658790023391391,-0.6408789196611906,-0.33569848172737693,-1.3733119707026162
1658790023407386,1.6174563210497581,-0.5188067444876197,-1.8005645838102282
1658790023423381,2.410925459678083,-0.7629510948347615,-1.8005645838102282
1658790023439376,0.9460593575952316,-0.5798428320745188,-1.6174563210497581
1658790023455371,-0.7019150072480898,-0.213626306553806,-1.3122758831159445
1658790023471367,-0.45777065690094787,-0.2746623941404778,-1.0070954451819034
1658790023487362,1.8616006713969,-0.9460593575952316,-0.7629510948347615
1658790023503357,2.532997634851654,-1.5564202334630863,0.2746623941404778
1658790023519352,-0.03051804379333589,-1.1291676203554744,1.4953841458761872
1658790023535347,-1.3122758831159445,-1.2512397955290453,1.739528496223329
1658790023551342,3.1433585107195086,-1.1291676203554744,1.8616006713969
1658790023567337,6.805523765926637,-0.7019150072480898,1.2512397955290453
1658790023583332,5.889982452124741,-0.213626306553806,-0.03051804379333589
1658790023599327,0.3967345693140487,0.213626306553806,-0.6408789196611906
1658790023615322,-2.532997634851654,0.213626306553806,-1.1291676203554744
1658790023631317,-2.8992141603723667,0.6408789196611906,-1.6784924086366573
1658790023647312,-1.8616006713969,1.1902037079423735,-0.3967345693140487
1658790023663307,-0.8850232700083325,1.3733119707026162,0.8239871824216607
1658790023679302,-0.5188067444876197,2.227817196917613,1.1291676203554744
1658790023695190,1.983672846570471,1.8616006713969,1.6784924086366573
1658790023711185,3.692683299000464,0.2746623941404778,1.3122758831159445
1658790023727179,3.5095750362402214,-0.45777065690094787,0.2746623941404778
1658790023743174,1.4953841458761872,-1.0070954451819034,0.3967345693140487
1658790023759168,-0.213626306553806,-1.6174563210497581,0.7629510948347615
1658790023775163,0.33569848172737693,-1.9226367589837992,0.3967345693140487
1658790023791157,-0.5798428320745188,-2.7161058976118966,-0.5798428320745188
1658790023807152,-1.9226367589837992,-3.0823224231326094,-0.8239871824216607
1658790023823146,-1.739528496223329,-2.8381780727854675,-0.7019150072480898
1658790023839141,0.6408789196611906,-3.0823224231326094,-0.45777065690094787
1658790023855136,2.5940337224383256,-3.2654306858930795,-0.6408789196611906
1658790023871130,3.570611123826893,-3.3264667734797513,-0.7019150072480898
1658790023887125,4.9134050507361735,-2.532997634851654,-1.1291676203554744
1658790023903119,4.852368963149502,-3.570611123826893,-1.5564202334630863
1658790023919114,3.692683299000464,-3.570611123826893,-1.2512397955290453
1658790023935108,1.8616006713969,-2.655069810025225,-1.3122758831159445
1658790023951103,1.1291676203554744,-2.04470893415737,-1.6784924086366573
1658790023967097,1.8616006713969,-1.8616006713969,-1.9226367589837992
1658790023983092,0.09155413138023505,-2.288853284504512,-1.8005645838102282
1658790023999086,-1.6174563210497581,-1.3733119707026162,-1.3122758831159445
1658790024014923,-1.6174563210497581,-0.45777065690094787,-0.9460593575952316
1658790024030917,0.8850232700083325,-1.0070954451819034,-0.8850232700083325
1658790024046911,5.462729839017356,-1.4953841458761872,-0.8239871824216607
1658790024062905,5.0354772259097444,-1.8005645838102282,-0.9460593575952316
1658790024078899,3.7537193865873633,-1.4343480582895154,-1.1902037079423735
1658790024094893,2.288853284504512,-0.8850232700083325,-0.8239871824216607
1658790024110887,1.4343480582895154,-1.2512397955290453,-0.33569848172737693
1658790024126881,0.213626306553806,-1.3733119707026162,-0.09155413138023505
1658790024142875,-1.4343480582895154,-0.5798428320745188,-0.5188067444876197
1658790024158869,-1.5564202334630863,-0.7019150072480898,-1.2512397955290453
1658790024174863,1.0681315327688026,-1.8616006713969,-1.4343480582895154
1658790024190858,1.2512397955290453,-1.6784924086366573,-0.7629510948347615
1658790024206852,-0.2746623941404778,-0.45777065690094787,-0.3967345693140487
1658790024222846,-1.4953841458761872,-0.09155413138023505,-0.45777065690094787
1658790024238840,1.4953841458761872,-0.213626306553806,-0.3967345693140487
1658790024254834,4.119935912108076,-0.2746623941404778,-0.2746623941404778
1658790024270828,2.655069810025225,-0.213626306553806,-0.33569848172737693
1658790024286822,-0.03051804379333589,0.45777065690094787,-0.33569848172737693
1658790024302816,0.09155413138023505,0.5798428320745188,-0.5798428320745188
1658790024318810,0.9460593575952316,-0.2746623941404778,-0.5798428320745188
1658790024334686,1.0681315327688026,-0.5798428320745188,-0.213626306553806
1658790024350679,-1.1291676203554744,-0.6408789196611906,-0.2746623941404778
1658790024366673,-1.0070954451819034,-0.33569848172737693,-0.33569848172737693
1658790024382667,0.09155413138023505,-0.7629510948347615,0.03051804379333589
1658790024398660,1.8616006713969,-1.4343480582895154,0.03051804379333589
1658790024414654,2.4719615472647547,-1.4953841458761872,-0.3967345693140487
1658790024430647,1.0070954451819034,-1.0070954451819034,-1.4953841458761872
1658790024446641,-0.09155413138023505,-1.6174563210497581,-2.7161058976118966
1658790024462635,-1.1291676203554744,-2.3498893720911838,-2.7771419851987957
1658790024478628,-1.4343480582895154,-1.983672846570471,-1.6784924086366573
1658790024494622,-0.33569848172737693,-0.2746623941404778,-1.4953841458761872
1658790024510615,2.5940337224383256,0.15259021896690683,-2.166781109330941
1658790024526609,5.2185854886702145,-0.33569848172737693,-2.5940337224383256
1658790024542603,4.364080262455218,-1.1291676203554744,-2.532997634851654
1658790024558596,-0.03051804379333589,-0.5798428320745188,-2.105745021744042
1658790024574590,-1.5564202334630863,-0.33569848172737693,-1.2512397955290453
1658790024590583,0.7019150072480898,-0.8850232700083325,-0.8239871824216607
1658790024606577,3.2043945983061803,-1.1291676203554744,-1.1291676203554744
1658790024622571,1.1291676203554744,-1.3122758831159445,-1.0070954451819034
1658790024638564,-0.5798428320745188,-1.3122758831159445,-0.09155413138023505
1658790024654449,-0.2746623941404778,-0.9460593575952316,0.213626306553806
1658790024670442,4.303044174868319,-0.213626306553806,0.8239871824216607
1658790024686435,3.6316472114137923,-0.8239871824216607,0.7019150072480898
1658790024702428,-0.7629510948347615,-0.33569848172737693,-0.09155413138023505
1658790024718422,-2.3498893720911838,-0.213626306553806,0.33569848172737693
1658790024734415,-0.7629510948347615,-0.2746623941404778,0.5188067444876197
1658790024750408,2.105745021744042,-0.5188067444876197,0.7019150072480898
1658790024766401,4.180971999694748,-0.3967345693140487,0.5798428320745188
1658790024782394,1.739528496223329,-0.03051804379333589,0.5188067444876197
1658790024798387,-1.1291676203554744,-0.33569848172737693,1.2512397955290453
1658790024814380,-0.7629510948347615,-0.6408789196611906,1.6784924086366573
1658790024830373,0.45777065690094787,-0.45777065690094787,1.5564202334630863
1658790024846367,1.4343480582895154,0.09155413138023505,1.0681315327688026
1658790024862360,1.1902037079423735,0.213626306553806,-0.2746623941404778
1658790024878353,-0.33569848172737693,-1.1291676203554744,-0.6408789196611906
1658790024894346,-0.8850232700083325,-1.9226367589837992,-0.2746623941404778
1658790024910339,-0.7019150072480898,-0.9460593575952316,0.03051804379333589
1658790024926332,-0.7629510948347615,0.15259021896690683,-0.03051804379333589
1658790024942325,-1.0681315327688026,-0.8239871824216607,-0.213626306553806
1658790024958318,1.739528496223329,-2.227817196917613,-0.6408789196611906
1658790024974212,1.4953841458761872,-2.8381780727854675,-0.213626306553806
1658790024990205,-0.7019150072480898,-3.2043945983061803,0.5798428320745188
1658790025006198,-1.4953841458761872,-2.5940337224383256,0.213626306553806
1658790025022190,-1.0070954451819034,-2.105745021744042,0.09155413138023505
1658790025038183,0.6408789196611906,-1.9226367589837992,0.03051804379333589
1658790025054175,1.6784924086366573,-1.9226367589837992,0.2746623941404778
1658790025070168,0.7019150072480898,-1.739528496223329,-0.03051804379333589
1658790025086161,1.3122758831159445,-1.4953841458761872,-0.33569848172737693
1658790025102153,1.8005645838102282,-2.04470893415737,-0.213626306553806
1658790025118146,1.9226367589837992,-2.04470893415737,-0.03051804379333589
1658790025134139,1.6174563210497581,-2.04470893415737,0.2746623941404778
1658790025150131,0.5188067444876197,-2.166781109330941,0.5798428320745188
1658790025166124,0.45777065690094787,-2.105745021744042,0.7019150072480898
1658790025182117,-0.7019150072480898,-1.8616006713969,0.5798428320745188
1658790025198109,-1.1902037079423735,-1.1902037079423735,0.7019150072480898
1658790025214102,-0.7629510948347615,-0.2746623941404778,0.8239871824216607
1658790025230095,0.5798428320745188,0.3967345693140487,1.0070954451819034
1658790025246087,2.532997634851654,0.213626306553806,0.6408789196611906
1658790025262080,1.3733119707026162,0.03051804379333589,0.09155413138023505
1658790025278072,0.6408789196611906,-0.7019150072480898,-0.5188067444876197
1658790025293945,0.8850232700083325,-0.33569848172737693,-0.45777065690094787
1658790025309937,2.04470893415737,-0.03051804379333589,0.03051804379333589
1658790025325929,3.7537193865873633,-0.03051804379333589,-0.09155413138023505
1658790025341921,2.8992141603723667,-0.6408789196611906,-0.2746623941404778
1658790025357914,0.45777065690094787,-0.5188067444876197,-0.9460593575952316
1658790025373906,-1.2512397955290453,-0.33569848172737693,-1.5564202334630863
1658790025389898,-0.7629510948347615,-0.09155413138023505,-1.1902037079423735
1658790025405890,0.213626306553806,0.45777065690094787,-0.6408789196611906
1658790025421882,0.6408789196611906,0.9460593575952316,-0.5798428320745188
1658790025437874,1.739528496223329,0.7629510948347615,-1.2512397955290453
1658790025453867,3.814755474174035,0.15259021896690683,-1.739528496223329
1658790025469859,3.4485389486533222,-0.45777065690094787,-1.9226367589837992
1658790025485851,1.8616006713969,-2.410925459678083,-2.04470893415737
1658790025501843,-0.3967345693140487,-2.9602502479590385,-1.739528496223329
1658790025517835,-2.227817196917613,-2.105745021744042,-1.0681315327688026
1658790025533827,-2.5940337224383256,-0.7629510948347615,-1.3733119707026162
1658790025549820,-0.7629510948347615,-0.45777065690094787,-1.4343480582895154
1658790025565812,1.0070954451819034,-0.7629510948347615,-1.2512397955290453
1658790025581804,0.213626306553806,-1.1902037079423735,-0.7629510948347615
1658790025597796,-0.7629510948347615,-1.1902037079423735,-0.6408789196611906
1658790025613708,-0.3967345693140487,-0.9460593575952316,-0.5188067444876197
1658790025629700,1.8616006713969,-1.1291676203554744,-0.5798428320745188
1658790025645692,3.6316472114137923,-1.6784924086366573,-0.6408789196611906
1658790025661685,3.4485389486533222,-2.105745021744042,-0.09155413138023505
1658790025677677,1.9226367589837992,-1.5564202334630863,0.03051804379333589
1658790025693669,1.3733119707026162,-0.9460593575952316,-0.33569848172737693
1658790025709661,1.8005645838102282,-0.8850232700083325,-0.5188067444876197
1658790025725653,0.45777065690094787,-1.1291676203554744,-0.09155413138023505
1658790025741645,-1.5564202334630863,-0.7019150072480898,-0.6408789196611906
1658790025757638,-0.3967345693140487,-0.7019150072480898,-0.2746623941404778
1658790025773630,1.983672846570471,-1.2512397955290453,-0.5188067444876197
1658790025789622,3.0212863355459376,-1.3733119707026162,-1.1291676203554744
1658790025805614,0.5798428320745188,-1.2512397955290453,-1.3122758831159445
1658790025821606,0.5188067444876197,-1.0070954451819034,-1.1902037079423735
1658790025837598,0.09155413138023505,-0.45777065690094787,-0.5188067444876197
1658790025853591,0.45777065690094787,0.3967345693140487,-0.33569848172737693
1658790025869583,2.4719615472647547,0.45777065690094787,-0.33569848172737693
1658790025885575,2.8992141603723667,-0.45777065690094787,-1.0070954451819034
1658790025901567,1.6784924086366573,-0.45777065690094787,-1.3122758831159445
1658790025917559,-0.15259021896690683,-0.2746623941404778,-0.6408789196611906
1658790025933502,-0.3967345693140487,-0.03051804379333589,-0.33569848172737693
1658790025949494,0.45777065690094787,0.09155413138023505,-0.5798428320745188
1658790025965485,0.8239871824216607,-0.213626306553806,-0.8850232700083325
1658790025981477,2.227817196917613,-0.7629510948347615,-1.4343480582895154
1658790025997469,2.105745021744042,-2.288853284504512,-0.8239871824216607
1658790026013460,3.0212863355459376,-2.227817196917613,0.5188067444876197
1658790026029452,3.814755474174035,-1.8005645838102282,1.4343480582895154
1658790026045444,5.523765926604028,-1.6784924086366573,2.532997634851654
1658790026061435,4.242008087281647,-1.739528496223329,3.4485389486533222
1658790026077427,0.15259021896690683,-1.8616006713969,3.814755474174035
1658790026093419,-9.369039444571627,-4.180971999694748,3.570611123826893
1658790026109410,-10.406652933546866,-5.523765926604028,3.2654306858930795
1658790026125402,-8.270389868009488,-4.486152437628789,2.532997634851654
1658790026141394,-6.622415503166167,-1.4343480582895154,1.6784924086366573
1658790026157385,-3.6316472114137923,1.0681315327688026,0.9460593575952316
1658790026173377,-0.03051804379333589,1.3733119707026162,0.213626306553806
1658790026189369,2.04470893415737,2.105745021744042,0.33569848172737693
1658790026205361,3.0823224231326094,1.9226367589837992,1.0070954451819034
1658790026221352,1.1902037079423735,1.983672846570471,0.7019150072480898
1658790026237344,2.288853284504512,1.8005645838102282,-0.2746623941404778
1658790026253234,4.180971999694748,0.3967345693140487,-0.7019150072480898
1658790026269226,2.105745021744042,-1.1291676203554744,-0.2746623941404778
1658790026285217,-1.8616006713969,-0.8239871824216607,-0.3967345693140487
1658790026301208,-3.4485389486533222,1.0070954451819034,-0.5798428320745188
1658790026317199,-0.8850232700083325,1.983672846570471,-0.5798428320745188
1658790026333191,2.227817196917613,2.166781109330941,-0.5188067444876197
1658790026349182,2.410925459678083,1.6174563210497581,-1.0070954451819034
1658790026365173,-1.3733119707026162,0.6408789196611906,-1.5564202334630863
1658790026381164,-0.213626306553806,0.09155413138023505,-1.8005645838102282
1658790026397155,3.7537193865873633,-0.2746623941404778,-1.2512397955290453
1658790026413147,4.42511635004189,-0.8850232700083325,-0.9460593575952316
1658790026429138,2.655069810025225,-0.9460593575952316,-0.9460593575952316
1658790026445129,-0.5188067444876197,-1.1291676203554744,-0.2746623941404778
1658790026461120,-0.213626306553806,-1.0681315327688026,-0.8239871824216607
1658790026477111,1.3733119707026162,-0.6408789196611906,-1.1902037079423735
1658790026493103,0.213626306553806,-1.0070954451819034,-0.6408789196611906
1658790026509094,-0.09155413138023505,-0.45777065690094787,-1.0070954451819034
1658790026525085,-0.8850232700083325,-0.6408789196611906,-0.9460593575952316
1658790026541076,0.8850232700083325,-1.1902037079423735,-1.0070954451819034
1658790026557067,5.157549401083315,-1.3122758831159445,-2.105745021744042
1658790026572998,6.195162890058782,-1.4953841458761872,-2.3498893720911838
1658790026588989,5.401693751430457,-1.6174563210497581,-2.227817196917613
1658790026604980,1.4953841458761872,-1.6784924086366573,-1.739528496223329
1658790026620971,-0.45777065690094787,-1.0681315327688026,-1.1291676203554744
1658790026636963,-0.3967345693140487,-0.7629510948347615,-0.9460593575952316
1658790026652954,1.5564202334630863,-1.0681315327688026,-1.0070954451819034
1658790026668945,3.3264667734797513,-1.0681315327688026,-1.1902037079423735
1658790026684936,1.6784924086366573,-1.3733119707026162,-1.8005645838102282
1658790026700927,-0.5798428320745188,-1.0070954451819034,-1.983672846570471
1658790026716919,-0.9460593575952316,-0.9460593575952316,-1.6174563210497581
1658790026732910,1.3122758831159445,-1.0681315327688026,-1.4953841458761872
1658790026748901,4.547188525215461,-0.8850232700083325,-1.6174563210497581
1658790026764892,4.364080262455218,-0.8850232700083325,-1.8616006713969
1658790026780883,1.5564202334630863,-1.0070954451819034,-1.1902037079423735
1658790026796875,0.8239871824216607,-0.5798428320745188,-0.45777065690094787
1658790026812866,2.7771419851987957,-0.33569848172737693,-0.09155413138023505
1658790026828857,3.814755474174035,-0.5798428320745188,-0.45777065690094787
1658790026844848,3.570611123826893,-1.1902037079423735,-0.8850232700083325
1658790026860839,0.5188067444876197,-1.8005645838102282,-0.45777065690094787
1658790026876831,-0.8239871824216607,-1.4343480582895154,0.15259021896690683
1658790026892730,-0.2746623941404778,-1.2512397955290453,0.8850232700083325
1658790026908721,0.03051804379333589,-0.5188067444876197,0.7629510948347615
1658790026924712,-0.15259021896690683,0.15259021896690683,0.3967345693140487
1658790026940703,0.8850232700083325,0.45777065690094787,0.8850232700083325
1658790026956693,3.6316472114137923,1.4343480582895154,0.8850232700083325
1658790026972684,5.157549401083315,2.166781109330941,1.1291676203554744
1658790026988675,5.2185854886702145,1.8005645838102282,1.5564202334630863
1658790027004665,1.6784924086366573,0.5188067444876197,0.8239871824216607
1658790027020656,1.4343480582895154,-0.09155413138023505,-0.03051804379333589
1658790027036647,1.3733119707026162,-0.03051804379333589,0.33569848172737693
1658790027052638,-0.33569848172737693,0.213626306553806,1.5564202334630863
1658790027068628,-3.4485389486533222,0.8850232700083325,1.983672846570471
1658790027084619,-4.119935912108076,0.9460593575952316,1.9226367589837992
1658790027100610,-3.0823224231326094,0.09155413138023505,1.8005645838102282
1658790027116601,1.6174563210497581,0.213626306553806,1.2512397955290453
1658790027132591,3.1433585107195086,0.09155413138023505,0.213626306553806
1658790027148582,1.5564202334630863,-0.33569848172737693,-0.2746623941404778
1658790027164573,0.45777065690094787,-0.45777065690094787,0.15259021896690683
1658790027180564,-0.8239871824216607,-0.3967345693140487,0.15259021896690683
1658790027196554,0.03051804379333589,0.09155413138023505,-0.33569848172737693
1658790027212463,0.7019150072480898,-0.15259021896690683,-0.33569848172737693
1658790027228454,-0.5798428320745188,-0.33569848172737693,-0.2746623941404778
1658790027244444,-1.739528496223329,-0.03051804379333589,0.09155413138023505
1658790027260435,-0.15259021896690683,0.5188067444876197,-0.5188067444876197
1658790027276426,1.2512397955290453,0.7629510948347615,-0.5798428320745188
1658790027292417,2.7161058976118966,0.45777065690094787,0.09155413138023505
1658790027308407,3.3875028610666504,0.15259021896690683,0.03051804379333589
1658790027324398,3.5095750362402214,0.7629510948347615,-0.8239871824216607
1658790027340389,2.5940337224383256,0.2746623941404778,-1.739528496223329
1658790027356380,3.3875028610666504,0.03051804379333589,-1.739528496223329
1658790027372370,4.791332875562603,0.33569848172737693,-0.7019150072480898
1658790027388361,3.4485389486533222,0.03051804379333589,-0.33569848172737693
1658790027404352,0.2746623941404778,-0.3967345693140487,-0.3967345693140487
1658790027420343,-2.8381780727854675,-0.33569848172737693,-0.03051804379333589
1658790027436333,-1.4953841458761872,-0.45777065690094787,-0.3967345693140487
1658790027452324,-0.15259021896690683,-0.5798428320745188,-0.6408789196611906
1658790027468315,1.5564202334630863,-0.7629510948347615,-0.5798428320745188
1658790027484305,3.0823224231326094,-0.7019150072480898,-0.2746623941404778
1658790027500296,2.532997634851654,-1.0070954451819034,0.213626306553806
1658790027516287,0.8850232700083325,-1.2512397955290453,-0.03051804379333589
1658790027532226,0.8239871824216607,-0.6408789196611906,-0.7629510948347615
1658790027548216,1.3122758831159445,-0.8850232700083325,-0.6408789196611906
1658790027564207,-0.3967345693140487,-0.8239871824216607,-0.3967345693140487
1658790027580197,-0.3967345693140487,-0.2746623941404778,-0.6408789196611906
1658790027596187,-0.3967345693140487,-0.5798428320745188,-0.5798428320745188
1658790027612177,-0.2746623941404778,-0.7629510948347615,-1.1291676203554744
1658790027628168,0.8850232700083325,-0.6408789196611906,-1.0070954451819034
1658790027644158,1.3733119707026162,-1.0681315327688026,-0.8850232700083325
1658790027660148,2.04470893415737,-0.33569848172737693,-0.5798428320745188
1658790027676139,1.9226367589837992,-0.2746623941404778,-0.8850232700083325
1658790027692129,2.5940337224383256,-0.7629510948347615,-1.1902037079423735
1658790027708119,3.570611123826893,-1.1291676203554744,-1.1291676203554744
1658790027724109,2.288853284504512,-1.0681315327688026,-0.8239871824216607
1658790027740100,-0.03051804379333589,-1.2512397955290453,-0.8239871824216607
1658790027756090,-2.532997634851654,-1.1902037079423735,-0.6408789196611906
1658790027772080,-1.5564202334630863,-0.45777065690094787,-0.45777065690094787
1658790027788070,1.983672846570471,-0.5798428320745188,-0.15259021896690683
1658790027804061,2.9602502479590385,-0.7629510948347615,-1.0070954451819034
1658790027820051,1.3733119707026162,-0.213626306553806,-1.4953841458761872
1658790027836041,0.213626306553806,-0.7019150072480898,-1.0681315327688026
1658790027851989,0.7019150072480898,-1.1902037079423735,-0.03051804379333589
1658790027867980,1.3733119707026162,-0.7019150072480898,0.7019150072480898
1658790027883970,2.410925459678083,-0.45777065690094787,0.5188067444876197
1658790027899960,2.8992141603723667,-0.7629510948347615,-0.5188067444876197
1658790027915950,3.0823224231326094,-1.3122758831159445,-1.1902037079423735
1658790027931941,0.45777065690094787,-1.4343480582895154,-1.3122758831159445
1658790027947931,-1.8005645838102282,-0.8239871824216607,-0.7629510948347615
1658790027963921,-1.3122758831159445,0.15259021896690683,-0.213626306553806
1658790027979911,0.09155413138023505,0.5188067444876197,-1.0070954451819034
1658790027995902,2.5940337224383256,0.15259021896690683,-0.8850232700083325
1658790028011892,2.655069810025225,-0.8850232700083325,-0.7019150072480898
1658790028027882,0.3967345693140487,-1.0070954451819034,-0.5798428320745188
1658790028043872,1.1291676203554744,-0.8850232700083325,-0.33569848172737693
1658790028059863,2.4719615472647547,-0.8239871824216607,-0.9460593575952316
1658790028075853,2.8992141603723667,-0.8850232700083325,-1.2512397955290453
1658790028091843,1.4953841458761872,-1.2512397955290453,-1.1902037079423735
1658790028107833,-0.33569848172737693,-0.45777065690094787,-0.8239871824216607
1658790028123824,-1.1902037079423735,0.45777065690094787,-0.7019150072480898
1658790028139814,-1.4343480582895154,0.7019150072480898,-0.7629510948347615
1658790028155804,0.15259021896690683,0.45777065690094787,-1.4953841458761872
1658790028171753,1.739528496223329,0.7629510948347615,-1.6174563210497581
1658790028187742,2.9602502479590385,1.983672846570471,-1.4953841458761872
1658790028203732,4.852368963149502,1.8616006713969,-0.9460593575952316
1658790028219722,5.584802014190927,0.5798428320745188,-0.5798428320745188
1658790028235712,5.584802014190927,-0.5798428320745188,-1.0070954451819034
1658790028251701,3.3264667734797513,-1.739528496223329,-0.7019150072480898
1658790028267691,0.45777065690094787,-1.8005645838102282,0.2746623941404778
1658790028283681,-1.0681315327688026,-0.7019150072480898,1.4343480582895154
1658790028299671,1.0681315327688026,-0.09155413138023505,1.3733119707026162
1658790028315661,1.8005645838102282,-0.5188067444876197,0.8239871824216607
1658790028331650,1.8005645838102282,-1.0070954451819034,0.15259021896690683
1658790028347640,0.5188067444876197,-1.4343480582895154,-0.03051804379333589
1658790028363630,0.09155413138023505,-1.2512397955290453,0.213626306553806
1658790028379620,2.04470893415737,-0.7019150072480898,0.3967345693140487
1658790028395609,3.692683299000464,-0.7019150072480898,-0.03051804379333589
1658790028411599,3.3875028610666504,-1.0070954451819034,-0.8850232700083325
1658790028427589,2.3498893720911838,-0.7019150072480898,-0.5798428320745188
1658790028443579,2.105745021744042,0.09155413138023505,-0.2746623941404778
1658790028459569,2.8381780727854675,-0.6408789196611906,-0.213626306553806
1658790028475558,2.166781109330941,-1.4953841458761872,-0.3967345693140487
1658790028491485,-0.5798428320745188,-1.0070954451819034,-0.5798428320745188
1658790028507475,-0.3967345693140487,0.03051804379333589,-0.8239871824216607
1658790028523465,1.1291676203554744,0.3967345693140487,-1.3122758831159445
1658790028539455,0.8850232700083325,0.8850232700083325,-2.105745021744042
1658790028555444,1.8616006713969,1.4953841458761872,-2.410925459678083
1658790028571434,0.8850232700083325,1.0070954451819034,-2.4719615472647547
1658790028587424,1.0681315327688026,1.8616006713969,-2.5940337224383256
1658790028603414,3.0212863355459376,1.3122758831159445,-2.3498893720911838
1658790028619403,5.2185854886702145,-0.15259021896690683,-1.0070954451819034
1658790028635393,5.279621576256886,-0.5798428320745188,-0.03051804379333589
1658790028651383,3.7537193865873633,-0.6408789196611906,0.03051804379333589
1658790028667373,2.5940337224383256,-0.45777065690094787,0.09155413138023505
1658790028683363,1.739528496223329,-0.7019150072480898,-0.03051804379333589
1658790028699352,0.8239871824216607,-1.3122758831159445,-0.03051804379333589
1658790028715342,-1.5564202334630863,-1.8616006713969,-0.3967345693140487
1658790028731332,-1.0070954451819034,-1.2512397955290453,-1.0681315327688026
1658790028747322,0.45777065690094787,-0.8239871824216607,-0.2746623941404778
1658790028763311,2.410925459678083,-1.4953841458761872,0.5188067444876197
1658790028779301,2.8992141603723667,-1.1902037079423735,0.5798428320745188
1658790028795291,2.105745021744042,-0.9460593575952316,0.6408789196611906
1658790028811248,1.8005645838102282,-1.1902037079423735,0.5188067444876197
1658790028827238,1.1902037079423735,-1.8616006713969,0.45777065690094787
1658790028843227,-0.8850232700083325,-1.8005645838102282,1.0070954451819034
1658790028859216,-2.04470893415737,-0.8850232700083325,0.9460593575952316
1658790028875206,-2.4719615472647547,-1.1291676203554744,0.5188067444876197
1658790028891195,-1.4953841458761872,-1.8005645838102282,0.03051804379333589
1658790028907184,-1.1291676203554744,-1.8005645838102282,0.2746623941404778
1658790028923174,-2.410925459678083,-1.5564202334630863,0.8850232700083325
1658790028939163,-2.288853284504512,-1.3733119707026162,0.45777065690094787
1658790028955152,-0.09155413138023505,-1.6174563210497581,-0.09155413138023505
1658790028971141,1.0681315327688026,-2.7161058976118966,-0.5188067444876197
1658790028987131,0.09155413138023505,-2.3498893720911838,-0.2746623941404778
1658790029003120,-2.3498893720911838,-0.9460593575952316,-0.15259021896690683
1658790029019109,-1.8005645838102282,0.09155413138023505,-0.9460593575952316
1658790029035099,1.1902037079423735,-0.33569848172737693,-1.1291676203554744
1658790029051088,2.655069810025225,-0.7629510948347615,-1.3733119707026162
1658790029067077,1.3733119707026162,-0.5188067444876197,-1.4953841458761872
1658790029083067,-1.2512397955290453,-0.7629510948347615,-1.739528496223329
1658790029099056,-1.5564202334630863,-0.6408789196611906,-1.8005645838102282
1658790029115045,1.3733119707026162,-0.33569848172737693,-1.2512397955290453
1658790029130981,1.983672846570471,-0.33569848172737693,-0.5798428320745188
1658790029146970,1.0070954451819034,-0.6408789196611906,-0.5798428320745188
1658790029162960,0.7629510948347615,-0.213626306553806,-1.5564202334630863
1658790029178949,1.2512397955290453,-0.2746623941404778,-1.4343480582895154
1658790029194938,1.0070954451819034,-1.0070954451819034,-0.9460593575952316
1658790029210928,-0.8239871824216607,-0.213626306553806,-0.2746623941404778
1658790029226917,-2.166781109330941,0.03051804379333589,0.09155413138023505
1658790029242906,1.1902037079423735,-0.33569848172737693,-0.213626306553806
1658790029258895,3.2654306858930795,-0.8850232700083325,-0.6408789196611906
1658790029274885,3.7537193865873633,-1.1902037079423735,-1.0070954451819034
1658790029290874,0.2746623941404778,-1.3122758831159445,-0.5798428320745188
1658790029306863,-0.8850232700083325,-0.3967345693140487,0.03051804379333589
1658790029322853,-1.2512397955290453,-0.3967345693140487,0.5798428320745188
1658790029338842,0.03051804379333589,-0.45777065690094787,0.7629510948347615
1658790029354831,-0.5798428320745188,-1.0681315327688026,0.33569848172737693
1658790029370821,0.45777065690094787,-1.739528496223329,-0.7629510948347615
1658790029386810,2.532997634851654,-1.3122758831159445,-1.0681315327688026
1658790029402799,1.4343480582895154,-1.739528496223329,-1.1291676203554744
1658790029418789,-1.0070954451819034,-1.739528496223329,-0.09155413138023505
1658790029434778,-3.0212863355459376,-1.4343480582895154,0.3967345693140487
1658790029450744,-1.2512397955290453,-0.7019150072480898,0.15259021896690683
1658790029466734,2.8992141603723667,-1.0070954451819034,-0.33569848172737693
1658790029482723,3.7537193865873633,-1.5564202334630863,-0.5798428320745188
1658790029498712,2.8381780727854675,-1.5564202334630863,-0.6408789196611906
1658790029514701,1.8005645838102282,-1.0681315327688026,-0.2746623941404778
1658790029530691,-0.2746623941404778,-1.4343480582895154,0.09155413138023505
1658790029546680,-1.9226367589837992,-1.3733119707026162,-0.03051804379333589
1658790029562669,-0.6408789196611906,-1.0681315327688026,-0.03051804379333589
1658790029578659,-0.213626306553806,-1.1902037079423735,0.3967345693140487
1658790029594648,0.2746623941404778,-1.1902037079423735,0.45777065690094787
1658790029610637,0.213626306553806,-1.3733119707026162,0.33569848172737693
1658790029626627,-0.8239871824216607,-0.6408789196611906,0.3967345693140487
1658790029642616,-1.0681315327688026,-1.6784924086366573,0.7019150072480898
1658790029658605,-0.45777065690094787,-2.288853284504512,0.33569848172737693
1658790029674595,-0.9460593575952316,-2.7771419851987957,0.7629510948347615
1658790029690584,-6.073090714885211,-4.852368963149502,0.9460593575952316
1658790029706573,-7.232776379034021,-4.547188525215461,0.33569848172737693
1658790029722562,-4.058899824521177,-2.655069810025225,0.3967345693140487
1658790029738552,-2.8381780727854675,-1.1902037079423735,1.5564202334630863
1658790029754541,-1.8005645838102282,0.15259021896690683,2.288853284504512
1658790029770477,-3.2654306858930795,-0.5798428320745188,2.5940337224383256
1658790029786466,0.03051804379333589,-1.4953841458761872,2.04470893415737
1658790029802455,2.9602502479590385,-1.3122758831159445,1.6174563210497581
1658790029818443,3.814755474174035,-0.7629510948347615,1.4953841458761872
1658790029834432,2.8992141603723667,-0.03051804379333589,0.9460593575952316
1658790029850421,1.6784924086366573,-1.3122758831159445,0.5188067444876197
1658790029866410,2.7771419851987957,-1.4953841458761872,-0.03051804379333589
1658790029882399,2.8992141603723667,-0.8239871824216607,-0.3967345693140487
1658790029898388,-0.33569848172737693,-0.213626306553806,-0.15259021896690683
1658790029914376,-2.8381780727854675,-0.213626306553806,0.2746623941404778
1658790029930365,-1.6784924086366573,0.15259021896690683,0.213626306553806
1658790029946354,-0.33569848172737693,-0.15259021896690683,-0.5188067444876197
1658790029962343,0.213626306553806,-0.09155413138023505,-1.6784924086366573
1658790029978332,-0.6408789196611906,-1.2512397955290453,-1.9226367589837992
1658790029994320,2.532997634851654,-1.0681315327688026,-1.1291676203554744
1658790030010309,4.364080262455218,-0.5798428320745188,-0.8850232700083325
1658790030026298,4.119935912108076,-0.03051804379333589,-1.4953841458761872
1658790030042287,2.532997634851654,-0.45777065690094787,-1.8616006713969
1658790030058276,3.3264667734797513,-0.8850232700083325,-1.983672846570471
1658790030074265,2.410925459678083,-0.6408789196611906,-1.5564202334630863
1658790030090271,1.3733119707026162,0.15259021896690683,-1.5564202334630863
1658790030106259,-1.2512397955290453,0.09155413138023505,-1.6784924086366573
1658790030122248,1.3733119707026162,0.213626306553806,-1.8616006713969
1658790030138237,3.0823224231326094,-0.15259021896690683,-1.8616006713969
1658790030154226,2.7771419851987957,0.213626306553806,-2.105745021744042
1658790030170215,3.0212863355459376,0.213626306553806,-1.983672846570471
1658790030186204,1.9226367589837992,-0.15259021896690683,-1.4953841458761872
1658790030202192,1.0070954451819034,-0.6408789196611906,-1.5564202334630863
1658790030218181,3.0823224231326094,-0.7019150072480898,-0.7019150072480898
1658790030234170,4.058899824521177,-0.03051804379333589,-0.8850232700083325
1658790030250159,1.6174563210497581,-0.3967345693140487,-1.1291676203554744
1658790030266148,0.5188067444876197,-0.9460593575952316,-1.0681315327688026
1658790030282137,1.983672846570471,-0.5798428320745188,-0.8850232700083325
1658790030298125,3.5095750362402214,0.5798428320745188,-0.3967345693140487
1658790030314114,1.983672846570471,0.33569848172737693,0.03051804379333589
1658790030330103,-4.364080262455218,-1.1291676203554744,0.45777065690094787
1658790030346092,-6.256198977645454,-1.8616006713969,0.5798428320745188
1658790030362081,-4.547188525215461,-2.04470893415737,0.8850232700083325
1658790030378070,-4.058899824521177,-2.04470893415737,1.0681315327688026
1658790030394058,-4.730296787975931,-1.0681315327688026,1.0070954451819034
1658790030410034,-2.3498893720911838,-0.5188067444876197,1.2512397955290453
1658790030426023,-0.33569848172737693,-0.7019150072480898,1.1291676203554744
1658790030442011,-1.0070954451819034,-1.0070954451819034,0.8850232700083325
1658790030458000,-1.739528496223329,-0.8239871824216607,1.1902037079423735
1658790030473989,0.8239871824216607,-0.3967345693140487,1.983672846570471
1658790030489978,2.4719615472647547,-0.5798428320745188,1.8005645838102282
1658790030505967,2.166781109330941,-1.3733119707026162,0.8239871824216607
1658790030521956,1.6784924086366573,-2.105745021744042,0.3967345693140487
1658790030537944,-0.03051804379333589,-2.7161058976118966,0.5188067444876197
1658790030553933,-1.3733119707026162,-2.105745021744042,0.8850232700083325
1658790030569922,-1.1291676203554744,-1.6174563210497581,1.6174563210497581
1658790030585911,-0.45777065690094787,-1.6784924086366573,1.983672846570471
1658790030601900,0.3967345693140487,-1.8005645838102282,1.1291676203554744
1658790030617889,0.8850232700083325,-1.3733119707026162,0.15259021896690683
1658790030633877,1.6784924086366573,-1.739528496223329,-0.09155413138023505
1658790030649866,0.8850232700083325,-2.532997634851654,-0.09155413138023505
1658790030665855,-0.7019150072480898,-2.9602502479590385,-0.5798428320745188
1658790030681844,-1.0681315327688026,-2.5940337224383256,-1.3122758831159445
1658790030697833,-0.9460593575952316,-1.8005645838102282,-1.0681315327688026
1658790030713822,-1.6784924086366573,-1.5564202334630863,-0.7019150072480898
1658790030729766,-1.983672846570471,-0.7019150072480898,-0.3967345693140487
1658790030745755,0.8239871824216607,-0.5188067444876197,-0.2746623941404778
1658790030761744,2.288853284504512,-0.7629510948347615,-0.8850232700083325
1658790030777733,1.8005645838102282,-1.2512397955290453,-1.5564202334630863
1658790030793722,2.04470893415737,-2.4719615472647547,-1.6784924086366573
1658790030809711,1.8616006713969,-1.8616006713969,-1.1902037079423735
1658790030825699,1.6174563210497581,-1.6784924086366573,-1.2512397955290453
1658790030841688,3.1433585107195086,-1.6784924086366573,-1.8616006713969
1658790030857677,3.1433585107195086,-1.1291676203554744,-1.3733119707026162
1658790030873666,1.9226367589837992,-0.33569848172737693,-1.6174563210497581
1658790030889655,1.0070954451819034,0.6408789196611906,-1.4953841458761872
1658790030905644,1.6784924086366573,0.03051804379333589,-1.0070954451819034
1658790030921632,3.4485389486533222,0.15259021896690683,-0.8239871824216607
1658790030937621,3.7537193865873633,0.7019150072480898,-0.9460593575952316
1658790030953610,2.04470893415737,0.09155413138023505,-1.1291676203554744
1658790030969599,1.9226367589837992,-0.5798428320745188,-1.0070954451819034
1658790030985588,3.1433585107195086,-0.33569848172737693,-0.9460593575952316
1658790031001577,2.7161058976118966,0.15259021896690683,-1.4953841458761872
1658790031017565,2.04470893415737,0.213626306553806,-1.5564202334630863
1658790031033554,0.5798428320745188,0.3967345693140487,-1.1291676203554744
1658790031049530,0.3967345693140487,0.2746623941404778,-1.0681315327688026
1658790031065518,0.8239871824216607,0.03051804379333589,-0.8239871824216607
1658790031081507,0.6408789196611906,-0.15259021896690683,-1.0070954451819034
1658790031097496,1.4953841458761872,0.03051804379333589,-1.2512397955290453
1658790031113485,1.1291676203554744,-0.7629510948347615,-0.7019150072480898
1658790031129474,1.739528496223329,-0.7629510948347615,-0.2746623941404778
1658790031145463,1.983672846570471,-0.2746623941404778,0.09155413138023505
1658790031161451,0.7629510948347615,-0.2746623941404778,-0.3967345693140487
1658790031177440,-1.8005645838102282,-1.3733119707026162,-1.1291676203554744
1658790031193429,-1.2512397955290453,-1.739528496223329,-1.1902037079423735
1658790031209418,-1.0681315327688026,-0.8850232700083325,-0.3967345693140487
1658790031225407,-0.09155413138023505,-0.2746623941404778,1.0070954451819034
1658790031241396,1.4953841458761872,-0.6408789196611906,1.739528496223329
1658790031257384,2.288853284504512,-1.1291676203554744,1.4343480582895154
1658790031273373,4.058899824521177,-0.5798428320745188,0.7019150072480898
1658790031289362,2.7161058976118966,-0.5798428320745188,0.5188067444876197
1658790031305351,1.3733119707026162,-0.9460593575952316,0.8239871824216607
1658790031321340,1.0070954451819034,-1.3122758831159445,1.1291676203554744
1658790031337329,0.45777065690094787,-1.3122758831159445,1.2512397955290453
1658790031353317,-0.9460593575952316,-1.0681315327688026,0.9460593575952316
1658790031369262,-2.04470893415737,-1.2512397955290453,0.7019150072480898
1658790031385251,-0.9460593575952316,-1.0681315327688026,0.15259021896690683
1658790031401239,0.45777065690094787,-1.4953841458761872,-0.09155413138023505
1658790031417227,1.6784924086366573,-1.739528496223329,-0.213626306553806
1658790031433216,1.1291676203554744,-1.3122758831159445,-1.1291676203554744
1658790031449204,0.7019150072480898,-0.8239871824216607,-1.6784924086366573
1658790031465192,0.8850232700083325,-0.7019150072480898,-1.4343480582895154
1658790031481181,2.532997634851654,-0.7019150072480898,-1.4343480582895154
1658790031497169,3.3875028610666504,-0.213626306553806,-1.2512397955290453
1658790031513157,2.532997634851654,-0.45777065690094787,-1.6784924086366573
1658790031529146,1.6174563210497581,-0.8850232700083325,-1.6784924086366573
1658790031545134,-0.5188067444876197,-0.7629510948347615,-1.3733119707026162
1658790031561123,-1.1291676203554744,-0.09155413138023505,-1.1291676203554744
1658790031577111,-0.33569848172737693,0.45777065690094787,-0.6408789196611906
1658790031593099,2.288853284504512,0.7629510948347615,-1.1902037079423735
1658790031609088,3.0212863355459376,0.09155413138023505,-2.04470893415737
1658790031625076,3.814755474174035,-0.15259021896690683,-2.288853284504512
1658790031641064,2.4719615472647547,-0.3967345693140487,-1.9226367589837992
1658790031657053,0.03051804379333589,-0.3967345693140487,-1.3733119707026162
1658790031673041,0.03051804379333589,-0.5188067444876197,-1.0681315327688026
1658790031689026,1.4343480582895154,-0.33569848172737693,-1.1902037079423735
1658790031705014,2.166781109330941,-0.2746623941404778,-1.1291676203554744
1658790031721002,1.3733119707026162,-0.33569848172737693,-0.8850232700083325
1658790031736991,0.213626306553806,-0.45777065690094787,-0.5798428320745188
1658790031752979,0.8239871824216607,-0.7019150072480898,-0.5798428320745188
1658790031768967,0.5798428320745188,-1.2512397955290453,-0.8239871824216607
1658790031784956,0.8239871824216607,-1.0681315327688026,-0.7019150072480898
1658790031800944,-0.09155413138023505,-1.1902037079423735,-0.15259021896690683
1658790031816932,-0.15259021896690683,-0.8850232700083325,-0.09155413138023505
1658790031832921,1.3733119707026162,-1.0070954451819034,0.213626306553806
1658790031848909,2.410925459678083,-1.0681315327688026,0.6408789196611906
1658790031864897,1.3733119707026162,-0.2746623941404778,0.3967345693140487
1658790031880886,-0.5798428320745188,-0.2746623941404778,0.3967345693140487
1658790031896874,1.0681315327688026,-0.8239871824216607,0.2746623941404778
1658790031912862,2.410925459678083,-0.8239871824216607,-0.3967345693140487
1658790031928851,0.5798428320745188,-0.7629510948347615,-0.5798428320745188
1658790031944839,-1.3733119707026162,-1.6784924086366573,-0.5798428320745188
1658790031960827,-1.1902037079423735,-1.4953841458761872,-0.213626306553806
1658790031976816,1.1291676203554744,-0.8850232700083325,0.5798428320745188
1658790031992804,1.9226367589837992,-0.5798428320745188,0.5798428320745188
1658790032008758,1.3733119707026162,-0.8239871824216607,-0.2746623941404778
1658790032024747,1.983672846570471,-0.5798428320745188,-0.6408789196611906
1658790032040735,2.288853284504512,-0.45777065690094787,-0.15259021896690683
1658790032056723,1.9226367589837992,-0.2746623941404778,0.09155413138023505
1658790032072712,1.1902037079423735,-0.09155413138023505,-0.5188067444876197
1658790032088700,1.0070954451819034,-0.6408789196611906,-0.6408789196611906
1658790032104688,0.5798428320745188,-0.7019150072480898,-0.45777065690094787
1658790032120677,0.7019150072480898,-0.3967345693140487,-0.213626306553806
1658790032136665,-0.03051804379333589,-0.213626306553806,-0.09155413138023505
1658790032152653,0.33569848172737693,-0.45777065690094787,-0.15259021896690683
1658790032168642,-0.03051804379333589,-0.09155413138023505,0.33569848172737693
1658790032184630,1.1902037079423735,0.15259021896690683,-0.15259021896690683
1658790032200618,2.166781109330941,-0.5188067444876197,-0.7629510948347615
1658790032216607,1.8616006713969,-1.4953841458761872,-1.3122758831159445
1658790032232595,1.1902037079423735,-0.45777065690094787,-1.1291676203554744
1658790032248583,0.33569848172737693,0.213626306553806,-1.1902037079423735
1658790032264572,-0.33569848172737693,0.03051804379333589,-0.6408789196611906
1658790032280560,1.4343480582895154,0.09155413138023505,0.03051804379333589
1658790032296548,2.04470893415737,0.03051804379333589,0.09155413138023505
1658790032312537,1.6784924086366573,-0.213626306553806,-0.7019150072480898
1658790032328521,-0.5798428320745188,-0.7019150072480898,-0.8239871824216607
1658790032344510,-1.0681315327688026,-1.0070954451819034,-0.15259021896690683
1658790032360498,-0.09155413138023505,-0.5188067444876197,0.7629510948347615
1658790032376486,1.4343480582895154,-0.213626306553806,0.8850232700083325
1658790032392475,1.1291676203554744,0.213626306553806,-0.03051804379333589
1658790032408463,0.5188067444876197,-0.7629510948347615,-0.6408789196611906
1658790032424451,1.6174563210497581,-1.4343480582895154,-0.45777065690094787
1658790032440440,0.9460593575952316,-0.9460593575952316,-0.213626306553806
1658790032456428,-0.7019150072480898,0.09155413138023505,0.213626306553806
1658790032472417,-0.7019150072480898,-0.33569848172737693,-0.09155413138023505
1658790032488405,1.0070954451819034,-1.1291676203554744,-0.8850232700083325
1658790032504393,2.410925459678083,-2.04470893415737,-1.3122758831159445
1658790032520382,0.03051804379333589,-1.3733119707026162,-0.5798428320745188
1658790032536370,-0.213626306553806,-0.3967345693140487,-0.2746623941404778
1658790032552358,1.983672846570471,-0.33569848172737693,-0.8850232700083325
1658790032568347,3.6316472114137923,-0.5188067444876197,-1.4343480582895154
1658790032584335,3.0823224231326094,-0.7019150072480898,-1.9226367589837992
1658790032600323,-0.5188067444876197,0.09155413138023505,-1.5564202334630863
1658790032616312,-1.6784924086366573,0.15259021896690683,-0.8239871824216607
1658790032632300,1.9226367589837992,-0.5798428320745188,-0.8850232700083325
1658790032648285,2.8992141603723667,-0.7019150072480898,-1.0681315327688026
1658790032664273,2.227817196917613,-0.8850232700083325,-1.2512397955290453
1658790032680261,0.6408789196611906,-0.9460593575952316,-1.2512397955290453
1658790032696250,0.03051804379333589,-0.3967345693140487,-1.0070954451819034
1658790032712238,0.5798428320745188,0.03051804379333589,-0.8850232700083325
1658790032728226,2.7161058976118966,-0.3967345693140487,-0.7629510948347615
1658790032744215,2.105745021744042,-1.0070954451819034,-0.5798428320745188
1658790032760203,1.6174563210497581,-0.8239871824216607,-1.0681315327688026
1658790032776191,1.0070954451819034,-0.8850232700083325,-0.7629510948347615
1658790032792180,1.739528496223329,-1.1291676203554744,-0.2746623941404778
1658790032808168,2.227817196917613,-1.1291676203554744,0.2746623941404778
1658790032824156,1.2512397955290453,-0.6408789196611906,0.8850232700083325
1658790032840145,0.213626306553806,-0.09155413138023505,0.33569848172737693
1658790032856133,1.2512397955290453,-0.2746623941404778,-0.45777065690094787
1658790032872121,1.1902037079423735,-1.3733119707026162,-0.6408789196611906
1658790032888110,-0.09155413138023505,-1.6174563210497581,-0.15259021896690683
1658790032904098,-1.0681315327688026,-0.5798428320745188,0.09155413138023505
1658790032920086,-0.3967345693140487,-0.2746623941404778,-0.03051804379333589
1658790032936075,2.3498893720911838,-0.9460593575952316,-0.15259021896690683
1658790032952063,2.655069810025225,-1.1902037079423735,-0.15259021896690683
1658790032968017,0.5188067444876197,-0.7629510948347615,-0.09155413138023505
1658790032984005,-1.5564202334630863,-0.45777065690094787,-0.15259021896690683
1658790032999993,1.0681315327688026,-0.8850232700083325,-0.5188067444876197
1658790033015981,4.669260700389032,-1.4953841458761872,-1.1291676203554744
1658790033031969,3.6316472114137923,-1.983672846570471,-1.4343480582895154
1658790033047957,-0.213626306553806,-0.8850232700083325,-0.7629510948347615
1658790033063944,-2.9602502479590385,-0.9460593575952316,-0.45777065690094787
1658790033079932,0.8239871824216607,-1.3122758831159445,-0.6408789196611906
1658790033095920,1.5564202334630863,-1.6784924086366573,-0.45777065690094787
1658790033111908,0.33569848172737693,-1.1291676203554744,-0.6408789196611906
1658790033127896,-1.3733119707026162,-0.5798428320745188,-0.7019150072480898
1658790033143884,0.03051804379333589,-0.3967345693140487,-0.5798428320745188
1658790033159872,2.227817196917613,0.09155413138023505,-0.3967345693140487
1658790033175860,3.1433585107195086,-0.213626306553806,-0.5188067444876197
1658790033191847,1.4953841458761872,-0.5188067444876197,-1.1291676203554744
1658790033207835,-0.33569848172737693,-0.2746623941404778,-0.8239871824216607
1658790033223823,1.0070954451819034,0.03051804379333589,-0.15259021896690683
1658790033239811,1.5564202334630863,0.213626306553806,-0.15259021896690683
1658790033255799,-0.15259021896690683,0.213626306553806,-0.5188067444876197
1658790033271787,-0.2746623941404778,-0.2746623941404778,-0.33569848172737693
1658790033287750,0.8239871824216607,-0.7629510948347615,-0.2746623941404778
1658790033303738,-0.09155413138023505,-0.6408789196611906,-0.45777065690094787
1658790033319726,-0.7629510948347615,-0.33569848172737693,-0.7629510948347615
1658790033335713,0.5798428320745188,-0.03051804379333589,-1.3122758831159445
1658790033351701,2.227817196917613,-0.45777065690094787,-1.2512397955290453
1658790033367689,1.6174563210497581,-0.33569848172737693,-0.5798428320745188
1658790033383677,0.5188067444876197,0.09155413138023505,0.03051804379333589
1658790033399665,0.15259021896690683,0.213626306553806,-0.2746623941404778
1658790033415653,1.4343480582895154,0.09155413138023505,-0.7629510948347615
1658790033431641,1.5564202334630863,-0.6408789196611906,-1.0070954451819034
1658790033447629,-0.09155413138023505,-0.33569848172737693,-0.9460593575952316
1658790033463616,-1.6174563210497581,-0.15259021896690683,-0.2746623941404778
1658790033479604,-0.33569848172737693,-0.2746623941404778,-0.09155413138023505
1658790033495592,2.532997634851654,-0.3967345693140487,-0.33569848172737693
1658790033511580,1.6174563210497581,-0.5188067444876197,-0.09155413138023505
1658790033527568,-0.9460593575952316,-1.1291676203554744,-0.2746623941404778
1658790033543556,-0.03051804379333589,-0.9460593575952316,0.33569848172737693
1658790033559544,1.0681315327688026,-0.5798428320745188,1.3122758831159445
1658790033575532,1.0681315327688026,-0.6408789196611906,1.3733119707026162
1658790033591519,0.45777065690094787,-1.4953841458761872,1.4343480582895154
1658790033607483,0.2746623941404778,-2.105745021744042,1.1291676203554744
1658790033623470,0.03051804379333589,-1.8005645838102282,0.6408789196611906
1658790033639458,0.5798428320745188,-1.8005645838102282,0.7019150072480898
1658790033655446,-0.7019150072480898,-2.655069810025225,1.3733119707026162
1658790033671434,-2.227817196917613,-3.0212863355459376,2.166781109330941
1658790033687422,-2.3498893720911838,-2.655069810025225,3.0212863355459376
1658790033703410,-3.0212863355459376,-1.6174563210497581,2.7771419851987957
1658790033719398,-1.5564202334630863,-1.6784924086366573,2.8992141603723667
1658790033735386,1.4953841458761872,-2.8992141603723667,4.058899824521177
1658790033751373,2.7161058976118966,-2.9602502479590385,4.791332875562603
1658790033767361,1.0681315327688026,-1.5564202334630863,4.9134050507361735
1658790033783349,-0.7629510948347615,-1.0681315327688026,5.2185854886702145
1658790033799337,0.6408789196611906,-2.105745021744042,5.95101853971164
1658790033815325,1.1291676203554744,-3.692683299000464,6.012054627298312
1658790033831313,-0.213626306553806,-3.1433585107195086,6.134126802471883
1658790033847301,-2.8992141603723667,-2.227817196917613,7.843137254901876
1658790033863289,-0.45777065690094787,-1.5564202334630863,9.491111619745197
1658790033879276,2.105745021744042,-1.8616006713969,10.101472495613052
1658790033895264,3.2654306858930795,-2.166781109330941,11.07804989700162
1658790033911252,0.5798428320745188,-2.5940337224383256,12.298771648737329
1658790033927246,-0.5188067444876197,-2.7771419851987957,12.909132524605184
1658790033943234,1.739528496223329,-1.2512397955290453,13.702601663233281
1658790033959221,4.974441138323073,-1.1291676203554744,15.533684290836845
1658790033975209,6.683451590753066,-1.2512397955290453,15.960936903944457
1658790033991197,4.791332875562603,-1.5564202334630863,15.960936903944457
1658790034007185,1.1902037079423735,-2.8992141603723667,16.876478217746126
1658790034023173,0.213626306553806,-2.8992141603723667,17.48683909361398
1658790034039161,1.0070954451819034,-1.5564202334630863,18.524452582589447
1658790034055149,-0.09155413138023505,-1.739528496223329,19.623102159151586
1658790034071137,-0.33569848172737693,-2.166781109330941,20.843823910887295
1658790034087124,-0.7629510948347615,-2.04470893415737,21.69832913710229
1658790034103112,1.983672846570471,-2.105745021744042,21.881437399862534
1658790034119100,2.410925459678083,-2.8381780727854675,22.308690012970146
1658790034135088,0.45777065690094787,-2.7771419851987957,23.7125200274661
1658790034151076,-0.9460593575952316,-3.5095750362402214,24.811169604028237
1658790034167064,-4.364080262455218,-4.180971999694748,25.116350041962278
1658790034183052,-4.119935912108076,-2.5940337224383256,26.214999618524416
1658790034199040,-3.4485389486533222,-2.532997634851654,27.92401007095441
1658790034215027,-4.60822461280236,-3.3264667734797513,28.412298771648693
1658790034231015,-6.561379415579495,-3.0212863355459376,28.229190508888223
1658790034247009,-6.378271152819025,-1.4953841458761872,29.32784008545036
1658790034262997,-3.6316472114137923,-0.5188067444876197,30.670634012359642
1658790034278985,-3.1433585107195086,-2.04470893415737,30.975814450293683
1658790034294973,-4.547188525215461,-4.303044174868319,30.30441748683893
1658790034310960,-5.828946364538069,-3.997863736934505,30.73167009994654
1658790034326948,-5.584802014190927,-2.655069810025225,32.257572289616064
1658790034342936,-4.119935912108076,-2.8992141603723667,33.722438391698915
1658790034358924,-3.997863736934505,-3.997863736934505,34.39383535515367
1658790034374912,-5.279621576256886,-3.7537193865873633,35.49248493171581
1658790034390900,-4.9134050507361735,-3.2043945983061803,37.01838712138533
1658790034406888,-5.828946364538069,-3.2654306858930795,37.567711909666514
1658790034422876,-6.622415503166167,-3.814755474174035,37.2014953841458
1658790034438863,-3.1433585107195086,-1.5564202334630863,37.93392843518723
1658790034454851,-1.2512397955290453,-0.213626306553806,40.253299763485074
1658790034470839,-1.2512397955290453,-0.7629510948347615,40.43640802624532
1658790034486827,-2.7771419851987957,-3.1433585107195086,40.253299763485074
1658790034502815,-5.2185854886702145,-4.180971999694748,42.38956282902245
1658790034518803,-5.95101853971164,-2.9602502479590385,44.89204242008077
1658790034534791,-7.11070420386045,-2.166781109330941,45.380331120775054
1658790034550778,-4.058899824521177,-3.6316472114137923,45.441367208361726
1658790034566742,-1.3122758831159445,-5.3406576638437855,46.784161135271006
1658790034582729,-4.119935912108076,-4.852368963149502,48.004882887006715
1658790034598717,-5.096513313496644,-3.6316472114137923,48.73731593804814
1658790034614705,-5.3406576638437855,-4.730296787975931,49.95803768978385
1658790034630693,-5.096513313496644,-6.012054627298312,49.53078507667624
1658790034646681,-7.965209430075447,-5.706874189364498,50.20218204013099
1658790034662669,-11.688410772869474,-6.073090714885211,51.056687266346216
1658790034678657,-11.444266422522333,-6.317235065232353,50.873579003585746
1658790034694645,-8.758678568703772,-7.782101167315204,49.83596551461051
1658790034710632,-6.012054627298312,-9.55214770733187,49.2866407263291
1658790034726620,-5.645838101777599,-8.941786831464015,51.4229037918667
1658790034742608,-12.481879911497572,-11.20012207217519,54.29159990844573
1658790034758596,-13.214312962538997,-13.519493400473038,52.88776989394955
1658790034774584,-7.049668116273779,-13.214312962538997,52.094300755321456
1658790034790572,-2.166781109330941,-10.223544670786623,53.68123903257765
1658790034806560,-1.3122758831159445,-8.33142595559616,56.000610360875726
1658790034822548,-1.6174563210497581,-8.087281605249018,54.779888609140016
1658790034838535,-2.288853284504512,-10.223544670786623,51.17875944151956
1658790034854523,-3.814755474174035,-9.796292057679011,48.92042420080861
1658790034870511,-7.843137254901876,-10.833905546654478,50.690470740825276
1658790034886505,-6.256198977645454,-11.322194247348762,53.74227512016478
1658790034902493,-9.55214770733187,-11.871519035629717,54.535744258792874
1658790034918480,-6.378271152819025,-10.528725108720437,52.15533684290813
1658790034934468,-1.9226367589837992,-7.904173342488775,50.873579003585746
1658790034950456,1.6174563210497581,-8.880750743877343,52.76569771877621
1658790034966444,2.5940337224383256,-12.23773556115043,54.535744258792874
1658790034982432,-2.3498893720911838,-15.350576028076603,56.48889906157001
1658790034998420,-10.284580758373295,-11.322194247348762,56.12268253604907
1658790035014408,-14.679179064621849,-6.927595941100208,53.86434729533812
1658790035030396,-9.85732814526591,-6.9886320286868795,51.483939879453374
1658790035046383,-1.6784924086366573,-5.828946364538069,51.667048142213844
1658790035062371,-2.655069810025225,-3.875791561760934,52.82673380636288
1658790035078359,-9.55214770733187,-3.1433585107195086,51.23979552910623
1658790035094347,-11.566338597695903,-3.814755474174035,48.24902723735386
1658790035110335,-5.76791027695117,-5.584802014190927,46.723125047684334
1658790035126323,0.6408789196611906,-8.45349813076973,48.92042420080861
1658790035142311,-1.6174563210497581,-9.55214770733187,51.30083161669336
1658790035158299,-7.2938124666209205,-7.965209430075447,51.5449759670405
1658790035174286,-12.115663385976859,-5.096513313496644,48.493171587701
1658790035190274,-9.063859006637585,-5.2185854886702145,45.07515068284101
1658790035206237,-2.3498893720911838,-8.087281605249018,44.403753719386486
1658790035222225,-4.852368963149502,-9.063859006637585,47.21141374837862
1658790035238213,-13.946746013580423,-4.42511635004189,48.55420767528767
1658790035254201,-17.60891126878755,-1.8005645838102282,46.47898069733719
1658790035270189,-18.70756084534969,-4.242008087281647,43.79339284351863
1658790035286177,-15.960936903944457,-7.2938124666209205,40.375371938658645
1658790035302165,-12.359807736324,-5.523765926604028,38.54428931105508
1658790035318153,-13.58052948805971,-1.0070954451819034,39.82604715037746
1658790035334140,-18.341344319828977,0.09155413138023505,39.52086671244365
1658790035350128,-11.383230334935433,-0.7629510948347615,34.943160143434625
1658790035366116,5.462729839017356,-2.04470893415737,31.89135576409535
1658790035382104,7.965209430075447,-1.8616006713969,36.408026245517476
1658790035398092,-1.0681315327688026,-0.8850232700083325,41.22987716487364
1658790035414080,-9.67421988250544,-0.45777065690094787,38.78843366140222
1658790035430068,-4.9134050507361735,0.9460593575952316,33.4172579537651
1658790035446056,3.875791561760934,-1.5564202334630863,33.3562218661782
1658790035462043,4.303044174868319,-2.410925459678083,35.85870145723652
1658790035478031,-4.119935912108076,-1.8005645838102282,36.469062333104375
1658790035494019,-14.435034714274707,-1.739528496223329,34.08865491721963
1658790035510007,-12.664988174258042,-1.4343480582895154,30.243381399252257
1658790035526001,-6.195162890058782,0.2746623941404778,31.403067063401068
1658790035541988,-8.697642481116873,0.8850232700083325,35.065232318608196
1658790035557976,-17.303730830853738,0.03051804379333589,35.065232318608196
1658790035573964,-17.975127794308264,-1.4343480582895154,32.62378881513678
1658790035589952,-10.101472495613052,-3.0823224231326094,30.670634012359642
1658790035605940,-3.0212863355459376,-5.157549401083315,32.562752727550105
1658790035621928,-3.875791561760934,-4.852368963149502,35.004196231021524
1658790035637916,-12.359807736324,-5.645838101777599,35.85870145723652
1658790035653904,-19.256885633630873,-7.049668116273779,34.69901579308748
1658790035669891,-14.312962539101136,-5.2185854886702145,32.07446402685582
1658790035685879,-3.0212863355459376,-3.997863736934505,31.280994888227497
1658790035701867,0.09155413138023505,-4.303044174868319,33.96658274204606
1658790035717855,-5.157549401083315,-4.180971999694748,36.163881895170334
1658790035733843,-11.139085984588291,-5.157549401083315,35.30937666895534
1658790035749831,-16.26611734187827,-8.148317692835917,34.2107270923932
1658790035765819,-15.045395590142562,-11.383230334935433,35.91973754482319
1658790035781807,-9.67421988250544,-8.6366063935302,35.98077363241009
1658790035797794,-6.8665598535133086,-6.500343327992596,33.3562218661782
1658790035813782,-4.180971999694748,-6.195162890058782,30.54856183718607
1658790035829770,3.814755474174035,-4.60822461280236,29.633020523384403
1658790035845733,7.476920729381163,-0.8850232700083325,29.755092698557974
1658790035861721,0.09155413138023505,-1.1291676203554744,30.30441748683893
1658790035877709,-7.965209430075447,-4.791332875562603,34.2107270923932
1658790035893697,-7.476920729381163,-5.76791027695117,37.811856260013656
1658790035909685,-6.317235065232353,-3.6316472114137923,37.384603646906044
1658790035925673,-6.622415503166167,-3.875791561760934,35.248340581368666
1658790035941661,-8.392462043183059,-5.462729839017356,35.126268406195095
1658790035957648,-10.711833371480907,-6.439307240405924,37.07942320897223
1658790035973636,-11.139085984588291,-5.706874189364498,37.384603646906044
1658790035989624,-12.4208438239109,-5.76791027695117,36.10284580758366
1658790036005612,-13.031204699778755,-4.60822461280236,34.51590753032724
1658790036021600,-8.33142595559616,-2.532997634851654,34.69901579308748
1658790036037588,-5.584802014190927,-1.6174563210497581,35.37041275654224
1658790036053576,-7.843137254901876,-3.3875028610666504,35.126268406195095
1658790036069563,-8.697642481116873,-3.997863736934505,33.11207751583106
1658790036085551,-6.378271152819025,-1.5564202334630863,30.4264896620125
1658790036101539,-2.8992141603723667,0.15259021896690683,30.60959792477297
1658790036117527,-2.288853284504512,0.33569848172737693,32.31860837720296
1658790036133515,-6.622415503166167,-0.15259021896690683,29.755092698557974
1658790036149503,-9.979400320439481,0.8239871824216607,25.60463874265656
1658790036165496,-10.406652933546866,1.8616006713969,26.459143968871558
1658790036181484,-11.810482948043045,1.5564202334630863,29.999237048905115
1658790036197472,-13.397421225299468,-1.0681315327688026,30.243381399252257
1658790036213460,-15.10643167772946,-2.7161058976118966,26.58121614404513
1658790036229448,-11.627374685282575,-0.213626306553806,22.980086976424673
1658790036245436,-2.5940337224383256,4.60822461280236,21.881437399862534
1658790036261424,3.875791561760934,8.33142595559616,23.7125200274661
1658790036277412,2.7771419851987957,5.645838101777599,26.6422522316318
1658790036293399,-4.058899824521177,2.4719615472647547,26.764324406805372
1658790036309387,-7.843137254901876,-0.45777065690094787,25.29945830472252
1658790036325375,-6.683451590753066,0.45777065690094787,23.468375677118956
1658790036341363,-2.532997634851654,3.3875028610666504,22.980086976424673
1658790036357351,4.486152437628789,7.598992904554734,24.07873655298681
1658790036373339,5.706874189364498,9.308003356984727,24.26184481574728
1658790036389327,-0.8850232700083325,5.0354772259097444,23.651483939879427
1658790036405315,-5.76791027695117,2.227817196917613,22.919050888838
1658790036421302,-7.232776379034021,3.997863736934505,20.538643472953254
1658790036437290,-11.444266422522333,6.439307240405924,18.82963302052326
1658790036453278,-12.054627298390187,5.279621576256886,20.17242694743254
1658790036469266,-5.401693751430457,5.0354772259097444,21.27107652399468
1658790036485260,2.5940337224383256,5.3406576638437855,20.05035477225897
1658790036501248,3.0823224231326094,6.073090714885211,19.745174334325156
1658790036517235,2.7161058976118966,7.049668116273779,20.477607385366582
1658790036533223,3.0823224231326094,5.828946364538069,19.317921721217544
1658790036549211,3.0823224231326094,3.997863736934505,17.60891126878755
1658790036565199,2.655069810025225,4.852368963149502,18.82963302052326
1658790036581187,3.570611123826893,5.645838101777599,20.416571297779683
1658790036597175,0.3967345693140487,5.0354772259097444,18.89066910811016
1658790036613163,-6.744487678339738,2.7161058976118966,15.411612115663274
1658790036629150,-15.289539940489703,1.6784924086366573,13.153276874952326
1658790036645138,-18.280308232242305,0.9460593575952316,11.749446860456146
1658790036661126,-19.073777370870403,-0.45777065690094787,9.85732814526591
1658790036677114,-16.693369954985883,-1.3122758831159445,7.598992904554734
1658790036693102,-14.557106889448278,-1.739528496223329,5.157549401083315
1658790036709090,-10.467689021133765,-1.9226367589837992,2.5940337224383256
1658790036725078,-4.791332875562603,-1.3733119707026162,-0.45777065690094787
1658790036741066,1.1291676203554744,-0.5798428320745188,-2.655069810025225
1658790036757053,5.76791027695117,-0.33569848172737693,-3.875791561760934
1658790036773041,6.8665598535133086,-1.3733119707026162,-4.852368963149502
1658790036789029,7.721065079728305,-2.166781109330941,-6.134126802471883
1658790036804992,10.528725108720437,-1.4953841458761872,-8.51453421835663
1658790036820980,10.345616845960194,-2.9602502479590385,-10.650797283894008
1658790036836967,4.9134050507361735,-4.486152437628789,-12.359807736324
1658790036852954,4.364080262455218,-4.364080262455218,-14.312962539101136
1658790036868942,6.134126802471883,-2.655069810025225,-15.899900816357558
1658790036884929,7.354848554207592,-0.7019150072480898,-17.48683909361398
1658790036900917,4.486152437628789,-3.6316472114137923,-18.463416495002548
1658790036916904,1.4953841458761872,-5.584802014190927,-19.562066071564686
1658790036932891,2.288853284504512,-4.119935912108076,-19.9282825970854
1658790036948879,6.256198977645454,-1.1291676203554744,-19.562066071564686
1658790036964866,12.054627298390187,-0.5188067444876197,-19.439993896391115
1658790036980854,12.909132524605184,-2.532997634851654,-20.477607385366582
1658790036996841,9.124895094224485,-3.692683299000464,-21.942473487449433
1658790037012828,8.026245517662346,-4.42511635004189,-23.163195239185143
1658790037028816,8.087281605249018,-3.814755474174035,-24.07873655298681
1658790037044803,10.772869459067579,-2.227817196917613,-25.36049439230942
1658790037060791,10.345616845960194,-2.7161058976118966,-26.52018005645823
1658790037076778,10.89494163424115,-4.547188525215461,-28.595407034408936
1658790037092765,14.618142977035177,-4.547188525215461,-31.036850537880355
1658790037108753,16.571297779812312,-4.180971999694748,-32.31860837720319
1658790037124755,17.48683909361398,-4.730296787975931,-34.21072709239343
1658790037140743,20.660715648126825,-3.570611123826893,-36.34699015793103
1658790037156731,23.89562829022657,-3.3875028610666504,-37.44563973449317
1658790037172719,22.369726100556818,-5.401693751430457,-38.78843366140245
1658790037188707,18.646524757763018,-6.195162890058782,-41.22987716487387
1658790037204695,16.571297779812312,-7.17174029144735,-43.305104142824575
1658790037220683,14.557106889448278,-7.904173342488775,-45.868619821469565
1658790037236671,18.280308232242305,-4.60822461280236,-49.28664072632955
1658790037252658,24.444953078507524,-1.8616006713969,-51.6060120546274
1658790037268646,21.210040436408008,-4.119935912108076,-52.88776989394978
1658790037284634,15.594720378423744,-6.927595941100208,-54.65781643396667
1658790037300622,12.909132524605184,-7.11070420386045,-56.48889906157024
1658790037316610,1.0681315327688026,-7.11070420386045,-56.73304341191738
1658790037332598,-7.049668116273779,-8.148317692835917,-56.42786297398334
1658790037348586,1.1291676203554744,-7.354848554207592,-56.122682536049524
1658790037364574,9.73525597009234,-4.42511635004189,-55.14610513466096
1658790037380561,10.345616845960194,-3.936827649347606,-53.86434729533835
1658790037396549,2.7161058976118966,-7.049668116273779,-51.5449759670405
1658790037412537,1.0681315327688026,-6.073090714885211,-48.554207675288126
1658790037428525,6.500343327992596,-3.570611123826893,-46.84519722285813
1658790037444488,6.8665598535133086,-4.730296787975931,-45.563439383535524
1658790037460476,6.256198977645454,-5.279621576256886,-46.47898069733742
1658790037476463,7.965209430075447,-1.3122758831159445,-46.906233310444804
1658790037492450,11.932555123216616,0.09155413138023505,-47.150377660791946
1658790037508438,14.312962539101136,-1.6174563210497581,-46.23483634699028
1658790037524425,15.289539940489703,-2.410925459678083,-42.69474326695672
1658790037540413,11.810482948043045,0.6408789196611906,-40.92469672693983
1658790037556400,5.523765926604028,1.1291676203554744,-42.32852674143601
1658790037572387,5.645838101777599,1.3733119707026162,-42.63370717936982
1658790037588375,9.185931181811156,2.8381780727854675,-40.436408026245545
1658790037604362,9.308003356984727,5.584802014190927,-39.82604715037769
1658790037620350,6.9886320286868795,7.476920729381163,-39.88708323796459
1658790037636337,11.810482948043045,8.33142595559616,-40.80262455176626
1658790037652324,13.58052948805971,5.828946364538069,-40.436408026245545
1658790037668312,11.749446860456146,4.058899824521177,-38.36118104829484
1658790037684299,8.026245517662346,5.828946364538069,-37.44563973449317
1658790037700286,7.354848554207592,6.9886320286868795,-38.60532539864198
1658790037716274,14.80125123979542,4.547188525215461,-40.741588464179586
1658790037732261,18.82963302052326,2.04470893415737,-41.35194934004744
1658790037748249,12.054627298390187,3.3875028610666504,-38.36118104829484
1658790037764251,4.364080262455218,6.805523765926637,-36.957351033798886
1658790037780239,7.721065079728305,7.537956816968062,-38.91050583657602
1658790037796226,12.23773556115043,5.523765926604028,-37.750820172426984
1658790037812214,13.092240787365427,5.3406576638437855,-34.76005188067461
1658790037828201,7.4158846417944915,5.706874189364498,-35.00419623102175
1658790037844188,3.692683299000464,4.242008087281647,-36.34699015793103
1658790037860176,1.5564202334630863,3.936827649347606,-34.271763179980326
1658790037876163,2.410925459678083,6.561379415579495,-32.745860990310575
1658790037892151,11.993591210803288,8.697642481116873,-34.76005188067461
1658790037908138,16.2050812542916,4.852368963149502,-34.088654917219856
1658790037924125,12.970168612191856,2.227817196917613,-31.342030975814623
1658790037940113,1.739528496223329,1.5564202334630863,-29.20576791027679
1658790037956100,-4.364080262455218,3.3264667734797513,-29.08369573510322
1658790037972087,0.213626306553806,4.486152437628789,-30.4875257495994
1658790037988075,8.33142595559616,1.739528496223329,-29.694056610971074
1658790038004062,10.772869459067579,0.15259021896690683,-26.58121614404513
1658790038020050,6.744487678339738,2.9602502479590385,-25.116350041962278
1658790038036037,3.5095750362402214,4.486152437628789,-27.496757457846797
1658790038052024,7.965209430075447,3.814755474174035,-29.816128786144645
1658790038068012,8.45349813076973,1.1902037079423735,-28.656443121995835
1658790038083984,6.256198977645454,1.0681315327688026,-27.374685282673227
1658790038099971,4.730296787975931,1.5564202334630863,-27.557793545433697
1658790038115959,4.974441138323073,-0.03051804379333589,-28.717479209582507
1658790038131946,6.073090714885211,-0.45777065690094787,-29.20576791027679
1658790038147934,7.354848554207592,0.6408789196611906,-28.412298771648693
1658790038163921,3.2043945983061803,0.9460593575952316,-26.764324406805372
1658790038179908,5.401693751430457,2.4719615472647547,-27.557793545433697
1658790038195896,6.378271152819025,1.3122758831159445,-28.595407034408936
1658790038211883,5.523765926604028,-0.213626306553806,-28.16815442130155
1658790038227871,4.486152437628789,-0.7629510948347615,-26.214999618524416
1658790038243858,1.8005645838102282,0.3967345693140487,-24.750133516441565
1658790038259845,1.9226367589837992,1.983672846570471,-25.787747005416804
1658790038275833,4.180971999694748,2.8381780727854675,-27.374685282673227
1658790038291820,10.89494163424115,0.8239871824216607,-27.679865720607268
1658790038307808,11.810482948043045,-1.1902037079423735,-24.933241779201808
1658790038323795,7.049668116273779,0.15259021896690683,-22.186617837796575
1658790038339782,4.9134050507361735,3.1433585107195086,-22.919050888838
1658790038355770,9.002822919050914,2.532997634851654,-25.36049439230942
1658790038371757,13.031204699778755,-0.09155413138023505,-26.031891355763946
1658790038387745,12.848096437018285,-1.9226367589837992,-24.689097428854666
1658790038403747,7.782101167315204,-1.0681315327688026,-23.83459220263967
1658790038419735,2.8992141603723667,0.45777065690094787,-23.89562829022657
1658790038435722,2.5940337224383256,-0.03051804379333589,-24.750133516441565
1658790038451709,6.683451590753066,-1.0681315327688026,-25.48256656748299
1658790038467697,7.4158846417944915,-0.6408789196611906,-23.346303501945386
1658790038483684,3.875791561760934,0.03051804379333589,-21.45418478675515
1658790038499672,3.6316472114137923,0.5798428320745188,-21.45418478675515
1658790038515659,5.645838101777599,0.2746623941404778,-22.186617837796575
1658790038531646,6.561379415579495,0.5188067444876197,-23.529411764705856
1658790038547634,7.904173342488775,-1.0070954451819034,-23.773556115052997
1658790038563621,7.049668116273779,0.15259021896690683,-23.285267414358714
1658790038579609,6.012054627298312,0.7629510948347615,-23.224231326771815
1658790038595596,7.354848554207592,1.3733119707026162,-23.773556115052997
1658790038611583,9.185931181811156,-0.15259021896690683,-24.628061341267994
1658790038627571,9.308003356984727,-2.105745021744042,-23.95666437781324
1658790038643558,4.852368963149502,-1.6784924086366573,-21.51522087434182
1658790038659546,3.2043945983061803,0.09155413138023505,-20.35553521019301
1658790038675533,3.570611123826893,1.0070954451819034,-22.064545662623004
1658790038691520,7.598992904554734,1.4953841458761872,-24.322880903333953
1658790038707508,9.979400320439481,-0.6408789196611906,-24.505989166094423
1658790038723510,9.55214770733187,-2.4719615472647547,-22.73594262607753
1658790038739498,5.279621576256886,-0.33569848172737693,-22.49179827573039
1658790038755485,5.706874189364498,0.5798428320745188,-24.383916990920852
1658790038771473,9.67421988250544,0.03051804379333589,-24.994277866788707
1658790038787460,11.444266422522333,-0.7019150072480898,-22.552834363317288
1658790038803447,7.965209430075447,-0.5188067444876197,-21.942473487449433
1658790038819435,2.227817196917613,-0.09155413138023505,-23.102159151598244
1658790038835422,-0.45777065690094787,0.03051804379333589,-23.529411764705856
1658790038851410,-0.15259021896690683,-0.03051804379333589,-23.041123064011572
1658790038867397,1.5564202334630863,1.0681315327688026,-21.637293049515392
1658790038883384,4.303044174868319,2.5940337224383256,-20.05035477225897
1658790038899372,6.439307240405924,2.3498893720911838,-21.45418478675515
1658790038915359,10.101472495613052,0.3967345693140487,-23.7125200274661
1658790038931347,11.07804989700162,-0.7019150072480898,-23.285267414358714
1658790038947334,8.697642481116873,0.03051804379333589,-22.369726100556818
1658790038963321,10.589761196307336,1.0070954451819034,-23.346303501945386
1658790038979309,12.115663385976859,0.5188067444876197,-23.468375677118956
1658790038995296,8.819714656290444,-0.8239871824216607,-22.247653925383247
1658790039011283,5.889982452124741,0.7629510948347615,-21.45418478675515
1658790039027271,4.486152437628789,2.9602502479590385,-22.980086976424673
1658790039043243,8.33142595559616,2.7771419851987957,-24.444953078507524
1658790039059230,10.406652933546866,0.5188067444876197,-23.346303501945386
1658790039075218,7.2938124666209205,-0.2746623941404778,-20.965896086060866
1658790039091205,5.096513313496644,1.0681315327688026,-21.39314869916825
1658790039107193,2.655069810025225,1.6174563210497581,-22.552834363317288
1658790039123180,1.5564202334630863,0.33569848172737693,-21.57625696192872
1658790039139167,4.852368963149502,0.2746623941404778,-20.23346303501944
1658790039155155,6.744487678339738,1.6784924086366573,-19.745174334325156
1658790039171142,7.904173342488775,2.9602502479590385,-20.477607385366582
1658790039187130,11.444266422522333,1.0681315327688026,-20.843823910887295
1658790039203117,10.772869459067579,-1.0681315327688026,-19.684138246738257
1658790039219104,7.660028992141633,0.9460593575952316,-18.219272144655406
1658790039235092,7.843137254901876,2.227817196917613,-19.01274128328373
1658790039251079,5.523765926604028,0.15259021896690683,-19.9282825970854
1658790039267067,4.303044174868319,-1.0681315327688026,-20.05035477225897
1658790039283054,4.9134050507361735,-1.3122758831159445,-19.745174334325156
1658790039299041,6.012054627298312,0.213626306553806,-20.17242694743254
1658790039315029,9.063859006637585,2.3498893720911838,-20.721751735713724
1658790039331016,7.537956816968062,0.3967345693140487,-20.416571297779683
1658790039347004,6.622415503166167,-0.3967345693140487,-19.073777370870403
1658790039363006,3.4485389486533222,0.8850232700083325,-17.853055619134693
1658790039378994,2.7771419851987957,0.7629510948347615,-18.402380407415876
1658790039394981,5.828946364538069,-1.0681315327688026,-19.684138246738257
1658790039410968,6.073090714885211,-1.983672846570471,-20.477607385366582
1658790039426956,3.5095750362402214,-1.6174563210497581,-20.35553521019301
1658790039442943,2.04470893415737,0.213626306553806,-20.11139085984587
1658790039458931,4.242008087281647,0.33569848172737693,-21.27107652399468
1658790039474918,8.575570305943302,-1.0070954451819034,-22.186617837796575
1658790039490905,7.721065079728305,-2.410925459678083,-21.45418478675515
1658790039506893,2.7161058976118966,-1.1902037079423735,-20.294499122606112
1658790039522880,-1.9226367589837992,1.3122758831159445,-19.80621042191183
1658790039538868,-2.7161058976118966,1.3122758831159445,-18.95170519569683
1658790039554855,1.8005645838102282,0.2746623941404778,-18.76859693293659
1658790039570842,6.683451590753066,0.15259021896690683,-19.623102159151586
1658790039586830,9.124895094224485,2.4719615472647547,-19.195849546043974
1658790039602817,11.566338597695903,2.5940337224383256,-18.463416495002548
1658790039618805,11.688410772869474,1.739528496223329,-18.70756084534969
1658790039634792,9.430075532158298,1.1291676203554744,-19.256885633630873
1658790039650779,6.927595941100208,-0.09155413138023505,-20.05035477225897
1658790039666767,7.721065079728305,1.9226367589837992,-19.9282825970854
1658790039682739,4.974441138323073,3.814755474174035,-18.89066910811016
1658790039698726,3.2043945983061803,2.288853284504512,-19.745174334325156
1658790039714714,5.2185854886702145,-0.213626306553806,-21.45418478675515
1658790039730701,5.76791027695117,-0.8239871824216607,-21.45418478675515
1658790039746688,3.2043945983061803,1.1291676203554744,-19.80621042191183
1658790039762676,1.8005645838102282,3.0823224231326094,-19.80621042191183
1658790039778663,4.303044174868319,2.227817196917613,-21.69832913710229
1658790039794651,8.697642481116873,1.3122758831159445,-22.064545662623004
1658790039810638,9.308003356984727,1.1902037079423735,-20.904859998473967
1658790039826625,6.256198977645454,3.0823224231326094,-19.9893186846723
1658790039842613,3.7537193865873633,3.875791561760934,-20.17242694743254
1658790039858600,4.730296787975931,3.2654306858930795,-20.17242694743254
1658790039874588,5.279621576256886,2.04470893415737,-19.256885633630873
1658790039890575,3.2654306858930795,2.410925459678083,-18.524452582589447
1658790039906562,1.8616006713969,4.180971999694748,-18.097199969481835
1658790039922550,3.0823224231326094,4.669260700389032,-18.646524757763018
1658790039938537,5.279621576256886,3.570611123826893,-18.097199969481835
1658790039954525,6.805523765926637,2.5940337224383256,-17.42580300602731
1658790039970512,6.500343327992596,3.7537193865873633,-17.730983443961122
1658790039986499,6.378271152819025,4.364080262455218,-18.036163881895163
1658790040002502,4.303044174868319,3.570611123826893,-18.219272144655406
1658790040018489,3.692683299000464,2.7771419851987957,-18.341344319828977
1658790040034477,3.814755474174035,3.936827649347606,-17.914091706721592
1658790040050464,2.9602502479590385,5.523765926604028,-18.280308232242305
1658790040066452,3.7537193865873633,5.95101853971164,-19.1348134584573
1658790040082439,3.4485389486533222,5.3406576638437855,-19.01274128328373
1658790040098426,1.983672846570471,4.852368963149502,-20.23346303501944
1658790040114414,2.8992141603723667,6.622415503166167,-21.759365224688963
1658790040130401,4.547188525215461,7.476920729381163,-22.003509575036105
1658790040146389,5.584802014190927,5.889982452124741,-21.759365224688963
1658790040162376,7.660028992141633,4.974441138323073,-21.210040436408008
1658790040178363,9.369039444571627,6.8665598535133086,-20.17242694743254
1658790040194351,10.650797283894008,9.002822919050914,-19.684138246738257
1658790040210338,7.843137254901876,7.232776379034021,-19.317921721217544
1658790040226326,9.369039444571627,5.2185854886702145,-18.402380407415876
1658790040242313,9.002822919050914,4.974441138323073,-16.937514305333025
1658790040258300,5.2185854886702145,4.180971999694748,-14.92332341496899
1658790040274288,-1.0681315327688026,1.4953841458761872,-11.932555123216616
1658790040290275,-3.0212863355459376,-1.6784924086366573,-9.613183794918768
1658790040306263,0.8850232700083325,0.33569848172737693,-7.354848554207592
1658790040322235,3.3875028610666504,2.166781109330941,-4.119935912108076
1658790040338222,4.852368963149502,1.0070954451819034,0.213626306553806
1658790040354210,3.2043945983061803,-0.9460593575952316,5.706874189364498
1658790040370197,0.3967345693140487,-1.4343480582895154,9.124895094224485
1658790040386184,-2.532997634851654,-0.8850232700083325,11.322194247348762
1658790040402172,-2.410925459678083,-0.3967345693140487,14.373998626688035
1658790040418159,-4.547188525215461,-1.6174563210497581,18.036163881895163
1658790040434147,-8.575570305943302,-4.119935912108076,20.477607385366582
1658790040450134,-11.139085984588291,-5.645838101777599,22.552834363317288
1658790040466121,-8.575570305943302,-4.486152437628789,24.994277866788707
1658790040482109,-7.537956816968062,-4.60822461280236,27.496757457846797
1658790040498096,-7.843137254901876,-5.3406576638437855,29.694056610971074
1658790040514083,-7.965209430075447,-6.9886320286868795,32.01342793926892
1658790040530071,-5.157549401083315,-6.500343327992596,35.065232318608196
1658790040546058,-3.692683299000464,-6.500343327992596,37.75082017242676
1658790040562046,-3.7537193865873633,-7.476920729381163,39.21568627450961
1658790040578033,-6.8665598535133086,-8.026245517662346,39.88708323796436
1658790040594020,-8.575570305943302,-8.819714656290444,40.61951628900579
1658790040610008,-6.134126802471883,-8.941786831464015,42.20645456626221
1658790040625995,-8.087281605249018,-9.430075532158298,45.197222858014584
1658790040641998,-9.85732814526591,-8.758678568703772,47.51659418631243
1658790040657985,-8.270389868009488,-7.843137254901876,48.371099412527656
1658790040673973,-5.462729839017356,-7.4158846417944915,48.85938811322194
1658790040689960,-2.5940337224383256,-7.598992904554734,49.2866407263291
1658790040705948,-4.60822461280236,-6.805523765926637,49.408712901502895
1658790040721935,-8.880750743877343,-6.561379415579495,50.38529030289146
1658790040737922,-10.467689021133765,-7.660028992141633,50.507362478064806
1658790040753910,-12.848096437018285,-9.063859006637585,50.32425421530479
1658790040769897,-10.89494163424115,-9.369039444571627,51.23979552910623
1658790040785884,-9.613183794918768,-8.51453421835663,52.52155336842907
1658790040801872,-4.180971999694748,-7.17174029144735,52.3384451056686
1658790040817859,-0.213626306553806,-6.439307240405924,52.82673380636288
1658790040833847,-2.9602502479590385,-8.209353780422589,54.10849164568526
1658790040849834,-9.73525597009234,-9.002822919050914,54.169527733271934
1658790040865821,-13.153276874952326,-6.622415503166167,53.07087815671002
1658790040881809,-15.533684290836845,-7.4158846417944915,52.58258945601574
1658790040897796,-15.716792553597315,-8.51453421835663,52.70466163118908
1658790040913784,-14.496070801861606,-7.721065079728305,53.315022507057165
1658790040929771,-12.4208438239109,-6.744487678339738,53.86434729533812
1658790040945758,-8.880750743877343,-7.049668116273779,53.315022507057165
1658790040961731,-7.11070420386045,-8.697642481116873,51.97222858014766
1658790040977718,-9.67421988250544,-9.796292057679011,52.2163729304948
1658790040993705,-11.932555123216616,-10.223544670786623,54.65781643396622
1658790041009693,-14.92332341496899,-10.589761196307336,55.573357747768114
1658790041025680,-18.341344319828977,-9.246967269398056,52.948805981536225
1658790041041668,-13.64156557564661,-9.185931181811156,49.83596551461051
1658790041057655,-9.063859006637585,-8.392462043183059,49.95803768978385
1658790041073642,-8.026245517662346,-7.354848554207592,51.17875944151956
1658790041089630,-4.974441138323073,-7.049668116273779,51.911192492560986
1658790041105617,-4.974441138323073,-6.439307240405924,52.52155336842907
1658790041121605,-8.880750743877343,-6.195162890058782,51.97222858014766
1658790041137592,-10.345616845960194,-6.622415503166167,49.042496375981955
1658790041153579,-10.284580758373295,-9.55214770733187,48.73731593804814
1658790041169567,-7.17174029144735,-8.45349813076973,51.483939879453374
1658790041185554,-9.73525597009234,-7.232776379034021,52.3384451056686
1658790041201542,-12.970168612191856,-7.17174029144735,50.38529030289146
1658790041217529,-11.261158159761862,-6.500343327992596,48.126955062180514
1658790041233516,-9.246967269398056,-7.476920729381163,48.24902723735386
1658790041249504,-7.721065079728305,-8.6366063935302,50.20218204013099
1658790041265491,-8.575570305943302,-7.843137254901876,51.4229037918667
1658790041281494,-8.819714656290444,-5.462729839017356,49.65285725185004
1658790041297481,-10.406652933546866,-3.692683299000464,47.39452201113886
1658790041313469,-10.284580758373295,-6.805523765926637,45.74654764629577
1658790041329456,-7.598992904554734,-8.026245517662346,44.58686198214673
1658790041345443,-6.500343327992596,-4.547188525215461,45.502403295948625
1658790041361431,-10.650797283894008,-2.8381780727854675,46.05172808422958
1658790041377418,-14.373998626688035,-3.2654306858930795,43.61028458075816
1658790041393406,-13.45845731288614,-3.2654306858930795,39.39879453727008
1658790041409393,-9.124895094224485,-2.288853284504512,37.506675822079615
1658790041425380,-2.288853284504512,-1.0681315327688026,38.30014496070794
1658790041441368,-4.119935912108076,-0.6408789196611906,40.9246967269396
1658790041457355,-7.537956816968062,-1.8616006713969,40.61951628900579
1658790041473343,-12.970168612191856,-4.119935912108076,38.42221713588151
1658790041489330,-13.64156557564661,-3.3875028610666504,35.61455710688938
1658790041505317,-9.430075532158298,-1.4343480582895154,35.55352101930248
1658790041521305,-4.9134050507361735,0.03051804379333589,37.689784084840085
1658790041537292,-4.730296787975931,-0.5798428320745188,37.506675822079615
1658790041553280,-8.819714656290444,-2.8381780727854675,35.91973754482319
1658790041569267,-9.491111619745197,-2.532997634851654,35.126268406195095
1658790041585254,-7.537956816968062,-0.5798428320745188,34.45487144274034
1658790041601226,-3.6316472114137923,-0.33569848172737693,35.67559319447605
1658790041617214,-1.4343480582895154,-1.0070954451819034,36.65217059586462
1658790041633201,-3.1433585107195086,0.33569848172737693,33.478294041351774
1658790041649189,-3.2654306858930795,1.1291676203554744,30.243381399252257
1658790041665176,-3.7537193865873633,-1.3122758831159445,31.70824750133511
1658790041681163,-7.904173342488775,-1.6784924086366573,34.02761882963296
1658790041697151,-8.45349813076973,1.2512397955290453,33.600366216525344
1658790041713138,-4.058899824521177,2.04470893415737,32.562752727550105
1658790041729126,-0.09155413138023505,1.739528496223329,31.64721141374821
1658790041745113,-3.5095750362402214,1.3122758831159445,32.74586099031035
1658790041761100,-8.819714656290444,-0.3967345693140487,34.51590753032724
1658790041777088,-9.063859006637585,-0.33569848172737693,34.33279926756677
1658790041793075,-5.828946364538069,0.213626306553806,34.33279926756677
1658790041809063,-0.03051804379333589,1.3733119707026162,33.53933012893867
1658790041825050,3.3264667734797513,2.227817196917613,33.783474479285815
1658790041841037,-0.15259021896690683,1.0070954451819034,34.51590753032724
1658790041857025,-8.819714656290444,-0.09155413138023505,33.29518577859153
1658790041873012,-9.796292057679011,-1.2512397955290453,32.31860837720296
1658790041889000,-9.918364232852582,-3.3264667734797513,34.45487144274034
1658790041904987,-10.955977721828049,-5.096513313496644,38.0560006103608
1658790041920990,-15.10643167772946,-6.805523765926637,41.596093690394355
1658790041936977,-23.102159151598244,-9.063859006637585,40.9857328145265
1658790041952964,-24.26184481574728,-4.60822461280236,34.69901579308748
1658790041968952,-12.664988174258042,0.5188067444876197,28.778515297169406
1658790041984939,4.974441138323073,1.8616006713969,27.74090180819394
1658790042000927,9.491111619745197,-0.7019150072480898,31.586175326161538
1658790042016914,0.03051804379333589,-1.6784924086366573,35.248340581368666
1658790042032901,-17.303730830853738,-2.288853284504512,36.346990157930804
1658790042048889,-24.750133516441565,-3.3875028610666504,33.783474479285815
1658790042064876,-15.350576028076603,-3.7537193865873633,30.4875257495994
1658790042080864,-0.3967345693140487,-3.1433585107195086,31.52513923857464
1658790042096851,6.195162890058782,-2.3498893720911838,37.44563973449294
1658790042112838,-0.3967345693140487,-2.655069810025225,38.11703669794747
1658790042128826,-9.918364232852582,-3.3875028610666504,32.684824902723676
1658790042144813,-11.749446860456146,-3.1433585107195086,29.633020523384403
1658790042160801,-3.814755474174035,-0.8850232700083325,30.54856183718607
1658790042176788,-2.5940337224383256,0.9460593575952316,32.01342793926892
1658790042192775,-10.467689021133765,-0.3967345693140487,32.01342793926892
1658790042208763,-20.294499122606112,-3.7537193865873633,31.586175326161538
1658790042224750,-19.501029983978015,-2.9602502479590385,29.694056610971074
1658790042240753,-11.566338597695903,-1.3733119707026162,27.86297398336751
1658790042256740,-4.119935912108076,-0.2746623941404778,28.229190508888223
1658790042272728,-1.4343480582895154,0.5798428320745188,27.252613107499656
1658790042288715,-0.2746623941404778,0.03051804379333589,24.750133516441565
1658790042304702,2.7771419851987957,0.213626306553806,23.590447852292527
1658790042320690,4.486152437628789,1.0070954451819034,24.444953078507524
1658790042336677,1.4953841458761872,0.33569848172737693,23.529411764705856
1658790042352665,-6.378271152819025,-1.3733119707026162,21.942473487449433
1658790042368652,-10.650797283894008,-2.410925459678083,22.247653925383247
1658790042384639,-13.45845731288614,-3.2043945983061803,23.224231326771815
1658790042400627,-16.44922560463874,-3.814755474174035,22.552834363317288
1658790042416614,-12.970168612191856,-3.570611123826893,22.064545662623004
1658790042432602,-3.0212863355459376,-2.105745021744042,22.73594262607753
1658790042448589,4.547188525215461,-0.09155413138023505,22.552834363317288
1658790042464576,0.5188067444876197,-0.09155413138023505,20.965896086060866
1658790042480564,-6.378271152819025,-0.15259021896690683,20.23346303501944
1658790042496551,-6.744487678339738,-2.3498893720911838,20.843823910887295
1658790042512539,-6.622415503166167,-3.2654306858930795,19.256885633630873
1658790042528526,-8.697642481116873,-2.655069810025225,18.219272144655406
1658790042544513,-7.843137254901876,0.213626306553806,18.58548867017612
1658790042560485,-5.279621576256886,0.33569848172737693,19.073777370870403
1658790042576473,-4.791332875562603,-0.7019150072480898,18.402380407415876
1658790042592460,-6.8665598535133086,-0.6408789196611906,17.54787518120088
1658790042608448,-11.261158159761862,-1.6174563210497581,17.975127794308264
1658790042624435,-10.528725108720437,-2.7771419851987957,17.975127794308264
1658790042640422,-6.8665598535133086,-2.7771419851987957,16.632333867398984
1658790042656410,-2.8381780727854675,-1.739528496223329,16.1440451667047
1658790042672397,0.7629510948347615,-0.33569848172737693,17.120622568093268
1658790042688385,2.4719615472647547,-0.15259021896690683,17.48683909361398
1658790042704372,-0.33569848172737693,-1.8616006713969,18.036163881895163
1658790042720359,-4.119935912108076,-2.7161058976118966,18.524452582589447
1658790042736347,-6.012054627298312,-3.2654306858930795,18.82963302052326
1658790042752334,0.3967345693140487,-0.03051804379333589,18.95170519569683
1658790042768322,4.669260700389032,3.7537193865873633,19.073777370870403
1658790042784309,2.532997634851654,3.7537193865873633,18.95170519569683
1658790042800296,-5.462729839017356,1.0070954451819034,20.294499122606112
1658790042816284,-10.711833371480907,-0.5188067444876197,20.477607385366582
1658790042832271,-11.627374685282575,-0.33569848172737693,18.76859693293659
1658790042848259,-9.491111619745197,0.3967345693140487,17.914091706721592
1658790042864246,-6.195162890058782,2.8381780727854675,17.303730830853738
1658790042880249,-1.6784924086366573,2.8381780727854675,16.632333867398984
1658790042896236,-0.6408789196611906,1.8616006713969,16.632333867398984
1658790042912223,-2.7771419851987957,-0.3967345693140487,16.44922560463874
1658790042928211,-3.3875028610666504,0.45777065690094787,15.899900816357558
1658790042944198,-0.7019150072480898,1.1902037079423735,13.824673838406852
1658790042960186,-2.288853284504512,0.3967345693140487,11.444266422522333
1658790042976173,-8.45349813076973,-0.9460593575952316,11.01701380941472
1658790042992160,-10.772869459067579,-3.6316472114137923,10.772869459067579
1658790043008148,-7.721065079728305,-4.791332875562603,9.308003356984727
1658790043024135,-7.537956816968062,-4.60822461280236,7.232776379034021
1658790043040123,-9.918364232852582,-6.073090714885211,4.303044174868319
1658790043056110,-6.073090714885211,-7.4158846417944915,-0.15259021896690683
1658790043072097,1.6784924086366573,-4.058899824521177,-3.570611123826893
1658790043088085,4.974441138323073,-2.4719615472647547,-4.730296787975931
1658790043104072,7.232776379034021,-2.4719615472647547,-5.889982452124741
1658790043120060,8.392462043183059,-1.9226367589837992,-8.209353780422589
1658790043136047,3.1433585107195086,-3.692683299000464,-10.223544670786623
1658790043152034,-3.0212863355459376,-6.317235065232353,-11.932555123216616
1658790043168022,-2.655069810025225,-6.195162890058782,-13.885709925993751
1658790043184009,2.9602502479590385,-2.655069810025225,-16.26611734187827
1658790043199981,7.476920729381163,-2.655069810025225,-17.54787518120088
1658790043215969,10.89494163424115,-3.7537193865873633,-17.975127794308264
1658790043231956,11.566338597695903,-4.180971999694748,-19.439993896391115
1658790043247944,7.2938124666209205,-6.439307240405924,-20.843823910887295
1658790043263931,6.134126802471883,-6.683451590753066,-21.942473487449433
1658790043279918,7.965209430075447,-4.9134050507361735,-21.820401312275862
1658790043295906,10.101472495613052,-3.3264667734797513,-22.308690012970146
1658790043311893,7.17174029144735,-3.692683299000464,-23.95666437781324
1658790043327880,3.7537193865873633,-5.279621576256886,-24.750133516441565
1658790043343868,3.875791561760934,-5.828946364538069,-25.543602655069662
1658790043359855,7.904173342488775,-5.279621576256886,-27.313649195086555
1658790043375843,11.20012207217519,-4.119935912108076,-27.74090180819394
1658790043391830,12.542915999084471,-2.288853284504512,-28.778515297169406
1658790043407817,13.153276874952326,-2.105745021744042,-30.243381399252257
1658790043423805,11.932555123216616,-2.4719615472647547,-31.342030975814623
1658790043439792,10.467689021133765,-3.7537193865873633,-31.647211413748437
1658790043455780,12.603952086671143,-3.570611123826893,-33.17311360341819
1658790043471767,13.031204699778755,-4.058899824521177,-34.82108796826128
1658790043487754,12.542915999084471,-3.814755474174035,-35.91973754482342
1658790043503742,14.129854276340893,-3.3264667734797513,-37.2625314717327
1658790043519744,15.594720378423744,-2.655069810025225,-37.68978408484031
1658790043535732,13.58052948805971,-4.730296787975931,-38.30014496070817
1658790043551719,11.505302510109004,-6.012054627298312,-40.86366063935316
1658790043567707,14.557106889448278,-3.2654306858930795,-42.69474326695672
1658790043583694,18.402380407415876,-1.4343480582895154,-41.35194934004744
1658790043599681,17.730983443961122,-2.227817196917613,-39.94811932555126
1658790043615669,11.322194247348762,-4.547188525215461,-40.497444113832444
1658790043631656,8.33142595559616,-6.622415503166167,-42.02334630350197
1658790043647644,5.3406576638437855,-7.843137254901876,-41.35194934004744
1658790043663631,3.997863736934505,-5.523765926604028,-42.57267109178315
1658790043679618,1.3122758831159445,-3.936827649347606,-44.220645456626244
1658790043695606,1.3733119707026162,-3.6316472114137923,-42.999923704890534
1658790043711593,0.7629510948347615,-4.242008087281647,-40.558480201419115
1658790043727581,1.1291676203554744,-4.303044174868319,-40.680552376592686
1658790043743568,2.7771419851987957,-3.3264667734797513,-41.657129777981254
1658790043759555,7.17174029144735,-1.8005645838102282,-42.26749065384911
1658790043775543,8.45349813076973,-2.288853284504512,-41.35194934004744
1658790043791530,1.1902037079423735,-3.692683299000464,-40.497444113832444
1658790043807518,-6.500343327992596,-2.4719615472647547,-41.22987716487387
1658790043823505,2.5940337224383256,-3.1433585107195086,-40.80262455176626
1658790043839508,11.07804989700162,-3.1433585107195086,-39.15465018692316
1658790043855495,10.223544670786623,-1.1902037079423735,-40.98573281452673
1658790043871482,7.721065079728305,0.15259021896690683,-43.244068055237676
1658790043887470,9.73525597009234,1.3122758831159445,-42.63370717936982
1658790043903457,7.537956816968062,1.8005645838102282,-41.35194934004744
1658790043919445,2.7771419851987957,0.2746623941404778,-40.680552376592686
1658790043935432,0.15259021896690683,0.213626306553806,-40.741588464179586
1658790043951419,1.3122758831159445,2.105745021744042,-42.084382391088866
1658790043967407,4.974441138323073,3.875791561760934,-43.36614023041125
1658790043983394,12.298771648737329,2.532997634851654,-43.427176317998146
1658790043999382,12.603952086671143,1.3122758831159445,-41.41298542763411
1658790044015369,7.721065079728305,3.2654306858930795,-40.98573281452673
1658790044031356,2.8381780727854675,5.096513313496644,-42.38956282902268
1658790044047344,5.645838101777599,3.3264667734797513,-44.15960936903957
1658790044063331,6.9886320286868795,-0.09155413138023505,-40.37537193865887
1658790044079319,6.073090714885211,1.0681315327688026,-36.34699015793103
1658790044095306,5.096513313496644,4.486152437628789,-35.55352101930271
1658790044111293,11.20012207217519,9.002822919050914,-37.3235675593196
1658790044127281,16.32715342946517,8.026245517662346,-38.97154192416269
1658790044143268,15.472648203250174,6.012054627298312,-37.3235675593196
1658790044159240,9.55214770733187,6.8665598535133086,-35.67559319447628
1658790044175228,-0.6408789196611906,7.049668116273779,-35.85870145723675
1658790044191215,2.288853284504512,6.744487678339738,-37.56771190966674
1658790044207203,8.026245517662346,4.364080262455218,-36.652170595864845
1658790044223190,7.782101167315204,4.180971999694748,-34.149691004806755
1658790044239177,4.364080262455218,5.462729839017356,-34.149691004806755
1658790044255165,4.60822461280236,5.096513313496644,-35.492484931716035
1658790044271152,7.904173342488775,2.9602502479590385,-34.21072709239343
1658790044287140,9.308003356984727,3.936827649347606,-31.464103150988194
1658790044303127,5.157549401083315,6.134126802471883,-31.952391851682478
1658790044319114,5.096513313496644,6.134126802471883,-34.027618829633184
1658790044335102,7.4158846417944915,3.814755474174035,-32.99000534065772
1658790044351089,8.392462043183059,2.5940337224383256,-32.19653620202962
1658790044367076,3.7537193865873633,2.532997634851654,-32.745860990310575
1658790044383064,2.105745021744042,4.730296787975931,-34.21072709239343
1658790044399051,4.974441138323073,5.401693751430457,-34.88212405584818
1658790044415039,7.598992904554734,4.60822461280236,-34.088654917219856
1658790044431026,6.8665598535133086,3.875791561760934,-33.966582742046285
1658790044447013,3.0212863355459376,3.3264667734797513,-35.06523231860842
1658790044463001,0.7629510948347615,1.3122758831159445,-35.00419623102175
1658790044479004,2.166781109330941,0.5798428320745188,-33.66140230411247
1658790044494991,5.95101853971164,3.692683299000464,-33.051041428244616
1658790044510978,8.148317692835917,4.180971999694748,-35.12626840619532
1658790044526966,9.002822919050914,0.3967345693140487,-36.4080262455177
1658790044542953,9.979400320439481,-1.3122758831159445,-34.21072709239343
1658790044558941,7.232776379034021,0.09155413138023505,-32.19653620202962
1658790044574928,4.180971999694748,1.739528496223329,-33.051041428244616
1658790044590915,7.537956816968062,1.0070954451819034,-34.271763179980326
1658790044606903,9.002822919050914,-1.4953841458761872,-32.01342793926915
1658790044622890,5.95101853971164,0.03051804379333589,-30.243381399252257
1658790044638877,2.7161058976118966,1.4343480582895154,-32.13550011444272
1658790044654865,9.124895094224485,3.5095750362402214,-34.45487144274057
1658790044670852,14.80125123979542,1.6784924086366573,-32.56275272755033
1658790044686840,13.153276874952326,-1.1291676203554744,-28.839551384756078
1658790044702827,4.852368963149502,-1.1291676203554744,-27.98504615854108
1658790044718814,1.1291676203554744,1.1291676203554744,-30.670634012359642
1658790044734802,3.814755474174035,2.532997634851654,-33.41725795376533
1658790044750789,9.124895094224485,-0.09155413138023505,-31.403067063401295
1658790044766777,6.012054627298312,-1.8616006713969,-27.80193789578084
1658790044782764,1.739528496223329,0.03051804379333589,-28.473334859235365
1658790044798736,5.0354772259097444,1.9226367589837992,-31.89135576409558
1658790044814724,10.589761196307336,1.1902037079423735,-32.13550011444272
1658790044830711,10.223544670786623,-1.1291676203554744,-28.900587472342977
1658790044846698,8.758678568703772,-0.33569848172737693,-27.80193789578084
1658790044862686,7.354848554207592,2.04470893415737,-29.51094834821083
1658790044878673,8.819714656290444,1.8616006713969,-30.73167009994654
1658790044894661,10.772869459067579,-0.3967345693140487,-27.92401007095441
1658790044910648,7.049668116273779,0.6408789196611906,-25.543602655069662
1658790044926635,1.983672846570471,2.3498893720911838,-27.679865720607268
1658790044942623,3.7537193865873633,1.8616006713969,-29.816128786144645
1658790044958610,7.354848554207592,-0.8850232700083325,-28.290226596475122
1658790044974598,6.073090714885211,-0.33569848172737693,-24.628061341267994
1658790044990585,3.0212863355459376,3.0212863355459376,-24.444953078507524
1658790045006572,5.462729839017356,4.180971999694748,-25.970855268177274
1658790045022560,6.195162890058782,2.8381780727854675,-25.48256656748299
1658790045038547,6.561379415579495,0.7019150072480898,-25.42153047989609
1658790045054535,6.195162890058782,-0.6408789196611906,-24.01770046540014
1658790045070522,4.119935912108076,1.8616006713969,-23.529411764705856
1658790045086509,4.9134050507361735,2.8992141603723667,-25.848783093003703
1658790045102497,8.148317692835917,0.09155413138023505,-26.092927443350845
1658790045118499,9.979400320439481,-1.8616006713969,-23.773556115052997
1658790045134487,8.148317692835917,0.5188067444876197,-23.041123064011572
1658790045150474,4.852368963149502,3.2043945983061803,-23.285267414358714
1658790045166462,1.9226367589837992,3.4485389486533222,-24.383916990920852
1658790045182449,1.983672846570471,1.3122758831159445,-24.628061341267994
1658790045198436,1.4953841458761872,-0.7629510948347615,-22.73594262607753
1658790045214424,0.9460593575952316,1.0070954451819034,-23.407339589532285
1658790045230411,2.3498893720911838,3.570611123826893,-25.543602655069662
1658790045246399,2.532997634851654,2.227817196917613,-26.39810788128466
1658790045262386,2.7161058976118966,-0.6408789196611906,-25.848783093003703
1658790045278373,3.3875028610666504,0.7019150072480898,-24.505989166094423
1658790045294361,6.317235065232353,3.6316472114137923,-24.567025253681095
1658790045310348,9.246967269398056,1.983672846570471,-25.05531395437538
1658790045326336,9.796292057679011,-0.3967345693140487,-24.26184481574728
1658790045342323,5.2185854886702145,-1.3122758831159445,-22.369726100556818
1658790045358310,0.9460593575952316,1.1291676203554744,-22.308690012970146
1658790045374298,2.532997634851654,4.364080262455218,-23.407339589532285
1658790045390285,3.6316472114137923,3.6316472114137923,-23.041123064011572
1658790045406273,3.997863736934505,1.2512397955290453,-21.820401312275862
1658790045422260,1.6174563210497581,2.4719615472647547,-20.843823910887295
1658790045438232,-0.5188067444876197,5.096513313496644,-21.39314869916825
1658790045454219,3.4485389486533222,4.974441138323073,-22.49179827573039
1658790045470207,7.721065079728305,2.288853284504512,-21.820401312275862
1658790045486194,7.537956816968062,0.7629510948347615,-20.721751735713724
1658790045502182,6.622415503166167,2.288853284504512,-21.51522087434182
1658790045518169,8.575570305943302,4.058899824521177,-23.590447852292527
1658790045534156,8.880750743877343,3.4485389486533222,-24.750133516441565
1658790045550144,6.195162890058782,1.3122758831159445,-25.116350041962278
1658790045566131,3.814755474174035,1.1902037079423735,-23.651483939879427
1658790045582119,-0.5188067444876197,4.119935912108076,-22.8580148012511
1658790045598106,-0.5798428320745188,6.073090714885211,-24.689097428854666
1658790045614093,5.279621576256886,5.157549401083315,-25.36049439230942
1658790045630081,7.660028992141633,2.9602502479590385,-23.89562829022657
1658790045646068,6.500343327992596,2.105745021744042,-24.01770046540014
1658790045662056,9.369039444571627,5.95101853971164,-25.60463874265656
1658790045678043,17.42580300602731,8.45349813076973,-25.726710917830133
1658790045694030,18.95170519569683,6.439307240405924,-24.200808728160382
1658790045710018,16.2050812542916,3.6316472114137923,-23.95666437781324
1658790045726005,8.026245517662346,2.04470893415737,-24.933241779201808
1658790045741993,3.4485389486533222,1.739528496223329,-24.872205691615136
1658790045757995,0.8850232700083325,1.6784924086366573,-22.980086976424673
1658790045773983,-1.0681315327688026,2.105745021744042,-20.294499122606112
1658790045789970,-1.1291676203554744,4.486152437628789,-19.80621042191183
1658790045805957,5.523765926604028,8.087281605249018,-20.782787823300396
1658790045821945,11.749446860456146,6.500343327992596,-19.867246509498727
1658790045837932,12.23773556115043,5.096513313496644,-18.70756084534969
1658790045853920,14.80125123979542,7.17174029144735,-19.01274128328373
1658790045869907,12.4208438239109,7.17174029144735,-19.623102159151586
1658790045885894,12.970168612191856,5.95101853971164,-19.256885633630873
1658790045901882,9.063859006637585,3.0212863355459376,-18.70756084534969
1658790045917869,3.5095750362402214,2.4719615472647547,-19.745174334325156
1658790045933857,2.04470893415737,5.2185854886702145,-21.210040436408008
1658790045949844,5.584802014190927,7.11070420386045,-21.27107652399468
1658790045965831,4.974441138323073,4.974441138323073,-20.416571297779683
1658790045981819,4.730296787975931,1.8616006713969,-19.80621042191183
1658790045997806,4.242008087281647,1.6784924086366573,-20.477607385366582
1658790046013794,6.256198977645454,3.0823224231326094,-23.163195239185143
1658790046029781,10.406652933546866,4.242008087281647,-24.567025253681095
1658790046045768,12.054627298390187,2.8992141603723667,-23.468375677118956
1658790046061756,9.002822919050914,1.1902037079423735,-22.67490653849086
1658790046077728,3.2654306858930795,2.166781109330941,-22.552834363317288
1658790046093715,-5.76791027695117,2.8381780727854675,-22.79697871366443
1658790046109703,-10.528725108720437,1.1902037079423735,-23.102159151598244
1658790046125690,-9.246967269398056,-2.3498893720911838,-21.33211261158158
1658790046141677,-9.67421988250544,-2.9602502479590385,-18.89066910811016
1658790046157665,-7.782101167315204,-1.0070954451819034,-18.097199969481835
1658790046173652,-1.739528496223329,1.0681315327688026,-16.44922560463874
1658790046189640,3.2043945983061803,0.9460593575952316,-13.153276874952326
1658790046205627,2.8992141603723667,0.7019150072480898,-9.491111619745197
1658790046221614,-1.0070954451819034,0.03051804379333589,-7.598992904554734
1658790046237602,-2.5940337224383256,-1.4343480582895154,-7.17174029144735
1658790046253589,-0.7629510948347615,-0.6408789196611906,-5.76791027695117
1658790046269577,0.15259021896690683,1.3122758831159445,-1.8005645838102282
1658790046285564,-1.8005645838102282,1.739528496223329,3.5095750362402214
1658790046301551,-5.0354772259097444,-0.09155413138023505,6.927595941100208
1658790046317539,-7.17174029144735,-2.04470893415737,9.063859006637585
1658790046333526,-4.058899824521177,-2.4719615472647547,10.650797283894008
1658790046349514,0.6408789196611906,-2.410925459678083,12.787060349431613
1658790046365501,-1.0681315327688026,-4.180971999694748,15.350576028076603
1658790046381488,-4.730296787975931,-5.462729839017356,16.693369954985883
1658790046397491,-7.354848554207592,-6.134126802471883,17.60891126878755
1658790046413478,-4.9134050507361735,-4.364080262455218,19.378957808804444
1658790046429466,-4.669260700389032,-3.814755474174035,22.247653925383247
1658790046445453,-7.232776379034021,-4.364080262455218,24.26184481574728
1658790046461441,-9.796292057679011,-4.974441138323073,26.031891355763946
1658790046477428,-8.148317692835917,-5.523765926604028,27.61882963302037
1658790046493415,-5.828946364538069,-6.073090714885211,29.26680399786369
1658790046509403,-4.730296787975931,-6.134126802471883,30.182345311665358
1658790046525390,-4.119935912108076,-6.8665598535133086,30.853742275120112
1658790046541378,-2.7771419851987957,-8.270389868009488,31.52513923857464
1658790046557365,-1.8616006713969,-9.491111619745197,33.11207751583106
1658790046573352,-0.8850232700083325,-8.6366063935302,34.57694361791391
1658790046589340,-1.1291676203554744,-7.232776379034021,34.51590753032724
1658790046605327,0.15259021896690683,-7.476920729381163,34.76005188067438
1658790046621315,-2.8381780727854675,-8.819714656290444,35.61455710688938
1658790046637302,-6.561379415579495,-8.51453421835663,36.346990157930804
1658790046653289,-6.805523765926637,-6.378271152819025,36.285954070343905
1658790046669277,-7.17174029144735,-6.805523765926637,36.83527885862509
1658790046685264,-4.852368963149502,-7.965209430075447,39.032578011749365
1658790046701252,-6.927595941100208,-8.51453421835663,40.314335851071746
1658790046717224,-6.073090714885211,-8.026245517662346,39.58190280003032
1658790046733211,-0.3967345693140487,-7.965209430075447,39.45983062485675
1658790046749199,4.180971999694748,-7.049668116273779,40.253299763485074
1658790046765186,2.04470893415737,-8.026245517662346,40.86366063935293
1658790046781173,-3.570611123826893,-8.697642481116873,39.21568627450961
1658790046797161,-4.669260700389032,-8.51453421835663,37.811856260013656
1658790046813148,-4.180971999694748,-7.660028992141633,38.971541924162466
1658790046829136,-6.744487678339738,-7.598992904554734,40.253299763485074
1658790046845123,-7.354848554207592,-8.575570305943302,40.86366063935293
1658790046861110,-7.11070420386045,-8.51453421835663,40.74158846417936
1658790046877098,-7.049668116273779,-7.17174029144735,40.1312275883115
1658790046893085,-3.4485389486533222,-5.584802014190927,39.70397497520389
1658790046909073,-1.1291676203554744,-5.645838101777599,40.55848020141889
1658790046925060,-2.04470893415737,-7.11070420386045,41.474021515220784
1658790046941047,-7.049668116273779,-7.17174029144735,41.718165865567926
1658790046957035,-12.054627298390187,-6.744487678339738,41.718165865567926
1658790046973022,-5.95101853971164,-5.889982452124741,40.55848020141889
1658790046989009,-4.669260700389032,-6.805523765926637,40.497444113832216
1658790047004997,-7.11070420386045,-7.4158846417944915,41.596093690394355
1658790047020984,-7.4158846417944915,-5.157549401083315,42.26749065384888
1658790047036987,-4.9134050507361735,-4.547188525215461,42.26749065384888
1658790047052974,-1.9226367589837992,-5.584802014190927,42.32852674143578
1658790047068962,-6.744487678339738,-7.17174029144735,43.30510414282435
1658790047084949,-11.627374685282575,-9.369039444571627,43.9154650186922
1658790047100937,-6.134126802471883,-9.063859006637585,44.403753719386486
1658790047116924,-3.6316472114137923,-7.2938124666209205,46.35690852216362
1658790047132911,-4.486152437628789,-6.439307240405924,45.74654764629577
1658790047148899,-4.730296787975931,-6.195162890058782,44.64789806973363
1658790047164886,-4.547188525215461,-6.439307240405924,45.13618677042791
1658790047180873,-3.0823224231326094,-4.303044174868319,44.7699702449072
1658790047196861,-2.9602502479590385,-4.303044174868319,44.220645456626016
1658790047212848,-5.401693751430457,-7.354848554207592,45.99069199664291
1658790047228836,-6.439307240405924,-9.369039444571627,47.82177462424647
1658790047244823,-8.6366063935302,-8.6366063935302,48.31006332494053
1658790047260810,-7.2938124666209205,-8.33142595559616,47.21141374837862
1658790047276798,-2.5940337224383256,-6.439307240405924,44.7089341573203
1658790047292785,-1.2512397955290453,-8.209353780422589,43.976501106278874
1658790047308773,-3.0823224231326094,-10.101472495613052,44.95307850766744
1658790047324760,-4.852368963149502,-9.124895094224485,46.29587243457672
1658790047340747,-8.026245517662346,-6.500343327992596,44.7089341573203
1658790047356720,-7.965209430075447,-5.95101853971164,42.20645456626221
1658790047372707,-2.4719615472647547,-5.889982452124741,42.26749065384888
1658790047388694,0.5188067444876197,-5.0354772259097444,44.281681544212915
1658790047404682,0.5188067444876197,-2.8381780727854675,44.58686198214673
1658790047420669,0.09155413138023505,-2.9602502479590385,43.67132066834506
