Timestamp (microseconds),Gyro X (°/s),Gyro Y (°/s),Gyro Z (°/s)
1658789412899932,3.0212863355459376,-1.1902037079423735,-1.1902037079423735
1658789412915929,0.6408789196611906,-1.0681315327688026,-1.0681315327688026
1658789412931926,-0.8239871824216607,-0.3967345693140487,-1.1902037079423735
1658789412947923,-0.03051804379333589,-1.1902037079423735,-1.4953841458761872
1658789412963920,0.5188067444876197,-1.4343480582895154,-1.1291676203554744
1658789412979917,0.2746623941404778,-1.0681315327688026,-1.0681315327688026
1658789412995914,0.7629510948347615,-0.2746623941404778,-1.3733119707026162
1658789413011911,2.4719615472647547,-0.7019150072480898,-1.3122758831159445
1658789413027908,1.6784924086366573,-1.739528496223329,-1.0681315327688026
1658789413043905,-1.6784924086366573,-1.8005645838102282,-0.8850232700083325
1658789413059902,-2.7161058976118966,-1.0681315327688026,-1.1291676203554744
1658789413075899,-1.1902037079423735,-1.1291676203554744,-1.4953841458761872
1658789413091896,-1.3122758831159445,-2.8381780727854675,-1.2512397955290453
1658789413107893,-4.42511635004189,-3.997863736934505,-0.8850232700083325
1658789413123890,-9.185931181811156,-4.364080262455218,-0.9460593575952316
1658789413139886,-9.430075532158298,-4.791332875562603,-1.2512397955290453
1658789413155883,-5.584802014190927,-4.058899824521177,-0.8850232700083325
1658789413171880,-5.2185854886702145,-3.6316472114137923,-0.8850232700083325
1658789413187877,-2.532997634851654,-2.4719615472647547,-1.0681315327688026
1658789413203874,0.8239871824216607,-1.739528496223329,-0.3967345693140487
1658789413219879,0.7019150072480898,-1.1902037079423735,-0.3967345693140487
1658789413235876,1.1902037079423735,-0.5188067444876197,-0.7629510948347615
1658789413251873,2.04470893415737,-1.6174563210497581,-0.8239871824216607
1658789413267870,2.227817196917613,-1.8616006713969,-0.2746623941404778
1658789413283867,1.2512397955290453,-0.5188067444876197,-0.45777065690094787
1658789413299863,1.1291676203554744,0.03051804379333589,-1.1902037079423735
1658789413315860,1.8005645838102282,-0.9460593575952316,-0.6408789196611906
1658789413331857,2.105745021744042,-1.3733119707026162,-0.15259021896690683
1658789413347854,2.410925459678083,-0.09155413138023505,-0.45777065690094787
1658789413363851,3.875791561760934,1.4953841458761872,-0.8850232700083325
1658789413379848,5.0354772259097444,0.7019150072480898,-0.5798428320745188
1658789413395845,5.401693751430457,-0.8239871824216607,-0.45777065690094787
1658789413411842,3.814755474174035,-0.33569848172737693,-0.3967345693140487
1658789413427839,1.739528496223329,-0.2746623941404778,-0.7629510948347615
1658789413443836,0.6408789196611906,-1.1291676203554744,-1.0070954451819034
1658789413459833,0.3967345693140487,-1.9226367589837992,-0.9460593575952316
1658789413475830,0.6408789196611906,-0.8239871824216607,-1.4343480582895154
1658789413491827,-1.5564202334630863,-0.45777065690094787,-1.9226367589837992
1658789413507824,0.03051804379333589,-1.4343480582895154,-2.288853284504512
1658789413523821,0.7629510948347615,-2.166781109330941,-1.9226367589837992
1658789413539825,-0.15259021896690683,-1.3122758831159445,-2.105745021744042
1658789413555822,-0.8850232700083325,-0.7019150072480898,-2.8381780727854675
1658789413571819,1.983672846570471,-0.7019150072480898,-3.1433585107195086
1658789413587816,3.570611123826893,-0.6408789196611906,-2.5940337224383256
1658789413603813,2.227817196917613,-0.15259021896690683,-2.5940337224383256
1658789413619810,2.655069810025225,1.8005645838102282,-2.8992141603723667
1658789413635807,4.669260700389032,2.3498893720911838,-2.04470893415737
1658789413651804,6.073090714885211,1.3122758831159445,-1.8005645838102282
1658789413667801,4.058899824521177,1.6174563210497581,-1.4953841458761872
1658789413683797,2.04470893415737,1.2512397955290453,-1.1902037079423735
1658789413699794,1.6174563210497581,-0.5188067444876197,-1.0681315327688026
1658789413715791,-1.6174563210497581,-2.04470893415737,0.15259021896690683
1658789413731788,-3.2043945983061803,-0.9460593575952316,0.9460593575952316
1658789413747785,-1.739528496223329,-0.3967345693140487,0.8239871824216607
1658789413763782,2.5940337224383256,-0.33569848172737693,0.6408789196611906
1658789413779779,4.60822461280236,0.03051804379333589,0.6408789196611906
1658789413795776,1.4953841458761872,0.6408789196611906,0.7019150072480898
1658789413811773,-0.213626306553806,2.4719615472647547,0.2746623941404778
1658789413827770,-0.6408789196611906,2.288853284504512,0.2746623941404778
1658789413843767,1.0681315327688026,0.15259021896690683,0.3967345693140487
1658789413859649,-0.6408789196611906,-0.09155413138023505,0.2746623941404778
1658789413875646,-1.8005645838102282,0.8239871824216607,-0.03051804379333589
1658789413891642,-0.7629510948347615,0.03051804379333589,-0.213626306553806
1658789413907639,0.5798428320745188,-1.6784924086366573,-0.2746623941404778
1658789413923635,-0.2746623941404778,-2.105745021744042,0.8239871824216607
1658789413939632,-0.09155413138023505,0.03051804379333589,0.8239871824216607
1658789413955628,0.15259021896690683,0.8850232700083325,-0.15259021896690683
1658789413971624,2.410925459678083,0.2746623941404778,-0.2746623941404778
1658789413987621,3.0212863355459376,-0.6408789196611906,-0.3967345693140487
1658789414003617,0.3967345693140487,-0.213626306553806,-0.7629510948347615
1658789414019614,-1.1902037079423735,0.03051804379333589,-0.9460593575952316
1658789414035610,0.2746623941404778,-0.8850232700083325,-1.4343480582895154
1658789414051607,2.105745021744042,-1.6784924086366573,-1.3733119707026162
1658789414067603,-0.3967345693140487,-1.3733119707026162,-1.1902037079423735
1658789414083600,-0.8239871824216607,-0.8850232700083325,-1.1291676203554744
1658789414099596,1.0681315327688026,-0.7629510948347615,-0.5798428320745188
1658789414115593,0.5798428320745188,-1.1291676203554744,-0.15259021896690683
1658789414131589,0.33569848172737693,-0.5798428320745188,-0.45777065690094787
1658789414147585,0.15259021896690683,0.213626306553806,-0.6408789196611906
1658789414163582,1.3733119707026162,-0.03051804379333589,-0.7629510948347615
1658789414179382,2.532997634851654,-0.2746623941404778,-0.7019150072480898
1658789414195378,2.410925459678083,-0.5188067444876197,-1.0681315327688026
1658789414211374,1.5564202334630863,-1.1902037079423735,-2.04470893415737
1658789414227370,-0.33569848172737693,-1.8005645838102282,-1.4343480582895154
1658789414243366,-1.6174563210497581,-2.166781109330941,-0.5798428320745188
1658789414259362,-0.6408789196611906,-1.1902037079423735,-0.8239871824216607
1658789414275358,1.0070954451819034,-0.3967345693140487,-1.3733119707026162
1658789414291354,2.4719615472647547,-0.7019150072480898,-1.0070954451819034
1658789414307350,2.655069810025225,-0.8239871824216607,-0.8239871824216607
1658789414323346,2.166781109330941,-0.45777065690094787,-1.3122758831159445
1658789414339342,0.7629510948347615,-0.7629510948347615,-1.4953841458761872
1658789414355338,1.4343480582895154,-0.9460593575952316,-1.5564202334630863
1658789414371334,1.0070954451819034,-1.1902037079423735,-1.0070954451819034
1658789414387330,1.1291676203554744,-0.7019150072480898,-0.7629510948347615
1658789414403326,0.15259021896690683,-0.45777065690094787,-1.0681315327688026
1658789414419322,0.7629510948347615,-1.2512397955290453,-1.4953841458761872
1658789414435318,0.8239871824216607,-1.3122758831159445,-0.7019150072480898
1658789414451314,-0.45777065690094787,-0.9460593575952316,-0.09155413138023505
1658789414467310,0.5188067444876197,-0.2746623941404778,-0.3967345693140487
1658789414483306,1.6784924086366573,-0.5798428320745188,-0.5798428320745188
1658789414499145,0.15259021896690683,-0.9460593575952316,-0.3967345693140487
1658789414515140,0.213626306553806,-0.2746623941404778,-0.6408789196611906
1658789414531135,0.8239871824216607,-0.03051804379333589,-1.0070954451819034
1658789414547130,1.3733119707026162,-0.7019150072480898,-0.7629510948347615
1658789414563125,0.5188067444876197,-1.6784924086366573,-0.6408789196611906
1658789414579120,-1.9226367589837992,-0.9460593575952316,-0.33569848172737693
1658789414595115,-1.1291676203554744,0.03051804379333589,-0.3967345693140487
1658789414611110,2.166781109330941,-0.213626306553806,-0.5798428320745188
1658789414627105,3.997863736934505,-0.5188067444876197,-0.5188067444876197
1658789414643100,2.04470893415737,-0.45777065690094787,-0.45777065690094787
1658789414659095,-0.7019150072480898,0.3967345693140487,-0.3967345693140487
1658789414675090,-2.105745021744042,0.3967345693140487,-0.3967345693140487
1658789414691085,-0.8239871824216607,-0.5188067444876197,-0.7019150072480898
1658789414707080,-0.213626306553806,-1.0681315327688026,-0.9460593575952316
1658789414723075,-0.15259021896690683,-0.7019150072480898,-0.8239871824216607
1658789414739071,1.1291676203554744,0.213626306553806,-0.7019150072480898
1658789414755066,1.1902037079423735,-0.213626306553806,-0.7019150072480898
1658789414771061,0.8850232700083325,-0.5798428320745188,-0.213626306553806
1658789414787056,-0.5188067444876197,-0.9460593575952316,0.15259021896690683
1658789414803051,-0.15259021896690683,-0.03051804379333589,-0.5798428320745188
1658789414818908,2.410925459678083,0.9460593575952316,-1.1902037079423735
1658789414834903,3.2654306858930795,0.15259021896690683,-1.1902037079423735
1658789414850897,1.3733119707026162,-0.45777065690094787,-0.5798428320745188
1658789414866892,-1.4953841458761872,-0.2746623941404778,-0.45777065690094787
1658789414882887,-0.7629510948347615,0.213626306553806,-0.7629510948347615
1658789414898881,3.1433585107195086,0.5798428320745188,-0.3967345693140487
1658789414914876,3.5095750362402214,0.09155413138023505,0.03051804379333589
1658789414930870,1.5564202334630863,-0.03051804379333589,-0.33569848172737693
1658789414946865,0.213626306553806,0.213626306553806,-0.7629510948347615
1658789414962859,1.8005645838102282,0.33569848172737693,-0.5188067444876197
1658789414978854,4.058899824521177,0.15259021896690683,-0.7019150072480898
1658789414994848,3.7537193865873633,0.45777065690094787,-1.2512397955290453
1658789415010843,2.227817196917613,0.03051804379333589,-1.6174563210497581
1658789415026837,2.288853284504512,-0.5188067444876197,-1.4953841458761872
1658789415042832,3.1433585107195086,-0.09155413138023505,-1.1291676203554744
1658789415058827,1.983672846570471,0.03051804379333589,-0.9460593575952316
1658789415074821,0.7019150072480898,0.09155413138023505,-1.1291676203554744
1658789415090816,1.4343480582895154,-0.03051804379333589,-0.7019150072480898
1658789415106810,2.8381780727854675,-0.09155413138023505,-0.5188067444876197
1658789415122805,3.0212863355459376,0.15259021896690683,-1.0070954451819034
1658789415138672,2.5940337224383256,-0.03051804379333589,-1.2512397955290453
1658789415154666,1.4953841458761872,-0.3967345693140487,-0.7019150072480898
1658789415170660,1.0681315327688026,-0.213626306553806,-0.33569848172737693
1658789415186654,1.983672846570471,0.213626306553806,-0.8850232700083325
1658789415202648,2.105745021744042,-0.45777065690094787,-0.9460593575952316
1658789415218642,0.8850232700083325,-1.8616006713969,-0.8239871824216607
1658789415234636,-0.45777065690094787,-1.9226367589837992,-0.3967345693140487
1658789415250630,-0.5798428320745188,-0.8850232700083325,-0.3967345693140487
1658789415266624,1.8616006713969,-0.8239871824216607,-0.7019150072480898
1658789415282618,3.0212863355459376,-1.983672846570471,-0.6408789196611906
1658789415298612,0.2746623941404778,-1.8005645838102282,-0.6408789196611906
1658789415314606,-2.166781109330941,-1.0681315327688026,-0.9460593575952316
1658789415330600,-0.6408789196611906,-0.9460593575952316,-1.0681315327688026
1658789415346594,1.4953841458761872,-1.4343480582895154,-0.7629510948347615
1658789415362589,0.5798428320745188,-1.6174563210497581,-0.7629510948347615
1658789415378583,-1.1902037079423735,-0.5798428320745188,-0.7629510948347615
1658789415394577,0.6408789196611906,0.2746623941404778,-0.8850232700083325
1658789415410571,3.0823224231326094,-0.45777065690094787,-0.6408789196611906
1658789415426565,3.2043945983061803,-0.33569848172737693,-0.2746623941404778
1658789415442559,0.5798428320745188,-0.15259021896690683,-0.6408789196611906
1658789415458404,0.213626306553806,-0.03051804379333589,-0.6408789196611906
1658789415474398,2.227817196917613,0.213626306553806,-0.2746623941404778
1658789415490391,3.0823224231326094,-0.2746623941404778,-0.45777065690094787
1658789415506385,2.288853284504512,-0.5188067444876197,-0.2746623941404778
1658789415522379,-0.6408789196611906,-0.5798428320745188,-0.15259021896690683
1658789415538372,-1.4953841458761872,0.15259021896690683,-0.5188067444876197
1658789415554366,0.45777065690094787,0.213626306553806,-0.5188067444876197
1658789415570359,2.3498893720911838,0.09155413138023505,-0.2746623941404778
1658789415586353,0.7019150072480898,-0.3967345693140487,-0.15259021896690683
1658789415602347,-0.7629510948347615,-0.15259021896690683,-0.45777065690094787
1658789415618340,0.09155413138023505,0.33569848172737693,-0.8850232700083325
1658789415634334,1.5564202334630863,-0.03051804379333589,-0.8239871824216607
1658789415650327,2.8992141603723667,-0.33569848172737693,-0.6408789196611906
1658789415666321,2.5940337224383256,-0.213626306553806,-1.0070954451819034
1658789415682314,0.7629510948347615,0.03051804379333589,-1.2512397955290453
1658789415698308,-0.8239871824216607,-0.5798428320745188,-1.3122758831159445
1658789415714302,-1.4343480582895154,-0.7019150072480898,-1.1291676203554744
1658789415730295,-1.6174563210497581,-0.03051804379333589,-0.7629510948347615
1658789415746289,0.15259021896690683,-0.03051804379333589,-0.8239871824216607
1658789415762282,1.2512397955290453,-0.7019150072480898,-1.3122758831159445
1658789415778198,0.6408789196611906,-1.3122758831159445,-1.4343480582895154
1658789415794191,0.09155413138023505,-0.8850232700083325,-1.4953841458761872
1658789415810184,2.3498893720911838,-0.45777065690094787,-1.6174563210497581
1658789415826177,3.3264667734797513,-0.7019150072480898,-1.8005645838102282
1658789415842170,1.0070954451819034,-0.8850232700083325,-1.6174563210497581
1658789415858163,-1.2512397955290453,-1.1902037079423735,-1.0070954451819034
1658789415874157,-0.7019150072480898,-0.5188067444876197,-0.8850232700083325
1658789415890150,0.8239871824216607,-0.213626306553806,-0.8850232700083325
1658789415906143,1.6784924086366573,-0.7019150072480898,-0.7629510948347615
1658789415922136,0.213626306553806,-0.8239871824216607,-0.5188067444876197
1658789415938129,0.5188067444876197,-0.5798428320745188,-0.6408789196611906
1658789415954122,1.3733119707026162,-0.7019150072480898,-0.3967345693140487
1658789415970115,1.8616006713969,-0.33569848172737693,-0.213626306553806
1658789415986108,1.6784924086366573,-0.6408789196611906,-0.33569848172737693
1658789416002102,0.6408789196611906,-0.6408789196611906,-0.5188067444876197
1658789416018095,0.6408789196611906,-1.1902037079423735,-0.2746623941404778
1658789416034088,0.8850232700083325,-0.9460593575952316,-0.2746623941404778
1658789416050081,1.1902037079423735,-1.0681315327688026,-0.03051804379333589
1658789416066074,0.213626306553806,-1.5564202334630863,0.09155413138023505
1658789416082067,-0.3967345693140487,-1.0681315327688026,-0.3967345693140487
1658789416097931,-0.213626306553806,-0.7629510948347615,-0.6408789196611906
1658789416113923,0.8850232700083325,-0.9460593575952316,-0.33569848172737693
1658789416129916,0.7629510948347615,-1.3733119707026162,-0.15259021896690683
1658789416145908,-0.03051804379333589,-1.6174563210497581,-0.3967345693140487
1658789416161901,0.09155413138023505,-1.8005645838102282,-0.6408789196611906
1658789416177894,0.2746623941404778,-1.4953841458761872,-0.8850232700083325
1658789416193886,0.3967345693140487,-1.739528496223329,-0.5798428320745188
1658789416209879,0.2746623941404778,-1.2512397955290453,-0.3967345693140487
1658789416225872,1.1291676203554744,-0.7629510948347615,-0.5798428320745188
1658789416241864,0.7629510948347615,-0.7629510948347615,-0.8850232700083325
1658789416257857,0.15259021896690683,-0.8850232700083325,-1.1291676203554744
1658789416273850,-0.3967345693140487,-0.8239871824216607,-1.1291676203554744
1658789416289842,0.45777065690094787,-0.213626306553806,-1.0070954451819034
1658789416305835,3.2043945983061803,-0.33569848172737693,-1.0681315327688026
1658789416321828,4.364080262455218,-0.9460593575952316,-0.8850232700083325
1658789416337820,2.532997634851654,-1.4343480582895154,-1.1291676203554744
1658789416353813,0.5798428320745188,-0.7019150072480898,-1.4343480582895154
1658789416369805,0.9460593575952316,-0.33569848172737693,-0.9460593575952316
1658789416385798,2.655069810025225,-0.33569848172737693,-0.6408789196611906
1658789416401791,2.655069810025225,-0.8239871824216607,-1.0070954451819034
1658789416417694,1.4953841458761872,-0.8239871824216607,-1.3733119707026162
1658789416433686,0.5798428320745188,-0.7019150072480898,-1.0681315327688026
1658789416449678,-0.3967345693140487,-1.1291676203554744,-0.9460593575952316
1658789416465670,0.213626306553806,-1.6174563210497581,-0.5188067444876197
1658789416481662,0.7019150072480898,-1.6174563210497581,-0.3967345693140487
1658789416497655,0.3967345693140487,-1.1902037079423735,-0.7629510948347615
1658789416513647,-1.0070954451819034,-1.4343480582895154,-1.0070954451819034
1658789416529639,0.5798428320745188,-1.2512397955290453,-1.0681315327688026
1658789416545631,1.0681315327688026,-0.5188067444876197,-1.1902037079423735
1658789416561623,1.3733119707026162,-0.3967345693140487,-1.5564202334630863
1658789416577615,-0.213626306553806,-0.8239871824216607,-1.5564202334630863
1658789416593608,-2.8381780727854675,-1.4953841458761872,-1.5564202334630863
1658789416609600,-5.157549401083315,-1.6174563210497581,-1.6784924086366573
1658789416625592,-4.60822461280236,-1.1291676203554744,-1.2512397955290453
1658789416641584,-4.119935912108076,-1.3733119707026162,-0.45777065690094787
1658789416657576,-4.669260700389032,-3.0212863355459376,-0.45777065690094787
1658789416673568,-6.744487678339738,-3.875791561760934,-0.8239871824216607
1658789416689561,-3.814755474174035,-2.105745021744042,-0.7629510948347615
1658789416705553,-0.7019150072480898,-0.7019150072480898,-0.8850232700083325
1658789416721545,1.6784924086366573,-0.7629510948347615,-1.3733119707026162
1658789416737457,1.0681315327688026,-0.7019150072480898,-1.3733119707026162
1658789416753449,0.8850232700083325,-0.213626306553806,-1.6174563210497581
1658789416769441,1.9226367589837992,0.3967345693140487,-1.6784924086366573
1658789416785433,3.0212863355459376,0.33569848172737693,-1.0681315327688026
1658789416801426,1.4953841458761872,-0.15259021896690683,-0.6408789196611906
1658789416817418,0.03051804379333589,-0.03051804379333589,-0.5188067444876197
1658789416833410,2.288853284504512,1.0070954451819034,-0.7629510948347615
1658789416849402,3.875791561760934,0.5188067444876197,-0.6408789196611906
1658789416865394,1.6174563210497581,-0.5188067444876197,-0.8239871824216607
1658789416881386,-1.4343480582895154,-0.3967345693140487,-1.0070954451819034
1658789416897379,-0.8239871824216607,0.3967345693140487,-0.6408789196611906
1658789416913371,1.8005645838102282,-0.03051804379333589,-0.09155413138023505
1658789416929363,2.4719615472647547,-0.45777065690094787,0.213626306553806
1658789416945355,-0.7019150072480898,-0.7629510948347615,0.213626306553806
1658789416961347,-0.09155413138023505,0.03051804379333589,0.45777065690094787
1658789416977339,1.8005645838102282,-0.09155413138023505,0.45777065690094787
1658789416993332,3.692683299000464,-0.8239871824216607,-0.09155413138023505
1658789417009324,3.3264667734797513,-1.3733119707026162,-0.15259021896690683
1658789417025316,2.105745021744042,-1.1291676203554744,-0.3967345693140487
1658789417041308,1.2512397955290453,-0.7019150072480898,-0.8850232700083325
1658789417057220,-0.5188067444876197,-1.1291676203554744,-0.7629510948347615
1658789417073212,-0.7019150072480898,-1.6174563210497581,-0.2746623941404778
1658789417089203,-0.45777065690094787,-1.739528496223329,0.09155413138023505
1658789417105195,1.3122758831159445,-0.5188067444876197,-0.09155413138023505
1658789417121187,1.0681315327688026,-0.5188067444876197,-0.213626306553806
1658789417137179,0.8239871824216607,-1.0070954451819034,-0.15259021896690683
1658789417153170,1.5564202334630863,-1.2512397955290453,-0.03051804379333589
1658789417169162,1.5564202334630863,-1.739528496223329,-0.3967345693140487
1658789417185154,1.6174563210497581,-1.1902037079423735,-0.8850232700083325
1658789417201145,0.6408789196611906,-1.4953841458761872,-0.6408789196611906
1658789417217137,0.5798428320745188,-1.9226367589837992,-0.45777065690094787
1658789417233129,1.1291676203554744,-0.7019150072480898,-0.8850232700083325
1658789417249120,0.5798428320745188,-0.9460593575952316,-1.4953841458761872
1658789417265112,0.5188067444876197,-1.8005645838102282,-1.2512397955290453
1658789417281104,-0.3967345693140487,-1.6174563210497581,-1.3733119707026162
1658789417297095,-0.33569848172737693,-1.4953841458761872,-1.4343480582895154
1658789417313087,1.1291676203554744,-1.6784924086366573,-1.3733119707026162
1658789417329079,1.4953841458761872,-2.410925459678083,-1.6784924086366573
1658789417345070,-0.45777065690094787,-1.4953841458761872,-1.3733119707026162
1658789417361062,0.15259021896690683,-0.9460593575952316,-1.0681315327688026
1658789417376953,2.8381780727854675,-0.09155413138023505,-0.8850232700083325
1658789417392944,4.852368963149502,-0.3967345693140487,-1.1902037079423735
1658789417408935,3.692683299000464,-0.3967345693140487,-1.1902037079423735
1658789417424926,0.15259021896690683,-0.3967345693140487,-0.8850232700083325
1658789417440918,0.7019150072480898,-0.3967345693140487,-1.0070954451819034
1658789417456909,1.9226367589837992,-1.0681315327688026,-1.0681315327688026
1658789417472900,0.6408789196611906,-2.04470893415737,-0.9460593575952316
1658789417488891,-4.242008087281647,-1.9226367589837992,-0.5188067444876197
1658789417504882,-8.941786831464015,-2.04470893415737,-0.15259021896690683
1658789417520874,-8.148317692835917,-2.4719615472647547,-0.7019150072480898
1658789417536865,-6.317235065232353,-2.410925459678083,-1.1902037079423735
1658789417552856,-7.17174029144735,-4.058899824521177,-1.6174563210497581
1658789417568847,-7.598992904554734,-3.2043945983061803,-1.8616006713969
1658789417584838,-3.570611123826893,-1.0070954451819034,-1.739528496223329
1658789417600830,3.1433585107195086,-0.03051804379333589,-1.6784924086366573
1658789417616821,5.401693751430457,0.15259021896690683,-1.3733119707026162
1658789417632812,2.4719615472647547,0.3967345693140487,-1.1902037079423735
1658789417648803,1.1902037079423735,0.8239871824216607,-1.1902037079423735
1658789417664795,1.6784924086366573,0.5798428320745188,-1.1902037079423735
1658789417680786,2.532997634851654,0.09155413138023505,-0.8239871824216607
1658789417696716,2.4719615472647547,0.15259021896690683,-0.15259021896690683
1658789417712707,1.1291676203554744,1.0681315327688026,-0.213626306553806
1658789417728698,1.5564202334630863,0.7629510948347615,-0.09155413138023505
1658789417744690,1.0070954451819034,0.03051804379333589,0.2746623941404778
1658789417760681,-1.0681315327688026,-0.03051804379333589,0.3967345693140487
1658789417776672,-0.5798428320745188,0.45777065690094787,0.2746623941404778
1658789417792663,2.410925459678083,0.2746623941404778,0.33569848172737693
1658789417808654,3.4485389486533222,-0.5188067444876197,0.33569848172737693
1658789417824646,1.6174563210497581,-0.7629510948347615,0.3967345693140487
1658789417840637,-0.15259021896690683,-0.2746623941404778,0.2746623941404778
1658789417856628,1.0070954451819034,-0.3967345693140487,0.3967345693140487
1658789417872619,0.7629510948347615,-1.3122758831159445,0.8239871824216607
1658789417888610,1.3122758831159445,-1.9226367589837992,0.8239871824216607
1658789417904602,-0.45777065690094787,-1.8005645838102282,0.7629510948347615
1658789417920593,-1.6174563210497581,-1.1902037079423735,0.33569848172737693
1658789417936584,-0.213626306553806,-1.3733119707026162,0.09155413138023505
1658789417952575,0.9460593575952316,-1.6174563210497581,-0.03051804379333589
1658789417968567,-0.03051804379333589,-1.0070954451819034,-0.09155413138023505
1658789417984558,-0.6408789196611906,-1.4343480582895154,-0.2746623941404778
1658789418000549,0.213626306553806,-1.4343480582895154,-0.5798428320745188
1658789418016479,0.6408789196611906,-1.8005645838102282,-0.33569848172737693
1658789418032470,0.7019150072480898,-1.1902037079423735,-0.09155413138023505
1658789418048461,1.8616006713969,-0.213626306553806,-0.33569848172737693
1658789418064451,3.7537193865873633,-1.0681315327688026,-0.5188067444876197
1658789418080442,3.814755474174035,-1.6174563210497581,-0.03051804379333589
1658789418096433,2.655069810025225,-1.739528496223329,-0.45777065690094787
1658789418112424,1.4343480582895154,-1.3733119707026162,-0.8850232700083325
1658789418128414,1.8005645838102282,-1.1291676203554744,-0.7629510948347615
1658789418144405,1.4343480582895154,-0.5798428320745188,-0.8850232700083325
1658789418160396,0.213626306553806,-0.2746623941404778,-0.8850232700083325
1658789418176386,-0.33569848172737693,0.15259021896690683,-0.6408789196611906
1658789418192377,1.5564202334630863,0.5188067444876197,-0.2746623941404778
1658789418208368,3.0823224231326094,0.2746623941404778,-0.2746623941404778
1658789418224359,3.2654306858930795,-0.5188067444876197,-0.09155413138023505
1658789418240349,1.1291676203554744,-0.5798428320745188,0.6408789196611906
1658789418256340,0.5798428320745188,-0.5798428320745188,0.7019150072480898
1658789418272331,0.9460593575952316,-0.5798428320745188,0.5798428320745188
1658789418288322,2.410925459678083,-0.7019150072480898,0.8850232700083325
1658789418304312,0.8239871824216607,-0.8850232700083325,0.9460593575952316
1658789418320303,-0.7019150072480898,-0.33569848172737693,0.7019150072480898
1658789418336212,-0.8239871824216607,-0.5188067444876197,0.6408789196611906
1658789418352202,-0.5188067444876197,-1.1902037079423735,0.8850232700083325
1658789418368192,0.45777065690094787,-0.7629510948347615,1.1902037079423735
1658789418384183,0.7629510948347615,-0.03051804379333589,0.9460593575952316
1658789418400173,1.1902037079423735,-0.09155413138023505,0.7019150072480898
1658789418416163,1.6784924086366573,-0.7019150072480898,0.7629510948347615
1658789418432153,0.8239871824216607,-0.8850232700083325,1.0070954451819034
1658789418448144,0.7629510948347615,-0.213626306553806,0.6408789196611906
1658789418464134,0.03051804379333589,-0.2746623941404778,0.45777065690094787
1658789418480124,0.6408789196611906,-0.8239871824216607,0.33569848172737693
1658789418496114,1.5564202334630863,-1.2512397955290453,0.3967345693140487
1658789418512105,0.09155413138023505,-1.1902037079423735,0.7019150072480898
1658789418528095,-0.7629510948347615,-0.6408789196611906,-0.03051804379333589
1658789418544085,-0.8239871824216607,-1.4343480582895154,-0.3967345693140487
1658789418560075,0.5188067444876197,-2.227817196917613,-0.15259021896690683
1658789418576066,-0.03051804379333589,-2.105745021744042,-0.03051804379333589
1658789418592056,-1.3733119707026162,-1.6784924086366573,-0.09155413138023505
1658789418608046,-0.8239871824216607,-1.5564202334630863,-0.3967345693140487
1658789418624036,1.1291676203554744,-2.166781109330941,-0.213626306553806
1658789418640027,3.7537193865873633,-1.5564202334630863,-0.5188067444876197
1658789418655975,4.486152437628789,-0.5798428320745188,-1.0681315327688026
1658789418671965,3.936827649347606,-1.1291676203554744,-1.1291676203554744
1658789418687955,1.3122758831159445,-1.983672846570471,-0.7629510948347615
1658789418703946,-1.6174563210497581,-1.4953841458761872,-0.7629510948347615
1658789418719936,-1.3733119707026162,-0.7629510948347615,-1.0070954451819034
1658789418735926,1.739528496223329,-0.5188067444876197,-1.2512397955290453
1658789418751917,3.1433585107195086,-0.8239871824216607,-1.2512397955290453
1658789418767907,0.7019150072480898,-1.1902037079423735,-1.1291676203554744
1658789418783897,-0.8239871824216607,-0.7629510948347615,-1.1902037079423735
1658789418799887,0.03051804379333589,-0.45777065690094787,-1.3733119707026162
1658789418815878,3.2043945983061803,-0.9460593575952316,-1.2512397955290453
1658789418831868,3.814755474174035,-1.4953841458761872,-1.0681315327688026
1658789418847858,1.5564202334630863,-0.9460593575952316,-1.3733119707026162
1658789418863848,0.2746623941404778,0.09155413138023505,-1.4343480582895154
1658789418879839,3.2043945983061803,0.5798428320745188,-1.3733119707026162
1658789418895829,3.4485389486533222,-0.09155413138023505,-1.0681315327688026
1658789418911819,-0.45777065690094787,-0.3967345693140487,-1.0070954451819034
1658789418927809,-3.570611123826893,0.15259021896690683,-1.0681315327688026
1658789418943800,-0.5798428320745188,0.213626306553806,-1.0070954451819034
1658789418959790,3.2043945983061803,-0.6408789196611906,-0.2746623941404778
1658789418975708,3.3875028610666504,-1.2512397955290453,-0.09155413138023505
1658789418991697,0.45777065690094787,-0.6408789196611906,-0.3967345693140487
1658789419007687,-0.7019150072480898,-0.2746623941404778,-0.2746623941404778
1658789419023677,0.45777065690094787,-0.6408789196611906,0.03051804379333589
1658789419039667,2.227817196917613,-0.3967345693140487,0.03051804379333589
1658789419055657,-0.03051804379333589,-0.3967345693140487,-0.09155413138023505
1658789419071646,-1.6174563210497581,0.15259021896690683,-0.3967345693140487
1658789419087636,-0.2746623941404778,-0.03051804379333589,-0.6408789196611906
1658789419103626,1.3122758831159445,-0.9460593575952316,-0.33569848172737693
1658789419119616,0.5188067444876197,-1.3122758831159445,0.33569848172737693
1658789419135605,-0.8850232700083325,-0.5798428320745188,0.2746623941404778
1658789419151595,1.3122758831159445,-0.5798428320745188,-0.03051804379333589
1658789419167585,2.9602502479590385,-1.2512397955290453,0.09155413138023505
1658789419183575,0.8850232700083325,-1.3122758831159445,0.213626306553806
1658789419199565,-1.0070954451819034,-0.213626306553806,-0.213626306553806
1658789419215554,-0.15259021896690683,0.6408789196611906,-0.7019150072480898
1658789419231544,0.6408789196611906,0.15259021896690683,-0.5798428320745188
1658789419247534,-0.2746623941404778,-0.5188067444876197,-0.33569848172737693
1658789419263524,-2.655069810025225,-0.213626306553806,-0.9460593575952316
1658789419279513,-2.7771419851987957,-0.09155413138023505,-1.0681315327688026
1658789419295471,-0.09155413138023505,-0.9460593575952316,-0.8850232700083325
1658789419311461,2.5940337224383256,-1.4953841458761872,-0.3967345693140487
1658789419327450,4.242008087281647,-1.4343480582895154,-0.5798428320745188
1658789419343440,4.058899824521177,-1.0070954451819034,-1.3122758831159445
1658789419359430,1.3122758831159445,-0.9460593575952316,-1.4953841458761872
1658789419375420,0.03051804379333589,-1.4953841458761872,-1.3122758831159445
1658789419391409,-0.3967345693140487,-1.5564202334630863,-1.739528496223329
1658789419407399,0.5798428320745188,0.2746623941404778,-2.166781109330941
1658789419423389,2.410925459678083,-0.03051804379333589,-1.983672846570471
1658789419439379,3.4485389486533222,-0.6408789196611906,-2.3498893720911838
1658789419455369,0.7019150072480898,-1.0681315327688026,-2.410925459678083
1658789419471358,-2.4719615472647547,-0.8850232700083325,-2.227817196917613
1658789419487348,-0.9460593575952316,-0.213626306553806,-1.9226367589837992
1658789419503338,2.7771419851987957,-0.3967345693140487,-1.6174563210497581
1658789419519328,1.8005645838102282,-1.0070954451819034,-1.3122758831159445
1658789419535318,-1.1291676203554744,-0.7019150072480898,-1.6784924086366573
1658789419551307,-1.1902037079423735,0.15259021896690683,-1.5564202334630863
1658789419567297,0.9460593575952316,-0.213626306553806,-1.0070954451819034
1658789419583287,1.3733119707026162,-0.5188067444876197,-0.6408789196611906
1658789419599277,1.3122758831159445,-0.2746623941404778,-0.33569848172737693
1658789419615203,1.5564202334630863,0.213626306553806,-0.3967345693140487
1658789419631193,2.227817196917613,0.03051804379333589,-0.2746623941404778
1658789419647183,3.6316472114137923,-0.213626306553806,0.45777065690094787
1658789419663173,1.8005645838102282,-0.15259021896690683,1.0070954451819034
1658789419679163,-0.2746623941404778,0.7629510948347615,0.8850232700083325
1658789419695152,-0.8850232700083325,0.8850232700083325,1.0070954451819034
1658789419711142,0.3967345693140487,-0.5188067444876197,1.0070954451819034
1658789419727132,-0.3967345693140487,-1.2512397955290453,1.2512397955290453
1658789419743122,-1.4953841458761872,-1.0681315327688026,1.3122758831159445
1658789419759112,-0.8239871824216607,-1.0070954451819034,1.0681315327688026
1658789419775101,1.0070954451819034,-2.166781109330941,1.3733119707026162
1658789419791091,1.0681315327688026,-1.9226367589837992,1.1902037079423735
1658789419807081,-0.8239871824216607,-0.3967345693140487,0.9460593575952316
1658789419823071,-0.2746623941404778,0.213626306553806,0.45777065690094787
1658789419839060,0.7629510948347615,-0.5798428320745188,0.213626306553806
1658789419855050,-0.33569848172737693,-1.3733119707026162,0.2746623941404778
1658789419871040,-1.739528496223329,-0.8239871824216607,-0.09155413138023505
1658789419887030,-1.8616006713969,-0.213626306553806,-0.5188067444876197
1658789419903020,0.8239871824216607,-0.5798428320745188,-0.8239871824216607
1658789419919009,2.04470893415737,-0.8239871824216607,-0.5798428320745188
1658789419934967,0.33569848172737693,-1.2512397955290453,-0.6408789196611906
1658789419950956,0.7629510948347615,-0.8239871824216607,-0.3967345693140487
1658789419966945,1.8005645838102282,-0.6408789196611906,-0.15259021896690683
1658789419982935,2.7771419851987957,-1.4343480582895154,-0.6408789196611906
1658789419998924,1.8005645838102282,-2.04470893415737,-1.0070954451819034
1658789420014913,0.2746623941404778,-1.8616006713969,-0.8239871824216607
1658789420030902,3.814755474174035,-0.5798428320745188,-1.0070954451819034
1658789420046892,4.119935912108076,-0.5188067444876197,-1.5564202334630863
1658789420062881,0.3967345693140487,-1.1291676203554744,-1.6174563210497581
1658789420078870,-1.2512397955290453,-1.0681315327688026,-1.739528496223329
1658789420094860,-0.5798428320745188,-0.3967345693140487,-2.04470893415737
1658789420110849,1.5564202334630863,-0.2746623941404778,-1.739528496223329
1658789420126838,2.227817196917613,-0.9460593575952316,-1.3122758831159445
1658789420142828,1.4953841458761872,-0.9460593575952316,-1.0070954451819034
1658789420158817,1.3733119707026162,-1.0070954451819034,-0.8850232700083325
1658789420174806,0.7629510948347615,-0.6408789196611906,-1.3733119707026162
1658789420190796,1.4953841458761872,-0.5188067444876197,-1.1902037079423735
1658789420206785,1.8005645838102282,-0.5798428320745188,-0.7629510948347615
1658789420222774,0.9460593575952316,-0.213626306553806,-0.33569848172737693
1658789420238763,-0.03051804379333589,0.09155413138023505,0.33569848172737693
1658789420254699,0.5798428320745188,-0.03051804379333589,0.15259021896690683
1658789420270689,2.5940337224383256,-0.45777065690094787,-0.09155413138023505
1658789420286678,3.3264667734797513,-0.7629510948347615,-0.03051804379333589
1658789420302667,1.2512397955290453,-0.33569848172737693,-0.3967345693140487
1658789420318657,0.33569848172737693,-0.15259021896690683,-0.15259021896690683
1658789420334646,0.03051804379333589,-0.5798428320745188,-0.213626306553806
1658789420350635,0.33569848172737693,-1.1902037079423735,-0.2746623941404778
1658789420366624,0.3967345693140487,-0.6408789196611906,0.2746623941404778
1658789420382614,1.4343480582895154,0.5188067444876197,0.15259021896690683
1658789420398603,1.8616006713969,-0.09155413138023505,-0.03051804379333589
1658789420414592,2.5940337224383256,-0.7629510948347615,0.33569848172737693
1658789420430582,1.4343480582895154,-1.0070954451819034,0.15259021896690683
1658789420446571,0.3967345693140487,-1.0070954451819034,-0.45777065690094787
1658789420462560,0.6408789196611906,-0.3967345693140487,-0.5188067444876197
1658789420478550,1.5564202334630863,-0.3967345693140487,-0.45777065690094787
1658789420494539,1.1291676203554744,-0.33569848172737693,-0.7629510948347615
1658789420510528,0.5188067444876197,0.09155413138023505,-0.9460593575952316
1658789420526517,0.8850232700083325,-0.09155413138023505,-0.6408789196611906
1658789420542507,1.1291676203554744,-0.6408789196611906,-0.45777065690094787
1658789420558496,0.9460593575952316,-0.3967345693140487,-0.5798428320745188
1658789420574463,0.5798428320745188,-0.15259021896690683,-0.5798428320745188
1658789420590452,1.3733119707026162,0.03051804379333589,-0.5188067444876197
1658789420606441,3.1433585107195086,-0.45777065690094787,-0.3967345693140487
1658789420622430,3.3875028610666504,-0.6408789196611906,-0.5798428320745188
1658789420638420,1.4953841458761872,-0.2746623941404778,-0.9460593575952316
1658789420654409,0.33569848172737693,-0.45777065690094787,-0.8850232700083325
1658789420670398,0.09155413138023505,-1.8005645838102282,-0.3967345693140487
1658789420686388,0.7019150072480898,-2.04470893415737,0.6408789196611906
1658789420702377,0.7019150072480898,-1.8005645838102282,0.8239871824216607
1658789420718366,-0.3967345693140487,-1.3733119707026162,0.33569848172737693
1658789420734356,-0.6408789196611906,-1.3122758831159445,0.6408789196611906
1658789420750345,-0.3967345693140487,-1.8616006713969,1.3122758831159445
1658789420766334,-0.03051804379333589,-1.6784924086366573,1.2512397955290453
1658789420782323,0.8850232700083325,-1.1902037079423735,0.5798428320745188
1658789420798313,1.6174563210497581,-1.2512397955290453,0.15259021896690683
1658789420814302,1.5564202334630863,-2.04470893415737,0.3967345693140487
1658789420830291,2.227817196917613,-2.3498893720911838,0.45777065690094787
1658789420846281,2.7161058976118966,-1.5564202334630863,0.7019150072480898
1658789420862270,1.6784924086366573,-2.655069810025225,-0.03051804379333589
1658789420878259,1.983672846570471,-2.8381780727854675,-0.9460593575952316
1658789420894226,-0.09155413138023505,-2.8381780727854675,-0.8850232700083325
1658789420910215,-0.7019150072480898,-2.04470893415737,-1.2512397955290453
1658789420926203,1.6174563210497581,-1.6784924086366573,-1.1902037079423735
1658789420942192,2.105745021744042,-2.4719615472647547,-1.0681315327688026
1658789420958181,1.4343480582895154,-2.4719615472647547,-1.1291676203554744
1658789420974170,0.8239871824216607,-1.6784924086366573,-1.3733119707026162
1658789420990159,1.1902037079423735,-1.983672846570471,-1.3122758831159445
1658789421006147,1.4343480582895154,-1.6784924086366573,-1.0070954451819034
1658789421022136,0.09155413138023505,-1.4343480582895154,-0.9460593575952316
1658789421038125,-0.3967345693140487,-1.0681315327688026,-0.7629510948347615
1658789421054114,1.0070954451819034,-0.213626306553806,-0.8850232700083325
1658789421070103,2.105745021744042,-0.09155413138023505,-0.6408789196611906
1658789421086092,2.532997634851654,-0.7019150072480898,-0.45777065690094787
1658789421102080,2.105745021744042,-0.5798428320745188,-0.15259021896690683
1658789421118069,1.0681315327688026,-0.9460593575952316,0.03051804379333589
1658789421134058,1.8616006713969,-1.4343480582895154,-0.45777065690094787
1658789421150047,2.655069810025225,-1.1902037079423735,-0.7629510948347615
1658789421166036,0.8850232700083325,-0.8850232700083325,-0.7629510948347615
1658789421182025,-0.7629510948347615,-0.2746623941404778,-0.7629510948347615
1658789421198013,-0.9460593575952316,-0.5188067444876197,-0.9460593575952316
1658789421213989,0.03051804379333589,-0.7019150072480898,-1.0070954451819034
1658789421229978,0.6408789196611906,0.03051804379333589,-0.8239871824216607
1658789421245967,-0.09155413138023505,0.213626306553806,-0.6408789196611906
1658789421261955,-0.6408789196611906,-0.213626306553806,-0.5188067444876197
1658789421277944,-0.45777065690094787,-0.5188067444876197,-0.09155413138023505
1658789421293933,0.5798428320745188,-0.5798428320745188,0.09155413138023505
1658789421309922,0.9460593575952316,0.03051804379333589,-0.03051804379333589
1658789421325911,0.5798428320745188,0.213626306553806,-0.3967345693140487
1658789421341899,0.3967345693140487,-0.3967345693140487,-0.2746623941404778
1658789421357888,-0.9460593575952316,-0.5188067444876197,0.15259021896690683
1658789421373877,0.09155413138023505,0.213626306553806,0.15259021896690683
1658789421389866,1.1291676203554744,0.33569848172737693,-0.213626306553806
1658789421405855,2.655069810025225,-0.45777065690094787,-0.8239871824216607
1658789421421844,0.8239871824216607,-1.3122758831159445,-0.33569848172737693
1658789421437832,-0.5798428320745188,-1.1291676203554744,-0.2746623941404778
1658789421453821,0.7019150072480898,-1.3122758831159445,-0.3967345693140487
1658789421469810,2.7161058976118966,-2.105745021744042,-0.09155413138023505
1658789421485799,1.0070954451819034,-2.655069810025225,0.09155413138023505
1658789421501788,-1.9226367589837992,-1.8005645838102282,-0.3967345693140487
1658789421517777,-1.8616006713969,-0.7019150072480898,-0.8239871824216607
1658789421533722,0.5188067444876197,-0.9460593575952316,-0.7629510948347615
1658789421549710,0.7019150072480898,-1.6174563210497581,-0.6408789196611906
1658789421565699,0.213626306553806,-1.5564202334630863,-0.6408789196611906
1658789421581688,-0.2746623941404778,-1.1291676203554744,-0.9460593575952316
1658789421597677,1.0070954451819034,-1.3122758831159445,-1.0681315327688026
1658789421613666,2.655069810025225,-1.3733119707026162,-0.8850232700083325
1658789421629655,1.9226367589837992,-1.6174563210497581,-0.8850232700083325
1658789421645643,-0.5798428320745188,-1.1902037079423735,-0.9460593575952316
1658789421661632,-1.739528496223329,-1.4953841458761872,-1.1291676203554744
1658789421677621,0.33569848172737693,-1.8005645838102282,-1.2512397955290453
1658789421693610,2.4719615472647547,-1.739528496223329,-1.0070954451819034
1658789421709599,3.3264667734797513,-1.3733119707026162,-1.1291676203554744
1658789421725587,2.166781109330941,-0.5798428320745188,-0.8239871824216607
1658789421741576,1.1902037079423735,-1.1291676203554744,-0.5188067444876197
1658789421757565,0.33569848172737693,-2.166781109330941,-0.5798428320745188
1658789421773554,-0.7019150072480898,-2.7161058976118966,-0.2746623941404778
1658789421789543,-1.1291676203554744,-1.739528496223329,-0.2746623941404778
1658789421805532,-0.7019150072480898,-1.1291676203554744,-0.5798428320745188
1658789421821520,-0.09155413138023505,-1.3733119707026162,-0.33569848172737693
1658789421837509,-1.8616006713969,-1.4343480582895154,0.213626306553806
1658789421853485,0.03051804379333589,-0.5188067444876197,0.03051804379333589
1658789421869474,3.7537193865873633,0.15259021896690683,0.09155413138023505
1658789421885462,4.9134050507361735,-0.45777065690094787,-0.09155413138023505
1658789421901451,1.6784924086366573,-1.6784924086366573,0.213626306553806
1658789421917440,-2.3498893720911838,-1.1902037079423735,1.2512397955290453
1658789421933429,-3.0823224231326094,-0.09155413138023505,1.8005645838102282
1658789421949418,-0.7629510948347615,0.03051804379333589,1.6784924086366573
1658789421965407,-0.09155413138023505,-1.3122758831159445,1.8616006713969
1658789421981395,-0.2746623941404778,-1.6784924086366573,2.5940337224383256
1658789421997384,0.03051804379333589,-0.2746623941404778,2.166781109330941
1658789422013373,0.7019150072480898,0.15259021896690683,1.983672846570471
1658789422029362,1.0681315327688026,-0.5798428320745188,2.4719615472647547
1658789422045351,-0.45777065690094787,-0.9460593575952316,1.8005645838102282
1658789422061339,-1.0070954451819034,-0.33569848172737693,0.8850232700083325
1658789422077328,-0.5798428320745188,-0.45777065690094787,0.8239871824216607
1658789422093317,0.9460593575952316,-0.213626306553806,0.9460593575952316
1658789422109306,0.3967345693140487,-1.0070954451819034,1.0070954451819034
1658789422125295,-0.33569848172737693,-1.3733119707026162,0.45777065690094787
1658789422141284,-1.8005645838102282,-0.8850232700083325,0.6408789196611906
1658789422157272,-0.8239871824216607,-0.15259021896690683,0.6408789196611906
1658789422173248,0.33569848172737693,-0.03051804379333589,0.5798428320745188
1658789422189236,0.7629510948347615,-0.5188067444876197,0.33569848172737693
1658789422205225,1.1902037079423735,-0.3967345693140487,0.03051804379333589
1658789422221213,1.4343480582895154,0.213626306553806,-0.8850232700083325
1658789422237201,1.6174563210497581,0.33569848172737693,-1.6174563210497581
1658789422253190,0.45777065690094787,-0.3967345693140487,-1.3122758831159445
1658789422269178,-0.5798428320745188,-0.5798428320745188,-0.9460593575952316
1658789422285166,0.45777065690094787,0.213626306553806,-1.1291676203554744
1658789422301155,2.655069810025225,0.213626306553806,-1.9226367589837992
1658789422317143,3.6316472114137923,-0.6408789196611906,-2.166781109330941
1658789422333131,0.2746623941404778,-1.2512397955290453,-1.4953841458761872
1658789422349120,-2.7771419851987957,-0.45777065690094787,-1.5564202334630863
1658789422365108,-0.7629510948347615,0.15259021896690683,-2.04470893415737
1658789422381096,2.655069810025225,-0.5188067444876197,-1.8616006713969
1658789422397085,2.227817196917613,-1.0070954451819034,-1.8005645838102282
1658789422413073,0.09155413138023505,-0.7019150072480898,-1.6174563210497581
1658789422429062,0.3967345693140487,-0.213626306553806,-1.983672846570471
1658789422445050,3.6316472114137923,0.09155413138023505,-1.4343480582895154
1658789422461038,4.242008087281647,-0.7019150072480898,-0.6408789196611906
1658789422477027,1.2512397955290453,-1.1291676203554744,-0.7019150072480898
1658789422492981,-1.8616006713969,-0.3967345693140487,-0.7629510948347615
1658789422508969,-1.3733119707026162,-0.15259021896690683,-0.5798428320745188
1658789422524957,2.410925459678083,-0.213626306553806,0.03051804379333589
1658789422540946,2.532997634851654,-0.3967345693140487,0.45777065690094787
1658789422556934,0.03051804379333589,-0.8239871824216607,0.33569848172737693
1658789422572922,-3.997863736934505,-1.1902037079423735,0.7019150072480898
1658789422588911,-3.814755474174035,-1.5564202334630863,0.8850232700083325
1658789422604899,-1.1902037079423735,-1.6174563210497581,1.0070954451819034
1658789422620887,0.15259021896690683,-0.9460593575952316,0.8850232700083325
1658789422636876,-0.213626306553806,-0.33569848172737693,0.7019150072480898
1658789422652864,-1.9226367589837992,-0.9460593575952316,1.0070954451819034
1658789422668852,-2.9602502479590385,-1.3733119707026162,1.0070954451819034
1658789422684841,-1.1291676203554744,-0.213626306553806,0.7629510948347615
1658789422700829,2.3498893720911838,0.33569848172737693,0.15259021896690683
1658789422716817,3.6316472114137923,-0.6408789196611906,0.213626306553806
1658789422732806,2.7161058976118966,-1.0070954451819034,0.7019150072480898
1658789422748794,-1.1291676203554744,-0.45777065690094787,1.1902037079423735
1658789422764783,-2.4719615472647547,0.03051804379333589,1.4953841458761872
1658789422780771,-0.213626306553806,0.6408789196611906,1.4953841458761872
1658789422796759,0.8850232700083325,0.09155413138023505,1.4343480582895154
1658789422812744,-0.03051804379333589,-0.2746623941404778,1.0681315327688026
1658789422828732,-0.6408789196611906,-0.09155413138023505,0.33569848172737693
1658789422844720,-0.09155413138023505,-0.2746623941404778,0.213626306553806
1658789422860709,0.45777065690094787,-0.5188067444876197,0.8239871824216607
1658789422876697,0.03051804379333589,-0.5188067444876197,1.1291676203554744
1658789422892686,0.2746623941404778,-0.2746623941404778,0.6408789196611906
1658789422908674,1.3733119707026162,-0.2746623941404778,0.15259021896690683
1658789422924662,2.288853284504512,-1.0070954451819034,0.3967345693140487
1658789422940651,0.2746623941404778,-1.1291676203554744,0.5188067444876197
1658789422956639,-1.3122758831159445,-0.45777065690094787,0.09155413138023505
1658789422972627,-0.09155413138023505,-0.2746623941404778,-0.3967345693140487
1658789422988616,-0.15259021896690683,-1.1902037079423735,-0.15259021896690683
1658789423004604,-2.166781109330941,-1.6784924086366573,-0.15259021896690683
1658789423020592,-1.5564202334630863,-0.5798428320745188,-0.6408789196611906
1658789423036581,1.983672846570471,-0.15259021896690683,-1.0681315327688026
1658789423052569,3.997863736934505,-0.8239871824216607,-1.3122758831159445
1658789423068557,1.5564202334630863,-1.3122758831159445,-1.1902037079423735
1658789423084546,-1.5564202334630863,-0.9460593575952316,-1.6784924086366573
1658789423100534,-0.3967345693140487,-0.2746623941404778,-2.3498893720911838
1658789423116522,1.8005645838102282,-0.9460593575952316,-2.04470893415737
1658789423132476,2.5940337224383256,-1.5564202334630863,-2.04470893415737
1658789423148465,1.9226367589837992,-0.8239871824216607,-2.655069810025225
1658789423164453,0.33569848172737693,-0.09155413138023505,-2.9602502479590385
1658789423180441,0.213626306553806,-0.6408789196611906,-2.410925459678083
1658789423196430,0.8239871824216607,-1.0681315327688026,-1.8616006713969
1658789423212418,-0.213626306553806,-0.7019150072480898,-1.9226367589837992
1658789423228407,-0.213626306553806,0.2746623941404778,-2.166781109330941
1658789423244395,0.3967345693140487,-0.33569848172737693,-1.4343480582895154
1658789423260383,1.983672846570471,-0.8850232700083325,-0.8239871824216607
1658789423276372,1.5564202334630863,-0.7629510948347615,-0.8239871824216607
1658789423292360,2.3498893720911838,0.3967345693140487,-1.1291676203554744
1658789423308348,3.2043945983061803,0.33569848172737693,-0.7629510948347615
1658789423324337,1.8005645838102282,-0.2746623941404778,-0.2746623941404778
1658789423340325,-0.2746623941404778,-0.03051804379333589,0.45777065690094787
1658789423356313,-1.6784924086366573,0.6408789196611906,0.6408789196611906
1658789423372302,0.213626306553806,0.45777065690094787,0.3967345693140487
1658789423388290,1.8616006713969,-0.09155413138023505,0.2746623941404778
1658789423404278,0.7629510948347615,-0.2746623941404778,0.3967345693140487
1658789423420267,-0.5798428320745188,0.3967345693140487,0.45777065690094787
1658789423436255,-1.1291676203554744,0.2746623941404778,0.3967345693140487
1658789423452240,-0.5188067444876197,-0.2746623941404778,1.0070954451819034
1658789423468228,-0.5188067444876197,-0.33569848172737693,1.2512397955290453
1658789423484216,-0.33569848172737693,-0.33569848172737693,0.7629510948347615
1658789423500205,1.0681315327688026,0.45777065690094787,0.213626306553806
1658789423516193,2.04470893415737,0.33569848172737693,0.15259021896690683
1658789423532181,1.6784924086366573,-0.03051804379333589,0.3967345693140487
1658789423548170,-0.6408789196611906,0.5798428320745188,0.213626306553806
1658789423564158,-1.4343480582895154,0.2746623941404778,-0.09155413138023505
1658789423580146,-0.45777065690094787,-0.5188067444876197,0.09155413138023505
1658789423596135,-0.2746623941404778,-1.0681315327688026,-0.213626306553806
1658789423612123,0.15259021896690683,-0.15259021896690683,-0.7019150072480898
1658789423628111,0.5188067444876197,0.03051804379333589,-0.7019150072480898
1658789423644100,1.4343480582895154,-0.7629510948347615,-0.45777065690094787
1658789423660088,1.1902037079423735,-1.0681315327688026,-0.6408789196611906
1658789423676077,-0.8239871824216607,-0.8239871824216607,-1.2512397955290453
1658789423692065,-1.0681315327688026,0.03051804379333589,-1.3733119707026162
1658789423708053,1.6174563210497581,-0.3967345693140487,-0.9460593575952316
1658789423724042,2.7161058976118966,-1.1291676203554744,-1.1291676203554744
1658789423740030,-0.03051804379333589,-0.7629510948347615,-1.1902037079423735
1658789423756018,-0.45777065690094787,-0.2746623941404778,-1.1291676203554744
1658789423771972,0.9460593575952316,-0.6408789196611906,-1.1291676203554744
1658789423787960,3.2043945983061803,-1.0681315327688026,-1.2512397955290453
1658789423803948,2.105745021744042,-0.7629510948347615,-0.9460593575952316
1658789423819936,0.2746623941404778,-0.7019150072480898,-0.9460593575952316
1658789423835924,-0.33569848172737693,-0.45777065690094787,-0.9460593575952316
1658789423851912,0.03051804379333589,-1.3733119707026162,-0.9460593575952316
1658789423867900,-1.0070954451819034,-1.6174563210497581,-0.9460593575952316
1658789423883887,-0.03051804379333589,-1.0681315327688026,-1.3122758831159445
1658789423899875,1.9226367589837992,-1.0681315327688026,-1.3122758831159445
1658789423915863,2.7771419851987957,-1.739528496223329,-0.7629510948347615
1658789423931851,0.213626306553806,-1.4343480582895154,-0.5798428320745188
1658789423947839,-1.2512397955290453,-0.6408789196611906,-0.7019150072480898
1658789423963827,1.6174563210497581,-0.33569848172737693,-0.8850232700083325
1658789423979815,4.058899824521177,-1.3733119707026162,-0.45777065690094787
1658789423995803,2.8992141603723667,-1.6784924086366573,-0.2746623941404778
1658789424011790,0.5188067444876197,-1.0681315327688026,-0.7629510948347615
1658789424027778,-1.1291676203554744,-0.5188067444876197,-0.8239871824216607
1658789424043766,-0.2746623941404778,-0.5798428320745188,-0.3967345693140487
1658789424059754,0.7019150072480898,-0.213626306553806,-0.09155413138023505
1658789424075742,0.8239871824216607,-0.213626306553806,0.09155413138023505
1658789424091735,0.6408789196611906,-0.213626306553806,-0.7019150072480898
1658789424107723,1.4953841458761872,-0.33569848172737693,-0.8850232700083325
1658789424123711,1.5564202334630863,-0.8239871824216607,-0.15259021896690683
1658789424139699,1.983672846570471,-0.9460593575952316,0.03051804379333589
1658789424155687,2.166781109330941,-0.3967345693140487,-0.03051804379333589
1658789424171675,1.4953841458761872,-0.7019150072480898,-0.7019150072480898
1658789424187663,1.3733119707026162,-1.1291676203554744,-0.6408789196611906
1658789424203651,-0.03051804379333589,-1.4343480582895154,-0.3967345693140487
1658789424219638,-0.33569848172737693,-1.0070954451819034,-0.6408789196611906
1658789424235626,-0.2746623941404778,-0.7629510948347615,-0.6408789196611906
1658789424251614,-0.15259021896690683,-0.7629510948347615,-0.5798428320745188
1658789424267602,0.6408789196611906,-1.0070954451819034,-0.213626306553806
1658789424283590,0.5798428320745188,-1.1291676203554744,-0.09155413138023505
1658789424299578,0.03051804379333589,-1.1291676203554744,-0.213626306553806
1658789424315566,1.3733119707026162,-0.7629510948347615,-0.33569848172737693
1658789424331554,3.3264667734797513,-0.9460593575952316,-0.7019150072480898
1658789424347541,3.1433585107195086,-1.1291676203554744,-1.2512397955290453
1658789424363529,0.09155413138023505,-0.7629510948347615,-1.3733119707026162
1658789424379517,-1.4343480582895154,-0.45777065690094787,-0.7629510948347615
1658789424395505,-0.45777065690094787,-0.7019150072480898,-0.09155413138023505
1658789424411438,0.8850232700083325,-1.0681315327688026,-0.15259021896690683
1658789424427425,1.1902037079423735,-0.9460593575952316,-0.5798428320745188
1658789424443413,0.2746623941404778,-0.8239871824216607,-0.9460593575952316
1658789424459401,1.0070954451819034,-1.1902037079423735,-0.33569848172737693
1658789424475389,2.655069810025225,-1.0070954451819034,-0.15259021896690683
1658789424491377,1.4343480582895154,-1.0681315327688026,-0.5798428320745188
1658789424507365,-0.6408789196611906,-0.8239871824216607,-0.8850232700083325
1658789424523353,-1.3733119707026162,-1.2512397955290453,-0.5798428320745188
1658789424539341,-0.3967345693140487,-1.3122758831159445,-0.15259021896690683
1658789424555328,0.213626306553806,-0.5798428320745188,-0.6408789196611906
1658789424571316,0.8850232700083325,-0.03051804379333589,-1.1291676203554744
1658789424587304,2.105745021744042,-0.8239871824216607,-0.7629510948347615
1658789424603292,2.04470893415737,-1.0070954451819034,-0.9460593575952316
1658789424619280,1.0681315327688026,-0.2746623941404778,-0.7629510948347615
1658789424635268,-0.5798428320745188,-0.6408789196611906,-0.5798428320745188
1658789424651256,-1.6784924086366573,-1.2512397955290453,-0.45777065690094787
1658789424667244,-0.5798428320745188,-1.2512397955290453,-0.213626306553806
1658789424683231,0.5188067444876197,-0.7629510948347615,-0.5188067444876197
1658789424699219,1.9226367589837992,-0.3967345693140487,-0.8239871824216607
1658789424715207,3.0212863355459376,-0.45777065690094787,-1.0070954451819034
1658789424731201,2.7161058976118966,-0.8239871824216607,-0.7629510948347615
1658789424747189,1.0681315327688026,-0.5188067444876197,-0.33569848172737693
1658789424763177,-0.5798428320745188,-0.5798428320745188,-0.2746623941404778
1658789424779164,-0.5798428320745188,-0.6408789196611906,-0.2746623941404778
1658789424795152,0.03051804379333589,-1.0070954451819034,-0.33569848172737693
1658789424811140,1.4953841458761872,-1.0681315327688026,-0.3967345693140487
1658789424827128,1.1902037079423735,-0.7629510948347615,-0.3967345693140487
1658789424843116,0.6408789196611906,-0.6408789196611906,-0.45777065690094787
1658789424859104,-0.2746623941404778,-1.2512397955290453,-0.5798428320745188
1658789424875092,-0.6408789196611906,-1.6784924086366573,-0.15259021896690683
1658789424891080,-1.4953841458761872,-1.4953841458761872,-0.15259021896690683
1658789424907067,-0.45777065690094787,-0.9460593575952316,-0.45777065690094787
1658789424923055,1.8616006713969,-0.6408789196611906,-0.45777065690094787
1658789424939043,1.6784924086366573,-1.0070954451819034,-0.3967345693140487
1658789424955031,1.4953841458761872,-0.6408789196611906,-0.33569848172737693
1658789424971019,0.213626306553806,-0.03051804379333589,-0.15259021896690683
1658789424987007,-0.5798428320745188,-0.33569848172737693,-0.2746623941404778
1658789425002995,-0.09155413138023505,-0.45777065690094787,-0.33569848172737693
1658789425018983,0.6408789196611906,-0.3967345693140487,-0.45777065690094787
1658789425034970,-1.6174563210497581,-0.03051804379333589,-0.7019150072480898
1658789425050933,-2.532997634851654,0.213626306553806,-1.1902037079423735
1658789425066921,-1.9226367589837992,-0.2746623941404778,-1.6174563210497581
1658789425082909,-2.7161058976118966,-0.6408789196611906,-1.1902037079423735
1658789425098897,-2.3498893720911838,-0.5188067444876197,-0.8850232700083325
1658789425114885,0.09155413138023505,-0.15259021896690683,-1.739528496223329
1658789425130873,2.655069810025225,-1.0681315327688026,-1.4343480582895154
1658789425146861,1.8005645838102282,-2.105745021744042,-0.8239871824216607
1658789425162849,0.6408789196611906,-1.6784924086366573,-0.33569848172737693
1658789425178836,-0.6408789196611906,-1.3122758831159445,0.213626306553806
1658789425194824,-0.7019150072480898,-1.4343480582895154,0.15259021896690683
1658789425210812,0.8239871824216607,-1.2512397955290453,-0.09155413138023505
1658789425226800,1.1291676203554744,-0.8850232700083325,-0.3967345693140487
1658789425242788,-0.15259021896690683,-1.0070954451819034,-0.7019150072480898
1658789425258776,-0.7019150072480898,-1.1291676203554744,-0.6408789196611906
1658789425274764,-0.5798428320745188,-0.5798428320745188,-0.09155413138023505
1658789425290752,0.33569848172737693,-0.03051804379333589,0.09155413138023505
1658789425306739,2.288853284504512,0.213626306553806,-0.213626306553806
1658789425322727,3.1433585107195086,-0.09155413138023505,-0.33569848172737693
1658789425338715,1.5564202334630863,-1.2512397955290453,-0.213626306553806
1658789425354703,-0.33569848172737693,-0.7629510948347615,0.09155413138023505
1658789425370697,-0.33569848172737693,-0.09155413138023505,-0.09155413138023505
1658789425386685,1.2512397955290453,-0.213626306553806,-0.213626306553806
1658789425402672,1.6174563210497581,-0.6408789196611906,-0.03051804379333589
1658789425418660,0.8850232700083325,-0.5798428320745188,-0.15259021896690683
1658789425434648,-0.5798428320745188,-0.5188067444876197,-0.6408789196611906
1658789425450636,1.739528496223329,-0.45777065690094787,-1.3122758831159445
1658789425466624,3.3875028610666504,-1.0070954451819034,-1.3122758831159445
1658789425482612,0.6408789196611906,-1.3733119707026162,-0.8850232700083325
1658789425498600,-2.105745021744042,-1.3122758831159445,-0.5188067444876197
1658789425514588,-1.1902037079423735,-0.8239871824216607,-0.8850232700083325
1658789425530575,1.9226367589837992,-0.2746623941404778,-0.8850232700083325
1658789425546563,2.7161058976118966,-0.33569848172737693,-0.8850232700083325
1658789425562551,1.9226367589837992,-0.3967345693140487,-1.0681315327688026
1658789425578539,0.7019150072480898,-0.3967345693140487,-1.6784924086366573
1658789425594527,-0.09155413138023505,-0.7019150072480898,-1.4953841458761872
1658789425610515,0.213626306553806,-0.8850232700083325,-0.8239871824216607
1658789425626503,1.0070954451819034,-0.213626306553806,-0.9460593575952316
1658789425642490,1.3122758831159445,0.3967345693140487,-0.8850232700083325
1658789425658478,2.7161058976118966,-0.03051804379333589,-0.7019150072480898
1658789425674466,3.2654306858930795,-0.3967345693140487,-0.03051804379333589
1658789425690429,2.7161058976118966,-0.2746623941404778,0.213626306553806
1658789425706417,2.4719615472647547,0.2746623941404778,-0.213626306553806
1658789425722405,1.5564202334630863,0.33569848172737693,-0.3967345693140487
1658789425738393,-0.15259021896690683,-0.5188067444876197,-0.2746623941404778
1658789425754381,-0.8850232700083325,-0.5798428320745188,0.5188067444876197
1658789425770369,-1.6784924086366573,0.09155413138023505,0.5798428320745188
1658789425786357,-0.6408789196611906,0.15259021896690683,0.09155413138023505
1658789425802344,1.5564202334630863,-0.7629510948347615,-0.15259021896690683
1658789425818332,3.0823224231326094,-1.1291676203554744,-0.15259021896690683
1658789425834320,2.7161058976118966,-0.7629510948347615,0.03051804379333589
1658789425850308,2.5940337224383256,-0.5188067444876197,-0.33569848172737693
1658789425866296,1.6784924086366573,-1.0070954451819034,-0.213626306553806
1658789425882284,0.03051804379333589,-1.2512397955290453,0.15259021896690683
1658789425898272,-1.1902037079423735,-0.8850232700083325,0.213626306553806
1658789425914260,-1.0681315327688026,-0.7019150072480898,-0.03051804379333589
1658789425930247,0.03051804379333589,-1.0681315327688026,-0.2746623941404778
1658789425946235,0.8850232700083325,-0.7019150072480898,-0.3967345693140487
1658789425962223,0.8239871824216607,-0.5188067444876197,-0.7019150072480898
1658789425978211,-0.213626306553806,-0.7629510948347615,-0.9460593575952316
1658789425994199,-0.5798428320745188,-0.9460593575952316,-0.5188067444876197
1658789426010192,0.3967345693140487,-0.8239871824216607,-0.6408789196611906
1658789426026180,1.1291676203554744,-0.6408789196611906,-0.8239871824216607
1658789426042168,2.8381780727854675,-0.8239871824216607,-1.0070954451819034
1658789426058156,2.4719615472647547,-0.7019150072480898,-1.1291676203554744
1658789426074144,0.09155413138023505,-0.2746623941404778,-1.1291676203554744
1658789426090132,-0.7019150072480898,-0.3967345693140487,-0.9460593575952316
1658789426106120,0.2746623941404778,-1.0681315327688026,-1.0681315327688026
1658789426122108,1.2512397955290453,-0.6408789196611906,-1.1902037079423735
1658789426138095,1.3733119707026162,-0.5798428320745188,-1.4343480582895154
1658789426154083,2.166781109330941,-1.0681315327688026,-1.1902037079423735
1658789426170071,1.1902037079423735,-1.0070954451819034,-0.8850232700083325
1658789426186059,0.33569848172737693,0.213626306553806,-0.8239871824216607
1658789426202047,1.2512397955290453,1.6174563210497581,-0.8239871824216607
1658789426218035,3.3875028610666504,1.6784924086366573,-0.15259021896690683
1658789426234023,3.0212863355459376,1.6784924086366573,0.2746623941404778
1658789426250011,1.2512397955290453,1.739528496223329,0.2746623941404778
1658789426265998,2.7771419851987957,1.2512397955290453,0.5798428320745188
1658789426281986,3.875791561760934,-0.2746623941404778,1.6784924086366573
1658789426297974,2.4719615472647547,-1.983672846570471,2.7771419851987957
1658789426313962,-0.5188067444876197,-2.166781109330941,3.3875028610666504
1658789426329956,-0.3967345693140487,-1.1902037079423735,3.814755474174035
1658789426345944,-0.03051804379333589,-1.3733119707026162,4.9134050507361735
1658789426361931,-1.3733119707026162,-1.9226367589837992,5.95101853971164
1658789426377919,-3.814755474174035,-1.8616006713969,6.439307240405924
1658789426393907,-4.058899824521177,-1.2512397955290453,7.354848554207592
1658789426409895,-1.3122758831159445,-1.8616006713969,8.697642481116873
1658789426425883,-0.03051804379333589,-2.410925459678083,10.162508583199724
1658789426441871,-1.5564202334630863,-3.3264667734797513,11.871519035629717
1658789426457859,-0.8850232700083325,-3.1433585107195086,12.970168612191856
1658789426473847,1.739528496223329,-1.8005645838102282,13.64156557564661
1658789426489834,1.739528496223329,-1.5564202334630863,14.373998626688035
1658789426505822,-2.5940337224383256,-2.655069810025225,15.045395590142562
1658789426521810,-5.0354772259097444,-2.5940337224383256,15.899900816357558
1658789426537798,-6.744487678339738,-1.8616006713969,16.876478217746126
1658789426553786,-5.76791027695117,-2.7771419851987957,17.853055619134693
1658789426569774,-5.95101853971164,-3.7537193865873633,18.95170519569683
1658789426585762,-7.17174029144735,-3.997863736934505,19.1348134584573
1658789426601750,-5.096513313496644,-3.3875028610666504,19.378957808804444
1658789426617737,-1.8616006713969,-3.692683299000464,20.416571297779683
1658789426633725,-1.5564202334630863,-3.875791561760934,21.087968261234437
1658789426649688,-3.692683299000464,-4.547188525215461,21.33211261158158
1658789426665676,-3.5095750362402214,-3.6316472114137923,21.210040436408008
1658789426681664,-1.3122758831159445,-2.227817196917613,21.026932173647538
1658789426697652,-1.1902037079423735,-2.9602502479590385,22.064545662623004
1658789426713640,-3.2654306858930795,-4.547188525215461,23.468375677118956
1658789426729628,-3.6316472114137923,-3.814755474174035,24.689097428854666
1658789426745616,-1.0681315327688026,-1.1902037079423735,25.543602655069662
1658789426761603,2.288853284504512,0.213626306553806,25.970855268177274
1658789426777591,2.3498893720911838,-0.8850232700083325,26.82536049439227
1658789426793579,-2.105745021744042,-1.5564202334630863,27.313649195086555
1658789426809567,-5.462729839017356,-0.5798428320745188,26.82536049439227
1658789426825555,-3.3875028610666504,-0.213626306553806,26.82536049439227
1658789426841543,-1.0070954451819034,-1.4953841458761872,27.679865720607268
1658789426857531,-3.0823224231326094,-2.7771419851987957,28.900587472342977
1658789426873519,-5.0354772259097444,-2.5940337224383256,29.449912260623933
1658789426889506,-3.1433585107195086,-1.6784924086366573,29.938200961318216
1658789426905494,0.5188067444876197,-1.6784924086366573,30.975814450293683
1658789426921482,0.03051804379333589,-3.1433585107195086,31.83031967650868
1658789426937470,-3.4485389486533222,-3.692683299000464,32.19653620202939
1658789426953458,-4.242008087281647,-3.3875028610666504,32.501716639963206
1658789426969452,-2.8992141603723667,-3.1433585107195086,32.99000534065749
1658789426985439,-4.364080262455218,-4.60822461280236,33.905546654459386
1658789427001427,-7.354848554207592,-6.073090714885211,34.2107270923932
1658789427017415,-6.744487678339738,-6.073090714885211,34.821087968261054
1658789427033403,-0.2746623941404778,-3.3264667734797513,36.408026245517476
1658789427049391,3.692683299000464,-1.739528496223329,37.628747997253186
1658789427065379,6.744487678339738,-0.5798428320745188,38.0560006103608
1658789427081367,11.01701380941472,1.6174563210497581,38.30014496070794
1658789427097355,11.749446860456146,2.7161058976118966,38.42221713588151
1658789427113342,9.063859006637585,1.1291676203554744,39.33775844968318
1658789427129330,2.8992141603723667,-0.33569848172737693,40.68055237659246
1658789427145318,-4.60822461280236,-0.45777065690094787,42.08438239108864
1658789427161306,-9.063859006637585,-1.3733119707026162,43.12199588006388
1658789427177294,-6.378271152819025,-2.227817196917613,44.7089341573203
1658789427193282,-5.889982452124741,-3.936827649347606,46.17380025940315
1658789427209270,-8.819714656290444,-5.401693751430457,47.6997024490729
1658789427225257,-9.002822919050914,-5.523765926604028,49.77492942702338
1658789427241245,-9.613183794918768,-7.232776379034021,52.2163729304948
1658789427257233,-7.11070420386045,-7.721065079728305,53.55916685740431
1658789427273221,-7.476920729381163,-8.575570305943302,54.84092469672669
1658789427289184,-9.002822919050914,-9.491111619745197,55.756466010528584
1658789427305172,-8.941786831464015,-7.476920729381163,55.573357747768114
1658789427321159,-9.430075532158298,-4.669260700389032,54.10849164568526
1658789427337146,-7.843137254901876,-4.119935912108076,53.07087815671002
1658789427353134,-10.162508583199724,-6.805523765926637,53.74227512016478
1658789427369121,-10.345616845960194,-6.561379415579495,53.62020294499098
1658789427385109,-9.85732814526591,-4.303044174868319,52.277409018081926
1658789427401096,-9.063859006637585,-4.791332875562603,52.46051728084194
1658789427417083,-9.67421988250544,-10.406652933546866,55.390249485007644
1658789427433071,-13.45845731288614,-14.373998626688035,57.221332112611435
1658789427449058,-20.599679560540153,-14.98435950255589,55.69542992294191
1658789427465046,-18.463416495002548,-13.58052948805971,54.169527733271934
1658789427481033,-11.566338597695903,-14.618142977035177,55.756466010528584
1658789427497020,-9.185931181811156,-13.64156557564661,57.404440375371905
1658789427513008,-11.627374685282575,-9.55214770733187,56.36682688639621
1658789427528995,-9.796292057679011,-6.195162890058782,54.352635996032404
1658789427544983,-4.730296787975931,-4.669260700389032,54.4747081712062
1658789427560970,-5.645838101777599,-3.814755474174035,55.756466010528584
1658789427576957,-8.6366063935302,-1.3733119707026162,53.37605859464384
1658789427592945,-6.9886320286868795,-3.3264667734797513,50.873579003585746
1658789427608947,-1.983672846570471,-6.805523765926637,51.36186770428003
1658789427624935,-8.270389868009488,-8.270389868009488,53.315022507057165
1658789427640922,-17.914091706721592,-5.889982452124741,54.10849164568526
1658789427656910,-14.373998626688035,-5.76791027695117,53.315022507057165
1658789427672897,-3.3875028610666504,-6.9886320286868795,54.413672083619076
1658789427688884,1.3733119707026162,-8.697642481116873,56.0616464484624
1658789427704872,-3.2654306858930795,-8.941786831464015,55.390249485007644
1658789427720859,-8.880750743877343,-5.645838101777599,54.10849164568526
1658789427736847,-11.627374685282575,-3.2654306858930795,53.68123903257765
1658789427752834,-7.476920729381163,-4.303044174868319,53.55916685740431
1658789427768821,-5.76791027695117,-3.2654306858930795,53.43709468223051
1658789427784809,-8.270389868009488,-0.33569848172737693,51.60601205462717
1658789427800796,-5.828946364538069,0.7629510948347615,47.57763027389933
1658789427816784,2.655069810025225,-1.0070954451819034,46.05172808422958
1658789427832771,4.242008087281647,-4.547188525215461,48.79835202563481
1658789427848758,-4.730296787975931,-6.805523765926637,52.2163729304948
1658789427864746,-15.411612115663274,-5.096513313496644,50.812542915999074
1658789427880733,-15.838864728770886,-3.2043945983061803,47.15037766079172
1658789427896721,-3.570611123826893,-3.0212863355459376,46.845197222857905
1658789427912708,1.0681315327688026,-2.532997634851654,48.24902723735386
1658789427928680,-0.213626306553806,-2.7771419851987957,48.126955062180514
1658789427944667,-6.317235065232353,-3.0212863355459376,47.6997024490729
1658789427960655,-9.246967269398056,-1.3122758831159445,45.92965590905601
1658789427976642,-5.523765926604028,-1.1291676203554744,45.86861982146934
1658789427992630,-2.5940337224383256,-1.983672846570471,47.02830548561815
1658789428008617,-0.45777065690094787,-2.532997634851654,45.502403295948625
1658789428024604,-1.8616006713969,-1.3122758831159445,43.18303196765078
1658789428040592,-3.0212863355459376,-3.2654306858930795,44.098573281452445
1658789428056579,-7.537956816968062,-5.523765926604028,45.74654764629577
1658789428072567,-15.167467765316132,-2.04470893415737,43.976501106278874
1658789428088554,-16.876478217746126,-0.8239871824216607,42.02334630350174
1658789428104541,-7.843137254901876,-2.5940337224383256,42.57267109178292
1658789428120529,-4.974441138323073,-4.60822461280236,44.098573281452445
1658789428136516,-9.308003356984727,-4.242008087281647,43.36614023041102
1658789428152504,-12.542915999084471,-3.875791561760934,40.9857328145265
1658789428168491,-8.880750743877343,-4.303044174868319,39.21568627450961
1658789428184478,-0.9460593575952316,-2.8992141603723667,39.33775844968318
1658789428200466,1.1291676203554744,-0.8850232700083325,39.33775844968318
1658789428216453,-5.584802014190927,-0.9460593575952316,38.66636148622865
1658789428232441,-17.120622568093268,-3.814755474174035,37.506675822079615
1658789428248443,-16.632333867398984,-6.500343327992596,38.42221713588151
1658789428264431,-13.885709925993751,-6.195162890058782,40.1312275883115
1658789428280418,-11.749446860456146,-2.105745021744042,37.93392843518723
1658789428296405,-7.660028992141633,-0.09155413138023505,34.2717631799801
1658789428312393,-3.2043945983061803,-2.4719615472647547,35.37041275654224
1658789428328380,-8.148317692835917,-6.561379415579495,39.82604715037746
1658789428344368,-14.496070801861606,-6.012054627298312,39.33775844968318
1658789428360355,-14.98435950255589,-3.5095750362402214,35.67559319447605
1658789428376342,-4.9134050507361735,-0.5798428320745188,33.05104142824439
1658789428392330,2.288853284504512,0.03051804379333589,32.01342793926892
1658789428408317,2.8381780727854675,2.4719615472647547,31.89135576409535
1658789428424305,-6.805523765926637,2.3498893720911838,31.70824750133511
1658789428440292,-12.787060349431613,-0.6408789196611906,32.440680552376534
1658789428456279,-9.002822919050914,-3.0823224231326094,33.600366216525344
1658789428472267,-2.04470893415737,-1.1291676203554744,32.99000534065749
1658789428488254,3.2654306858930795,2.166781109330941,30.792706187533213
1658789428504242,5.157549401083315,3.814755474174035,29.633020523384403
1658789428520229,2.9602502479590385,2.288853284504512,30.121309224078686
1658789428536216,-2.8381780727854675,-0.7019150072480898,29.816128786144645
1658789428552204,-7.11070420386045,-2.8381780727854675,28.839551384756078
1658789428568176,-5.157549401083315,-0.213626306553806,27.313649195086555
1658789428584163,-1.983672846570471,3.692683299000464,25.726710917830133
1658789428600151,-3.570611123826893,2.166781109330941,24.811169604028237
1658789428616138,-7.598992904554734,-2.8381780727854675,25.543602655069662
1658789428632125,-6.195162890058782,-3.997863736934505,26.337071793697987
1658789428648113,3.4485389486533222,0.5798428320745188,25.726710917830133
1658789428664100,13.58052948805971,6.8665598535133086,24.01770046540014
1658789428680088,16.02197299153113,7.660028992141633,20.843823910887295
1658789428696075,7.11070420386045,4.303044174868319,18.95170519569683
1658789428712062,-5.584802014190927,2.8992141603723667,20.660715648126825
1658789428728050,-13.58052948805971,3.1433585107195086,22.247653925383247
1658789428744037,-16.44922560463874,0.33569848172737693,21.087968261234437
1658789428760025,-16.2050812542916,-2.7161058976118966,20.23346303501944
1658789428776012,-10.89494163424115,-0.6408789196611906,20.35553521019301
1658789428791999,-2.4719615472647547,3.4485389486533222,18.70756084534969
1658789428807987,1.5564202334630863,3.5095750362402214,17.914091706721592
1658789428823974,1.0681315327688026,1.1902037079423735,19.317921721217544
1658789428839962,-2.288853284504512,-1.3733119707026162,19.9282825970854
1658789428855949,-1.8616006713969,0.03051804379333589,19.439993896391115
1658789428871936,0.33569848172737693,2.227817196917613,18.524452582589447
1658789428887939,-0.2746623941404778,3.3264667734797513,17.303730830853738
1658789428903926,-6.256198977645454,0.15259021896690683,17.79201953154802
1658789428919914,-8.819714656290444,-1.8005645838102282,18.70756084534969
1658789428935901,-5.3406576638437855,1.1291676203554744,17.730983443961122
1658789428951889,-1.6174563210497581,3.3875028610666504,16.02197299153113
1658789428967876,-2.166781109330941,3.570611123826893,15.411612115663274
1658789428983863,-4.669260700389032,1.8005645838102282,16.1440451667047
1658789428999851,-7.4158846417944915,0.3967345693140487,16.2050812542916
1658789429015838,-6.012054627298312,0.45777065690094787,15.594720378423744
1658789429031826,-2.4719615472647547,0.5798428320745188,15.411612115663274
1658789429047813,2.227817196917613,1.1291676203554744,13.45845731288614
1658789429063800,2.410925459678083,1.8005645838102282,10.833905546654478
1658789429079788,-1.6784924086366573,2.4719615472647547,9.55214770733187
1658789429095775,-5.0354772259097444,1.4953841458761872,9.430075532158298
1658789429111763,-6.317235065232353,-1.5564202334630863,9.613183794918768
1658789429127750,-5.889982452124741,-2.227817196917613,8.209353780422589
1658789429143737,-5.828946364538069,0.5188067444876197,5.706874189364498
1658789429159725,-6.561379415579495,0.8850232700083325,4.364080262455218
1658789429175712,-5.706874189364498,-0.33569848172737693,5.0354772259097444
1658789429191700,0.213626306553806,-0.213626306553806,3.936827649347606
1658789429207672,4.669260700389032,-1.0070954451819034,1.8005645838102282
1658789429223659,4.852368963149502,-0.45777065690094787,1.1291676203554744
1658789429239647,1.8616006713969,-0.03051804379333589,0.6408789196611906
1658789429255634,0.5188067444876197,-0.2746623941404778,-1.1902037079423735
1658789429271621,-2.532997634851654,-1.9226367589837992,-2.04470893415737
1658789429287609,-3.2043945983061803,-2.166781109330941,-2.8992141603723667
1658789429303596,-0.2746623941404778,-2.7771419851987957,-3.3264667734797513
1658789429319584,2.5940337224383256,-1.0681315327688026,-4.119935912108076
1658789429335571,6.073090714885211,-0.03051804379333589,-5.279621576256886
1658789429351558,6.134126802471883,-0.9460593575952316,-6.9886320286868795
1658789429367546,4.974441138323073,-2.105745021744042,-7.721065079728305
1658789429383533,5.096513313496644,-1.1902037079423735,-8.087281605249018
1658789429399520,3.1433585107195086,-0.213626306553806,-9.185931181811156
1658789429415508,-0.09155413138023505,-1.9226367589837992,-11.20012207217519
1658789429431495,-6.073090714885211,-3.3264667734797513,-12.23773556115043
1658789429447483,-6.744487678339738,-2.4719615472647547,-12.787060349431613
1658789429463470,-4.9134050507361735,-2.227817196917613,-13.519493400473038
1658789429479457,-1.739528496223329,-3.2654306858930795,-15.228503852903032
1658789429495445,1.6174563210497581,-2.8992141603723667,-16.44922560463874
1658789429511432,6.500343327992596,-1.8616006713969,-16.998550392919697
1658789429527435,11.810482948043045,-1.9226367589837992,-17.120622568093268
1658789429543422,16.1440451667047,-2.166781109330941,-17.120622568093268
1658789429559410,17.48683909361398,-1.1291676203554744,-18.341344319828977
1658789429575397,16.02197299153113,-0.03051804379333589,-19.9893186846723
1658789429591385,9.55214770733187,0.8850232700083325,-21.45418478675515
1658789429607372,6.8665598535133086,2.4719615472647547,-23.590447852292527
1658789429623359,12.726024261844714,3.2043945983061803,-23.89562829022657
1658789429639347,15.533684290836845,2.8381780727854675,-21.087968261234437
1658789429655334,8.941786831464015,1.3733119707026162,-17.914091706721592
1658789429671321,0.45777065690094787,-2.7771419851987957,-15.167467765316132
1658789429687309,-8.270389868009488,-5.889982452124741,-13.946746013580423
1658789429703296,-14.618142977035177,-7.11070420386045,-13.824673838406852
1658789429719284,-11.749446860456146,-6.256198977645454,-13.702601663233281
1658789429735271,-4.242008087281647,-5.889982452124741,-12.664988174258042
1658789429751258,5.889982452124741,-4.303044174868319,-13.275349050125897
1658789429767246,10.223544670786623,-4.669260700389032,-15.045395590142562
1658789429783233,12.359807736324,-4.119935912108076,-15.533684290836845
1658789429799221,13.64156557564661,-3.4485389486533222,-15.960936903944457
1658789429815208,7.537956816968062,-3.7537193865873633,-16.26611734187827
1658789429831195,0.03051804379333589,-3.997863736934505,-15.716792553597315
1658789429847198,-5.2185854886702145,-5.706874189364498,-15.472648203250174
1658789429863186,-8.209353780422589,-6.073090714885211,-16.2050812542916
1658789429879173,-7.598992904554734,-5.0354772259097444,-16.876478217746126
1658789429895160,-5.157549401083315,-4.242008087281647,-16.510261692225413
1658789429911148,1.0070954451819034,-3.0212863355459376,-17.120622568093268
1658789429927135,5.889982452124741,-3.2654306858930795,-18.76859693293659
1658789429943122,8.819714656290444,-3.0212863355459376,-20.599679560540153
1658789429959110,10.101472495613052,-3.0823224231326094,-20.538643472953254
1658789429975097,10.040436408026153,-2.8992141603723667,-20.23346303501944
1658789429991085,6.195162890058782,-4.486152437628789,-21.39314869916825
1658789430007072,2.9602502479590385,-5.401693751430457,-23.468375677118956
1658789430023059,1.4343480582895154,-3.936827649347606,-24.811169604028237
1658789430039047,2.532997634851654,-3.0212863355459376,-23.590447852292527
1658789430055034,3.0823224231326094,-1.6174563210497581,-22.308690012970146
1658789430071022,1.6174563210497581,-1.4953841458761872,-24.811169604028237
1658789430087009,-2.7161058976118966,-1.6784924086366573,-26.886396581978943
1658789430102996,-1.2512397955290453,-0.8850232700083325,-27.191577019912984
1658789430118984,1.2512397955290453,-0.45777065690094787,-26.764324406805372
1658789430134971,-0.213626306553806,-0.45777065690094787,-27.679865720607268
1658789430150959,0.9460593575952316,-1.8616006713969,-29.755092698557974
1658789430166931,0.7629510948347615,-2.105745021744042,-30.4264896620125
1658789430182918,4.303044174868319,0.33569848172737693,-30.853742275120112
1658789430198906,6.927595941100208,-0.2746623941404778,-30.182345311665358
1658789430214893,4.364080262455218,-2.04470893415737,-29.877164873731545
1658789430230880,2.7771419851987957,-1.3733119707026162,-32.37964446478986
1658789430246868,2.8381780727854675,0.7629510948347615,-35.492484931716035
1658789430262855,5.584802014190927,2.3498893720911838,-37.14045929655913
1658789430278843,7.354848554207592,0.15259021896690683,-36.10284580758389
1658789430294830,3.4485389486533222,-0.9460593575952316,-36.04180971999699
1658789430310817,-0.213626306553806,0.03051804379333589,-38.72739757381555
1658789430326805,-1.3122758831159445,1.8005645838102282,-40.92469672693983
1658789430342792,0.8850232700083325,2.8381780727854675,-42.75577935454339
1658789430358780,1.4953841458761872,-0.5798428320745188,-42.26749065384911
1658789430374767,1.4343480582895154,-1.739528496223329,-41.29091325246054
1658789430390754,0.15259021896690683,0.9460593575952316,-44.09857328145267
1658789430406742,5.645838101777599,4.9134050507361735,-47.8217746242467
1658789430422729,12.726024261844714,4.547188525215461,-48.371099412527656
1658789430438717,14.190890363927565,2.655069810025225,-46.84519722285813
1658789430454704,10.528725108720437,2.8992141603723667,-47.8217746242467
1658789430470691,3.1433585107195086,2.9602502479590385,-50.7515068284124
1658789430486694,0.213626306553806,3.692683299000464,-52.64362554360264
1658789430502681,5.157549401083315,2.655069810025225,-53.376058594644064
1658789430518669,7.2938124666209205,-0.45777065690094787,-51.6060120546274
1658789430534656,5.95101853971164,2.4719615472647547,-51.78912031738764
1658789430550644,6.744487678339738,6.012054627298312,-55.51232166018167
1658789430566631,11.749446860456146,7.17174029144735,-57.282368200198334
1658789430582618,11.20012207217519,2.7771419851987957,-54.901960784313815
1658789430598606,4.730296787975931,0.7019150072480898,-52.76569771877621
1658789430614593,1.8616006713969,3.3875028610666504,-55.024032959487386
1658789430630581,4.547188525215461,3.3264667734797513,-58.747234302281186
1658789430646568,10.833905546654478,-0.6408789196611906,-59.845883878843324
1658789430662555,12.909132524605184,-2.04470893415737,-54.718852521553345
1658789430678543,8.880750743877343,2.532997634851654,-53.498130769817635
1658789430694530,10.223544670786623,9.85732814526591,-58.44205386434737
1658789430710518,12.23773556115043,9.246967269398056,-62.47043564507521
1658789430726505,16.02197299153113,3.5095750362402214,-59.78484779125665
1658789430742492,12.542915999084471,-1.3122758831159445,-53.07087815671025
1658789430758480,1.1291676203554744,-1.4343480582895154,-51.117723353933116
1658789430774467,2.105745021744042,2.105745021744042,-54.65781643396667
1658789430790454,10.589761196307336,1.4343480582895154,-53.620202944991206
1658789430806427,16.876478217746126,-1.983672846570471,-49.10353246356908
1658789430822414,15.655756466010416,-3.1433585107195086,-46.84519722285813
1658789430838401,8.697642481116873,0.8239871824216607,-47.27244983596552
1658789430854389,6.378271152819025,2.655069810025225,-48.06591897459384
1658789430870376,8.51453421835663,0.03051804379333589,-46.60105287251099
1658789430886364,3.570611123826893,-1.4953841458761872,-43.121995880064105
1658789430902351,1.1291676203554744,1.0070954451819034,-42.63370717936982
1658789430918338,7.17174029144735,2.655069810025225,-45.01411459525457
1658789430934326,14.129854276340893,1.2512397955290453,-45.807583733882666
1658789430950313,14.312962539101136,-1.9226367589837992,-42.69474326695672
1658789430966301,6.500343327992596,-4.180971999694748,-39.88708323796459
1658789430982288,2.655069810025225,-2.8381780727854675,-40.497444113832444
1658789430998275,4.303044174868319,0.33569848172737693,-41.779201953154825
1658789431014263,10.040436408026153,0.8850232700083325,-42.02334630350197
1658789431030250,8.087281605249018,-3.2654306858930795,-39.093614099336264
1658789431046238,4.852368963149502,-4.303044174868319,-35.91973754482342
1658789431062225,3.936827649347606,-1.0070954451819034,-36.652170595864845
1658789431078212,6.500343327992596,1.6784924086366573,-38.36118104829484
1658789431094200,7.660028992141633,-0.7629510948347615,-36.713206683451745
1658789431110187,5.889982452124741,-2.7161058976118966,-33.966582742046285
1658789431126190,4.364080262455218,-0.8239871824216607,-32.806897077897474
1658789431142177,5.95101853971164,2.655069810025225,-34.45487144274057
1658789431158165,10.833905546654478,3.0823224231326094,-36.28595407034413
1658789431174152,14.007782101167322,1.3733119707026162,-34.57694361791414
1658789431190139,11.01701380941472,-1.0070954451819034,-31.952391851682478
1658789431206127,7.354848554207592,-0.5188067444876197,-31.89135576409558
1658789431222114,6.073090714885211,1.3733119707026162,-33.11207751583129
1658789431238102,5.2185854886702145,1.0681315327688026,-32.44068055237676
1658789431254089,4.242008087281647,-1.0681315327688026,-30.4264896620125
1658789431270076,4.303044174868319,-1.4953841458761872,-27.313649195086555
1658789431286064,4.486152437628789,1.4343480582895154,-27.496757457846797
1658789431302051,4.852368963149502,3.5095750362402214,-29.571984435797503
1658789431318039,8.880750743877343,2.7161058976118966,-28.351262684061794
1658789431334026,10.040436408026153,1.2512397955290453,-26.031891355763946
1658789431350013,8.819714656290444,1.0070954451819034,-26.153963530937517
1658789431366001,7.476920729381163,2.288853284504512,-27.74090180819394
1658789431381988,5.584802014190927,1.983672846570471,-29.20576791027679
1658789431397976,6.073090714885211,0.3967345693140487,-29.14473182269012
1658789431413963,4.486152437628789,-0.7019150072480898,-26.947432669565842
1658789431429950,0.7629510948347615,0.15259021896690683,-27.008468757152514
1658789431445922,1.4953841458761872,1.1291676203554744,-28.290226596475122
1658789431461910,4.486152437628789,0.5798428320745188,-28.229190508888223
1658789431477897,8.575570305943302,0.33569848172737693,-27.130540932326085
1658789431493885,9.002822919050914,1.3733119707026162,-25.970855268177274
1658789431509872,7.354848554207592,1.3122758831159445,-27.435721370260126
1658789431525859,7.232776379034021,0.5798428320745188,-28.778515297169406
1658789431541847,5.2185854886702145,-0.5188067444876197,-27.61882963302037
1658789431557834,3.936827649347606,0.7629510948347615,-27.069504844739413
1658789431573822,4.486152437628789,3.1433585107195086,-27.80193789578084
1658789431589809,4.60822461280236,3.6316472114137923,-28.290226596475122
1658789431605796,7.11070420386045,2.655069810025225,-28.107118333714652
1658789431621784,4.791332875562603,0.3967345693140487,-27.313649195086555
1658789431637771,2.532997634851654,0.7629510948347615,-28.534370946822264
1658789431653759,4.974441138323073,2.8381780727854675,-31.342030975814623
1658789431669746,6.500343327992596,1.739528496223329,-31.219958800640825
1658789431685733,6.500343327992596,0.2746623941404778,-28.656443121995835
1658789431701721,4.486152437628789,0.6408789196611906,-28.290226596475122
1658789431717708,5.584802014190927,3.1433585107195086,-30.182345311665358
1658789431733696,4.547188525215461,2.7161058976118966,-30.60959792477297
1658789431749683,5.828946364538069,1.8616006713969,-29.08369573510322
1658789431765686,9.491111619745197,2.288853284504512,-27.557793545433697
1658789431781673,10.040436408026153,3.875791561760934,-28.900587472342977
1658789431797660,12.787060349431613,5.279621576256886,-29.999237048905115
1658789431813648,12.970168612191856,4.180971999694748,-28.778515297169406
1658789431829635,9.063859006637585,1.3122758831159445,-27.496757457846797
1658789431845623,6.073090714885211,1.8005645838102282,-28.656443121995835
1658789431861610,5.401693751430457,4.058899824521177,-30.914778362706784
1658789431877597,7.537956816968062,4.730296787975931,-30.60959792477297
1658789431893585,12.359807736324,2.8381780727854675,-28.473334859235365
1658789431909572,11.383230334935433,2.288853284504512,-26.886396581978943
1658789431925560,8.026245517662346,3.6316472114137923,-27.86297398336751
1658789431941547,4.974441138323073,4.119935912108076,-28.900587472342977
1658789431957534,5.95101853971164,3.5095750362402214,-27.252613107499656
1658789431973522,6.744487678339738,2.7161058976118966,-24.505989166094423
1658789431989509,8.819714656290444,4.669260700389032,-24.07873655298681
1658789432005497,9.002822919050914,6.622415503166167,-24.872205691615136
1658789432021484,9.613183794918768,6.744487678339738,-23.95666437781324
1658789432037471,7.660028992141633,4.9134050507361735,-22.064545662623004
1658789432053459,5.828946364538069,3.5095750362402214,-22.73594262607753
1658789432069446,2.3498893720911838,4.669260700389032,-24.01770046540014
1658789432085418,4.9134050507361735,6.134126802471883,-24.628061341267994
1658789432101406,7.660028992141633,5.706874189364498,-23.407339589532285
1658789432117393,7.4158846417944915,3.692683299000464,-21.45418478675515
1658789432133381,2.8381780727854675,3.0823224231326094,-20.660715648126825
1658789432149368,2.4719615472647547,4.9134050507361735,-22.186617837796575
1658789432165355,6.500343327992596,6.134126802471883,-22.919050888838
1658789432181343,8.148317692835917,3.997863736934505,-19.439993896391115
1658789432197330,4.547188525215461,2.7771419851987957,-17.303730830853738
1658789432213317,-0.5188067444876197,4.974441138323073,-18.341344319828977
1658789432229305,0.15259021896690683,7.354848554207592,-19.073777370870403
1658789432245292,5.0354772259097444,8.51453421835663,-18.70756084534969
1658789432261280,8.697642481116873,7.232776379034021,-17.975127794308264
1658789432277267,3.4485389486533222,4.180971999694748,-17.975127794308264
1658789432293254,-0.5188067444876197,5.096513313496644,-18.524452582589447
1658789432309242,0.8239871824216607,6.927595941100208,-18.95170519569683
1658789432325229,3.3875028610666504,6.744487678339738,-18.341344319828977
1658789432341217,3.875791561760934,4.852368963149502,-15.838864728770886
1658789432357204,3.6316472114137923,4.486152437628789,-14.251926451514464
1658789432373191,2.8992141603723667,7.11070420386045,-13.76363775082018
1658789432389179,2.9602502479590385,11.261158159761862,-12.787060349431613
1658789432405182,3.570611123826893,10.589761196307336,-11.444266422522333
1658789432421169,1.3122758831159445,7.537956816968062,-8.941786831464015
1658789432437156,-0.9460593575952316,9.185931181811156,-8.270389868009488
1658789432453144,0.03051804379333589,12.603952086671143,-7.965209430075447
1658789432469131,0.3967345693140487,11.01701380941472,-5.95101853971164
1658789432485118,-1.8005645838102282,6.744487678339738,-3.0823224231326094
1658789432501106,-6.561379415579495,3.0212863355459376,-0.3967345693140487
1658789432517093,-9.185931181811156,2.105745021744042,2.04470893415737
1658789432533081,-8.392462043183059,2.7771419851987957,4.852368963149502
1658789432549068,-6.561379415579495,0.6408789196611906,9.063859006637585
1658789432565055,-5.157549401083315,-2.655069810025225,13.64156557564661
1658789432581043,-5.828946364538069,-2.8992141603723667,16.754406042572555
1658789432597030,-3.7537193865873633,-1.6784924086366573,19.073777370870403
1658789432613018,-3.6316472114137923,-2.8992141603723667,21.820401312275862
1658789432629005,-5.2185854886702145,-4.42511635004189,24.13977264057371
1658789432644992,-6.9886320286868795,-5.76791027695117,26.39810788128466
1658789432660980,-9.002822919050914,-6.744487678339738,28.473334859235365
1658789432676967,-9.246967269398056,-6.439307240405924,29.449912260623933
1658789432692955,-11.261158159761862,-6.927595941100208,31.280994888227497
1658789432708942,-12.481879911497572,-8.270389868009488,33.4172579537651
1658789432724914,-12.664988174258042,-9.613183794918768,35.18730449378177
1658789432740902,-11.383230334935433,-9.430075532158298,37.1404592965589
1658789432756889,-8.51453421835663,-9.246967269398056,38.727397573815324
1658789432772876,-6.622415503166167,-9.67421988250544,40.43640802624532
1658789432788864,-6.927595941100208,-11.932555123216616,41.412985427633885
1658789432804851,-5.95101853971164,-12.359807736324,41.290913252460314
1658789432820839,-6.012054627298312,-11.20012207217519,41.16884107728674
1658789432836826,-4.60822461280236,-8.51453421835663,41.10780498970007
1658789432852813,-5.584802014190927,-7.598992904554734,41.96231021591507
1658789432868801,-7.049668116273779,-8.209353780422589,43.48821240558459
1658789432884788,-9.002822919050914,-7.843137254901876,44.7699702449072
1658789432900776,-11.505302510109004,-6.622415503166167,45.07515068284101
1658789432916763,-9.002822919050914,-5.279621576256886,45.5634393835353
1658789432932750,-8.6366063935302,-6.744487678339738,47.638666361486
1658789432948738,-9.246967269398056,-7.965209430075447,47.943846799420044
1658789432964725,-9.491111619745197,-7.4158846417944915,46.967269398031476
1658789432980713,-7.843137254901876,-6.8665598535133086,47.39452201113886
1658789432996700,-6.134126802471883,-7.721065079728305,48.73731593804814
1658789433012687,-5.279621576256886,-9.246967269398056,50.263218127717664
1658789433028675,-5.584802014190927,-9.430075532158298,50.812542915999074
1658789433044677,-1.983672846570471,-6.195162890058782,50.263218127717664
1658789433060665,-0.213626306553806,-4.058899824521177,50.446326390478134
1658789433076652,-0.45777065690094787,-5.828946364538069,51.36186770428003
1658789433092640,-2.410925459678083,-8.087281605249018,51.667048142213844
1658789433108627,-5.76791027695117,-8.148317692835917,50.507362478064806
1658789433124614,-6.134126802471883,-6.744487678339738,49.591821164263365
1658789433140602,-7.17174029144735,-8.697642481116873,50.507362478064806
1658789433156589,-9.613183794918768,-12.726024261844714,52.64362554360241
1658789433172577,-14.251926451514464,-14.435034714274707,53.74227512016478
1658789433188564,-15.228503852903032,-13.64156557564661,53.80331120775145
1658789433204551,-11.505302510109004,-14.190890363927565,54.10849164568526
1658789433220539,-9.369039444571627,-14.373998626688035,54.90196078431336
1658789433236526,-8.758678568703772,-14.435034714274707,55.20714122224763
1658789433252514,-9.308003356984727,-10.101472495613052,52.70466163118908
1658789433268501,-6.8665598535133086,-6.927595941100208,49.95803768978385
1658789433284488,-3.875791561760934,-6.744487678339738,49.77492942702338
1658789433300476,-3.570611123826893,-7.537956816968062,51.056687266346216
1658789433316463,-8.45349813076973,-5.828946364538069,50.14114595254432
1658789433332450,-9.73525597009234,-1.8616006713969,47.21141374837862
1658789433348438,-1.3733119707026162,-2.3498893720911838,45.624475471122196
1658789433364410,3.2043945983061803,-5.2185854886702145,48.92042420080861
1658789433380397,-0.6408789196611906,-6.500343327992596,51.36186770428003
1658789433396385,-6.683451590753066,-4.852368963149502,48.92042420080861
1658789433412372,-3.936827649347606,-5.645838101777599,46.11276417181648
1658789433428360,3.5095750362402214,-7.476920729381163,47.6997024490729
1658789433444347,1.9226367589837992,-9.796292057679011,50.14114595254432
1658789433460334,-5.706874189364498,-9.369039444571627,49.46974898908957
1658789433476322,-11.383230334935433,-7.11070420386045,47.27244983596529
1658789433492309,-11.749446860456146,-5.2185854886702145,46.23483634699005
1658789433508297,-7.049668116273779,-5.096513313496644,46.47898069733719
1658789433524284,-5.889982452124741,-5.279621576256886,47.21141374837862
1658789433540271,-7.598992904554734,-3.7537193865873633,46.723125047684334
1658789433556259,-5.462729839017356,-2.410925459678083,45.68551155870887
1658789433572246,-3.0212863355459376,-3.2043945983061803,45.13618677042791
1658789433588234,-3.0823224231326094,-4.547188525215461,45.13618677042791
1658789433604221,-1.0070954451819034,-3.997863736934505,43.12199588006388
1658789433620208,0.8239871824216607,-3.875791561760934,43.42717631799792
1658789433636196,-0.7019150072480898,-6.134126802471883,46.662088960097435
1658789433652183,-4.852368963149502,-6.195162890058782,46.60105287251076
1658789433668171,-8.026245517662346,-3.4485389486533222,42.938887617303635
1658789433684173,-4.974441138323073,-1.739528496223329,41.290913252460314
1658789433700161,0.7629510948347615,-2.4719615472647547,42.877851529716736
1658789433716148,-1.8616006713969,-3.692683299000464,44.7699702449072
1658789433732135,-12.726024261844714,-3.6316472114137923,42.877851529716736
1658789433748123,-16.510261692225413,-1.6784924086366573,37.1404592965589
1658789433764110,-8.33142595559616,0.7629510948347615,35.37041275654224
1658789433780098,0.8850232700083325,0.03051804379333589,38.23910887312104
1658789433796085,0.7629510948347615,-2.227817196917613,39.33775844968318
1658789433812072,-5.645838101777599,-2.8381780727854675,37.567711909666514
1658789433828060,-11.322194247348762,-2.8381780727854675,35.126268406195095
1658789433844047,-12.115663385976859,-2.410925459678083,35.67559319447605
1658789433860035,-8.087281605249018,-4.303044174868319,38.42221713588151
1658789433876022,-4.364080262455218,-5.2185854886702145,38.36118104829461
1658789433892009,-1.6784924086366573,-3.3264667734797513,36.04180971999676
1658789433907997,-0.5798428320745188,-3.2043945983061803,34.63797970550081
1658789433923984,-0.2746623941404778,-5.828946364538069,35.004196231021524
1658789433939972,-0.5188067444876197,-6.317235065232353,36.53009842069105
1658789433955959,-6.439307240405924,-3.570611123826893,35.248340581368666
1658789433971946,-5.2185854886702145,-0.6408789196611906,31.219958800640825
1658789433987934,4.364080262455218,-0.15259021896690683,30.670634012359642
1658789434003906,8.51453421835663,-2.105745021744042,32.86793316548392
1658789434019893,1.1902037079423735,-2.532997634851654,35.248340581368666
1658789434035881,-11.07804989700162,-1.739528496223329,33.4172579537651
1658789434051868,-13.153276874952326,-1.2512397955290453,30.792706187533213
1658789434067855,-2.166781109330941,-1.4953841458761872,31.158922713053926
1658789434083843,2.227817196917613,-4.42511635004189,35.30937666895534
1658789434099830,-4.119935912108076,-4.60822461280236,38.60532539864175
1658789434115818,-11.871519035629717,-2.655069810025225,36.95735103379866
1658789434131805,-14.862287327382319,-1.739528496223329,34.88212405584795
1658789434147792,-8.45349813076973,-1.1902037079423735,34.39383535515367
1658789434163780,-2.7771419851987957,-0.9460593575952316,34.2717631799801
1658789434179767,-5.95101853971164,-0.8239871824216607,34.63797970550081
1658789434195755,-13.336385137712568,-1.983672846570471,34.943160143434625
1658789434211742,-16.510261692225413,-4.730296787975931,36.591134508277946
1658789434227729,-14.618142977035177,-5.828946364538069,37.75082017242676
1658789434243717,-8.209353780422589,-2.9602502479590385,35.91973754482319
1658789434259704,-0.9460593575952316,0.45777065690094787,33.05104142824439
1658789434275692,2.5940337224383256,0.09155413138023505,32.80689707789725
1658789434291679,-2.5940337224383256,-2.166781109330941,34.02761882963296
1658789434307666,-8.33142595559616,-2.4719615472647547,33.600366216525344
1658789434323669,-9.613183794918768,-0.213626306553806,31.70824750133511
1658789434339656,-4.9134050507361735,1.2512397955290453,30.4875257495994
1658789434355644,-1.1291676203554744,-0.6408789196611906,29.877164873731545
1658789434371631,-0.7629510948347615,-2.04470893415737,29.999237048905115
1658789434387619,-2.227817196917613,-1.6174563210497581,30.121309224078686
1658789434403606,0.9460593575952316,0.5188067444876197,28.595407034408936
1658789434419593,7.11070420386045,1.8616006713969,27.313649195086555
1658789434435581,6.8665598535133086,0.213626306553806,27.252613107499656
1658789434451568,3.1433585107195086,-1.0070954451819034,27.557793545433697
1658789434467556,2.7161058976118966,0.2746623941404778,25.970855268177274
1658789434483543,1.1902037079423735,2.288853284504512,24.383916990920852
1658789434499530,2.532997634851654,4.364080262455218,22.67490653849086
1658789434515518,3.814755474174035,4.486152437628789,22.552834363317288
1658789434531505,-3.7537193865873633,2.288853284504512,23.83459220263967
1658789434547493,-11.871519035629717,-0.09155413138023505,24.01770046540014
1658789434563480,-11.505302510109004,-0.33569848172737693,23.95666437781324
1658789434579467,-4.058899824521177,2.532997634851654,23.224231326771815
1658789434595455,5.706874189364498,4.058899824521177,20.843823910887295
1658789434611442,14.251926451514464,5.157549401083315,21.45418478675515
1658789434627430,14.251926451514464,3.997863736934505,23.102159151598244
1658789434643402,4.9134050507361735,0.5798428320745188,23.102159151598244
1658789434659389,-4.730296787975931,0.2746623941404778,22.308690012970146
1658789434675377,-6.927595941100208,1.5564202334630863,22.67490653849086
1658789434691364,-0.09155413138023505,4.058899824521177,22.8580148012511
1658789434707351,6.561379415579495,5.584802014190927,22.430762188143717
1658789434723339,5.401693751430457,5.2185854886702145,22.8580148012511
1658789434739326,-0.5188067444876197,3.5095750362402214,23.102159151598244
1658789434755313,-4.303044174868319,4.058899824521177,22.61387045090396
1658789434771301,-1.1291676203554744,5.584802014190927,21.820401312275862
1658789434787288,6.073090714885211,5.0354772259097444,22.430762188143717
1658789434803276,13.275349050125897,6.622415503166167,22.186617837796575
1658789434819263,12.970168612191856,7.2938124666209205,21.45418478675515
1658789434835250,3.3264667734797513,3.570611123826893,20.965896086060866
1658789434851238,-3.6316472114137923,1.739528496223329,19.684138246738257
1658789434867225,-1.739528496223329,4.180971999694748,18.036163881895163
1658789434883213,1.0681315327688026,6.439307240405924,17.66994735637445
1658789434899200,0.5798428320745188,5.706874189364498,18.280308232242305
1658789434915187,-3.0212863355459376,3.6316472114137923,18.219272144655406
1658789434931175,-5.706874189364498,1.9226367589837992,16.876478217746126
1658789434947162,-2.7161058976118966,1.8005645838102282,15.716792553597315
1658789434963165,4.547188525215461,2.166781109330941,15.533684290836845
1658789434979152,8.209353780422589,1.983672846570471,16.754406042572555
1658789434995140,11.505302510109004,2.4719615472647547,16.876478217746126
1658789435011127,11.566338597695903,2.7161058976118966,15.411612115663274
1658789435027114,7.4158846417944915,3.4485389486533222,14.557106889448278
1658789435043102,4.730296787975931,2.4719615472647547,15.472648203250174
1658789435059089,2.655069810025225,1.983672846570471,15.472648203250174
1658789435075077,-1.4953841458761872,1.1902037079423735,13.64156557564661
1658789435091064,-3.3875028610666504,0.6408789196611906,12.542915999084471
1658789435107051,-1.6784924086366573,0.6408789196611906,12.848096437018285
1658789435123039,0.7019150072480898,0.7629510948347615,12.542915999084471
1658789435139026,2.04470893415737,1.9226367589837992,11.993591210803288
1658789435155014,2.4719615472647547,3.7537193865873633,11.07804989700162
1658789435171001,0.7629510948347615,2.4719615472647547,10.284580758373295
1658789435186988,-0.8239871824216607,0.6408789196611906,10.955977721828049
1658789435202976,-2.410925459678083,0.15259021896690683,11.261158159761862
1658789435218963,0.3967345693140487,0.9460593575952316,10.284580758373295
1658789435234951,4.852368963149502,3.2654306858930795,9.369039444571627
1658789435250938,7.965209430075447,4.486152437628789,9.308003356984727
1658789435266925,7.354848554207592,3.7537193865873633,9.55214770733187
1658789435282928,1.0681315327688026,1.8616006713969,9.246967269398056
1658789435298915,-5.0354772259097444,1.6784924086366573,8.941786831464015
1658789435314903,-6.622415503166167,2.8381780727854675,8.209353780422589
1658789435330890,-4.42511635004189,4.303044174868319,7.721065079728305
1658789435346878,-4.669260700389032,5.2185854886702145,7.232776379034021
1658789435362865,-8.209353780422589,2.04470893415737,6.195162890058782
1658789435378852,-7.721065079728305,-0.03051804379333589,5.096513313496644
1658789435394840,-4.42511635004189,1.0070954451819034,3.2043945983061803
1658789435410827,1.5564202334630863,2.04470893415737,0.6408789196611906
1658789435426815,4.303044174868319,2.166781109330941,-0.8850232700083325
1658789435442802,1.2512397955290453,0.213626306553806,-1.8005645838102282
1658789435458789,-0.6408789196611906,-1.739528496223329,-2.7161058976118966
1658789435474777,1.0070954451819034,-1.5564202334630863,-5.645838101777599
1658789435490764,1.8005645838102282,-2.9602502479590385,-8.697642481116873
1658789435506752,5.157549401083315,-2.166781109330941,-10.772869459067579
1658789435522739,7.17174029144735,-0.2746623941404778,-12.23773556115043
1658789435538726,9.246967269398056,1.0070954451819034,-13.702601663233281
1658789435554714,6.195162890058782,-0.5188067444876197,-15.289539940489703
1658789435570701,1.0070954451819034,-3.0823224231326094,-16.754406042572555
1658789435586689,-2.04470893415737,-4.242008087281647,-18.341344319828977
1658789435602661,-1.1291676203554744,-4.547188525215461,-19.073777370870403
1658789435618648,5.279621576256886,-3.0212863355459376,-21.51522087434182
1658789435634636,10.711833371480907,-2.532997634851654,-23.590447852292527
1658789435650623,12.115663385976859,-3.2654306858930795,-24.26184481574728
1658789435666610,11.688410772869474,-4.303044174868319,-25.787747005416804
1658789435682598,10.345616845960194,-5.157549401083315,-27.74090180819394
1658789435698585,8.148317692835917,-5.2185854886702145,-29.022659647516548
1658789435714573,7.2938124666209205,-4.486152437628789,-31.097886625467254
1658789435730560,6.500343327992596,-4.242008087281647,-33.41725795376533
1658789435746547,6.9886320286868795,-5.3406576638437855,-33.844510566872714
1658789435762535,6.134126802471883,-6.195162890058782,-33.78347447928604
1658789435778522,7.843137254901876,-5.584802014190927,-37.3235675593196
1658789435794510,8.941786831464015,-5.828946364538069,-41.1078049897003
1658789435810497,9.002822919050914,-5.828946364538069,-42.999923704890534
1658789435826484,12.115663385976859,-4.974441138323073,-43.54924849317172
1658789435842472,14.80125123979542,-4.119935912108076,-44.403753719386714
1658789435858459,11.261158159761862,-6.073090714885211,-45.92965590905624
1658789435874446,6.744487678339738,-5.828946364538069,-49.469748989089794
1658789435890434,0.33569848172737693,-6.805523765926637,-53.19295033188382
1658789435906421,3.2654306858930795,-7.354848554207592,-55.024032959487386
1658789435922424,7.721065079728305,-6.927595941100208,-53.19295033188382
1658789435938411,10.101472495613052,-5.645838101777599,-53.803311207751676
1658789435954399,14.435034714274707,-2.532997634851654,-58.01480125123976
1658789435970386,5.401693751430457,-3.5095750362402214,-59.72381170366975
1658789435986374,-4.730296787975931,-5.2185854886702145,-61.188677805752604
1658789436002361,-3.875791561760934,-6.9886320286868795,-62.9587243457695
1658789436018348,1.2512397955290453,-5.645838101777599,-63.44701304646378
1658789436034336,9.430075532158298,-1.4343480582895154,-62.531471732661885
1658789436050323,9.67421988250544,-2.532997634851654,-61.92111085679403
1658789436066311,3.997863736934505,-9.430075532158298,-60.21210040436404
1658789436082298,-2.105745021744042,-12.542915999084471,-57.22133211261166
1658789436098285,-3.692683299000464,-7.843137254901876,-57.22133211261166
1658789436114273,1.8005645838102282,-3.997863736934505,-58.44205386434737
1658789436130260,8.6366063935302,-4.9134050507361735,-55.3902494850081
1658789436146247,5.462729839017356,-7.598992904554734,-50.6904707408255
1658789436162235,-1.2512397955290453,-7.11070420386045,-49.591821164263365
1658789436178222,3.936827649347606,-3.875791561760934,-50.32425421530479
1658789436194210,10.345616845960194,-3.4485389486533222,-46.54001678492409
1658789436210197,7.904173342488775,-4.9134050507361735,-43.36614023041125
1658789436226184,4.058899824521177,-3.570611123826893,-44.15960936903957
1658789436242157,6.8665598535133086,-1.8005645838102282,-45.25825894560171
1658789436258144,8.819714656290444,-3.692683299000464,-42.32852674143601
1658789436274131,5.706874189364498,-5.95101853971164,-37.20149538414603
1658789436290119,-1.0681315327688026,-4.60822461280236,-36.04180971999699
1658789436306106,0.15259021896690683,-1.6784924086366573,-40.619516289006015
1658789436322094,6.256198977645454,-3.0823224231326094,-40.07019150072483
1658789436338081,4.180971999694748,-5.645838101777599,-34.088654917219856
1658789436354068,-2.3498893720911838,-4.730296787975931,-33.29518577859176
1658789436370056,-6.012054627298312,-1.6784924086366573,-36.652170595864845
1658789436386043,-0.03051804379333589,1.0681315327688026,-39.337758449683406
1658789436402031,8.209353780422589,-2.105745021744042,-38.42221713588174
1658789436418018,7.537956816968062,-6.500343327992596,-34.088654917219856
1658789436434005,3.6316472114137923,-2.04470893415737,-32.928969253071045
1658789436449993,3.2654306858930795,1.6784924086366573,-36.16388189517056
1658789436465980,10.162508583199724,2.04470893415737,-37.81185626001388
1658789436481968,18.036163881895163,0.33569848172737693,-37.20149538414603
1658789436497955,18.036163881895163,-1.739528496223329,-37.01838712138556
1658789436513942,10.040436408026153,-1.3733119707026162,-37.62874799725341
1658789436529930,-0.15259021896690683,0.09155413138023505,-39.337758449683406
1658789436545917,-3.936827649347606,-0.7019150072480898,-41.16884107728697
1658789436561889,-1.0681315327688026,-4.486152437628789,-38.97154192416269
1658789436577877,-1.3122758831159445,-2.532997634851654,-35.24834058136889
1658789436593864,3.0823224231326094,2.4719615472647547,-37.62874799725341
1658789436609851,7.354848554207592,4.242008087281647,-40.741588464179586
1658789436625839,11.444266422522333,1.9226367589837992,-39.94811932555126
1658789436641826,8.697642481116873,-1.739528496223329,-37.872892347600555
1658789436657814,2.532997634851654,-1.6174563210497581,-37.56771190966674
1658789436673801,-0.45777065690094787,0.7629510948347615,-40.436408026245545
1658789436689788,-0.213626306553806,0.9460593575952316,-42.45059891660958
1658789436705776,2.5940337224383256,-3.0212863355459376,-42.32852674143601
1658789436721763,2.7161058976118966,-4.730296787975931,-40.13122758831173
1658789436737751,1.1291676203554744,0.15259021896690683,-37.62874799725341
1658789436753738,3.3264667734797513,4.974441138323073,-38.84946974898912
1658789436769725,6.622415503166167,6.012054627298312,-41.59609369039458
1658789436785713,11.322194247348762,3.5095750362402214,-42.084382391088866
1658789436801700,11.07804989700162,0.213626306553806,-40.07019150072483
1658789436817688,7.17174029144735,-0.2746623941404778,-38.78843366140245
1658789436833675,5.523765926604028,2.105745021744042,-40.741588464179586
1658789436849662,7.4158846417944915,3.5095750362402214,-44.28168154421314
1658789436865650,9.73525597009234,1.2512397955290453,-46.72312504768456
1658789436881652,6.9886320286868795,-3.570611123826893,-46.17380025940338
1658789436897640,3.3875028610666504,-2.5940337224383256,-43.305104142824575
1658789436913627,4.974441138323073,4.974441138323073,-45.07515068284124
1658789436929615,9.55214770733187,7.537956816968062,-48.310063324940984
1658789436945602,18.158236057068734,2.8381780727854675,-47.57763027389956
1658789436961589,15.533684290836845,-1.983672846570471,-43.305104142824575
1658789436977577,7.904173342488775,0.45777065690094787,-43.305104142824575
1658789436993564,11.01701380941472,5.706874189364498,-48.85938811322194
1658789437009552,16.02197299153113,3.936827649347606,-51.85015640497454
1658789437025539,16.26611734187827,-1.8616006713969,-48.126955062180514
1658789437041526,9.430075532158298,-2.410925459678083,-45.01411459525457
1658789437057514,8.758678568703772,1.1902037079423735,-47.51659418631266
1658789437073501,16.02197299153113,2.410925459678083,-49.53078507667669
1658789437089489,15.838864728770886,-0.213626306553806,-44.09857328145267
1658789437105476,5.279621576256886,-1.8616006713969,-40.436408026245545
1658789437121463,5.157549401083315,2.5940337224383256,-42.69474326695672
1658789437137451,8.758678568703772,4.242008087281647,-42.14541847867554
1658789437153438,12.4208438239109,1.0681315327688026,-38.42221713588174
1658789437169426,9.063859006637585,-1.8616006713969,-36.591134508278174
1658789437185413,5.95101853971164,-1.3122758831159445,-38.97154192416269
1658789437201385,8.148317692835917,0.213626306553806,-40.680552376592686
1658789437217373,11.566338597695903,-0.6408789196611906,-37.933928435187454
1658789437233360,10.345616845960194,-3.0212863355459376,-33.17311360341819
1658789437249347,2.3498893720911838,-3.0823224231326094,-33.41725795376533
1658789437265335,-0.2746623941404778,-1.1902037079423735,-35.85870145723675
1658789437281322,5.157549401083315,0.33569848172737693,-33.5393301289389
1658789437297310,11.01701380941472,1.1902037079423735,-29.08369573510322
1658789437313297,9.369039444571627,1.6784924086366573,-27.80193789578084
1658789437329284,7.843137254901876,1.2512397955290453,-29.755092698557974
1658789437345272,7.2938124666209205,-1.0681315327688026,-30.182345311665358
1658789437361259,4.119935912108076,-1.739528496223329,-28.351262684061794
1658789437377246,3.3875028610666504,-0.3967345693140487,-29.08369573510322
1658789437393234,7.660028992141633,0.8850232700083325,-29.999237048905115
1658789437409221,7.17174029144735,-1.739528496223329,-27.191577019912984
1658789437425209,1.6174563210497581,-3.814755474174035,-26.153963530937517
1658789437441196,-0.213626306553806,0.45777065690094787,-26.764324406805372
1658789437457183,4.486152437628789,5.462729839017356,-27.069504844739413
1658789437473171,9.67421988250544,5.157549401083315,-26.52018005645823
1658789437489158,8.209353780422589,2.4719615472647547,-24.628061341267994
1658789437505146,3.4485389486533222,0.03051804379333589,-24.07873655298681
1658789437521148,3.570611123826893,1.983672846570471,-26.58121614404513
1658789437537136,6.256198977645454,3.875791561760934,-27.98504615854108
1658789437553123,6.683451590753066,1.4953841458761872,-27.069504844739413
1658789437569110,5.76791027695117,-1.739528496223329,-26.153963530937517
1658789437585098,1.4343480582895154,-3.0212863355459376,-25.36049439230942
1658789437601085,1.6174563210497581,1.0681315327688026,-25.48256656748299
1658789437617073,5.76791027695117,3.692683299000464,-27.008468757152514
1658789437633060,9.185931181811156,2.3498893720911838,-26.82536049439227
1658789437649047,7.782101167315204,-0.9460593575952316,-23.95666437781324
1658789437665035,4.974441138323073,-2.04470893415737,-22.919050888838
1658789437681022,3.4485389486533222,0.9460593575952316,-24.689097428854666
1658789437697010,3.3264667734797513,2.227817196917613,-26.459143968871558
1658789437712997,4.058899824521177,0.09155413138023505,-25.60463874265656
1658789437728984,1.5564202334630863,-2.288853284504512,-23.285267414358714
1658789437744972,1.3122758831159445,-0.45777065690094787,-22.003509575036105
1658789437760959,1.9226367589837992,2.655069810025225,-21.759365224688963
1658789437776947,0.5798428320745188,3.0212863355459376,-22.064545662623004
1658789437792934,-2.9602502479590385,1.739528496223329,-21.14900434882111
1658789437808921,-2.9602502479590385,1.8616006713969,-20.05035477225897
1658789437824909,0.6408789196611906,3.875791561760934,-19.01274128328373
1658789437840881,7.049668116273779,5.462729839017356,-19.01274128328373
1658789437856868,9.73525597009234,4.852368963149502,-19.501029983978015
1658789437872856,8.270389868009488,2.3498893720911838,-19.378957808804444
1658789437888843,3.3875028610666504,0.5798428320745188,-18.82963302052326
1658789437904831,3.0823224231326094,2.532997634851654,-19.439993896391115
1658789437920818,8.209353780422589,5.828946364538069,-19.439993896391115
1658789437936805,9.67421988250544,5.157549401083315,-18.70756084534969
1658789437952793,7.232776379034021,2.9602502479590385,-18.58548867017612
1658789437968780,1.739528496223329,2.4719615472647547,-17.914091706721592
1658789437984768,0.8239871824216607,4.486152437628789,-18.280308232242305
1658789438000755,4.486152437628789,5.401693751430457,-19.378957808804444
1658789438016742,6.073090714885211,5.584802014190927,-18.70756084534969
1658789438032730,3.2654306858930795,3.936827649347606,-16.510261692225413
1658789438048717,-0.7019150072480898,1.9226367589837992,-16.26611734187827
1658789438064705,-3.3264667734797513,2.7161058976118966,-17.730983443961122
1658789438080692,-0.5798428320745188,4.669260700389032,-19.378957808804444
1658789438096679,3.7537193865873633,5.2185854886702145,-19.1348134584573
1658789438112667,6.012054627298312,4.058899824521177,-17.181658655680167
1658789438128654,6.805523765926637,2.7161058976118966,-16.998550392919697
1658789438144642,5.2185854886702145,4.974441138323073,-18.89066910811016
1658789438160644,2.105745021744042,7.660028992141633,-20.599679560540153
1658789438176632,3.0212863355459376,8.758678568703772,-21.39314869916825
1658789438192619,4.852368963149502,6.073090714885211,-21.026932173647538
1658789438208606,4.730296787975931,4.974441138323073,-20.294499122606112
1658789438224594,3.1433585107195086,6.744487678339738,-20.904859998473967
1658789438240581,2.7771419851987957,6.256198977645454,-22.919050888838
1658789438256569,6.317235065232353,4.303044174868319,-22.67490653849086
1658789438272556,6.561379415579495,2.410925459678083,-21.210040436408008
1658789438288543,4.9134050507361735,1.8616006713969,-20.599679560540153
1658789438304531,2.8381780727854675,3.570611123826893,-21.39314869916825
1658789438320518,4.058899824521177,6.256198977645454,-22.919050888838
1658789438336506,2.8381780727854675,5.828946364538069,-22.61387045090396
1658789438352493,1.4343480582895154,3.1433585107195086,-21.14900434882111
1658789438368480,1.9226367589837992,4.119935912108076,-21.026932173647538
1658789438384468,4.364080262455218,8.575570305943302,-21.45418478675515
1658789438400455,7.660028992141633,8.758678568703772,-20.782787823300396
1658789438416442,9.430075532158298,5.279621576256886,-18.524452582589447
1658789438432430,7.11070420386045,4.42511635004189,-16.754406042572555
1658789438448417,3.875791561760934,7.17174029144735,-16.388189517051842
