Timestamp (microseconds),Accel X (g),Accel Y (g),Accel Z (g)
1658789420731811,0.01605249103532458,-0.4126649881742579,0.9673609521629665
1658789420747809,0.014099336232547444,-0.41364156557564646,0.9446555275806823
1658789420763807,0.015564202334630295,-0.4286564431219957,0.9488059815365837
1658789420779805,0.023743038071259548,-0.41290913252460504,0.945876249332418
1658789420795803,0.030090791180285237,-0.4008239871824215,0.9468528267338066
1658789420811801,0.031311512932020946,-0.40277714198519865,0.9422140840772109
1658789420827798,0.027527275501640247,-0.4126649881742579,0.9308613717860688
1658789420843796,0.026062409399557396,-0.41120012207217504,0.9195086594949267
1658789420859794,0.023743038071259548,-0.40143434805828937,0.928786144808118
1658789420875792,0.02410925459678026,-0.4008239871824215,0.9326924544136723
1658789420891790,0.023743038071259548,-0.40790417334248863,0.9307392996108952
1658789420907788,0.019104295414663852,-0.42084382391088715,0.9469748989089801
1658789420923786,0.023743038071259548,-0.40790417334248863,0.9452658884565501
1658789420939784,0.023010605020218122,-0.3980163271534294,0.946730754558633
1658789420955782,0.026306553749904538,-0.39264515144579226,0.9558861676966508
1658789420971779,0.03167772945754166,-0.38263523308155944,0.9533226520180058
1658789420987777,0.023254749370565264,-0.39105821316853584,0.9630884260318915
1658789421003775,0.020569161516746703,-0.3954528114747844,0.96577401388571
1658789421019773,0.02252231631952384,-0.40411993591210793,0.953566796368353
1658789421035771,0.026916914625772392,-0.3997253376058594,0.9599145494773786
1658789421051757,0.03167772945754166,-0.4037537193865872,0.9564965285725187
1658789421067755,0.03057907988097952,-0.4016784924086365,0.9516136415655758
1658789421083753,0.03338673990997165,-0.4059510185397115,0.9483176928358894
1658789421099751,0.02923628595407024,-0.4055848020141908,0.9431906614785994
1658789421115749,0.019836728465705278,-0.39899290455481795,0.9355001144426645
1658789421131747,0.01995880064087885,-0.4000915541313801,0.9462424658579387
1658789421147745,0.019714656290531707,-0.4066834515907529,0.9557640955214772
1658789421163743,0.02911421377889667,-0.4004577706569008,0.9536888685435265
1658789421179741,0.02398718242160669,-0.4026550698100251,0.9422140840772109
1658789421195738,0.020935378042267416,-0.4133974212252993,0.9397726405737394
1658789421211736,0.01483176928358887,-0.42035553521019287,0.9528343633173115
1658789421227734,0.021789883268482413,-0.40704966811627363,0.9579613946746015
1658789421243732,0.031189440756847375,-0.40399786373693436,0.9597924773022051
1658789421259730,0.02679484245059882,-0.41168841077286933,0.9502708476386665
1658789421275728,0.020569161516746703,-0.4151064316777293,0.9446555275806823
1658789421291726,0.014221408407721015,-0.42426184481574714,0.9516136415655758
1658789421307724,0.02032501716639956,-0.41168841077286933,0.9585717555504694
1658789421323722,0.02679484245059882,-0.40741588464179435,0.9698023956664379
1658789421339719,0.025818265049210254,-0.42084382391088715,0.9560082398718244
1658789421355717,0.024597543297474544,-0.4235294117647057,0.9337911039902345
1658789421371734,0.030090791180285237,-0.42133211261158143,0.9408712901503016
1658789421387732,0.023132677195391693,-0.4181582360570686,0.9363546196688795
1658789421403730,0.024719615472648115,-0.4185244525825893,0.946730754558633
1658789421419728,0.023254749370565264,-0.4307316700999464,0.9395284962233923
1658789421435726,0.033752956435492365,-0.4227969787136643,0.9461203936827651
1658789421451724,0.026062409399557396,-0.41840238040741573,0.9403830014496073
1658789421467722,0.01861600671396957,-0.416327153429465,0.9302510109102009
1658789421483719,0.013244831006332447,-0.42719157701991284,0.944167238879988
1658789421499717,0.01861600671396957,-0.41583886472877074,0.947585259784848
1658789421515715,0.01898222323949028,-0.41571679255359717,0.9447775997558558
1658789421531713,0.020691233691920274,-0.4168154421301593,0.9418478675516901
1658789421547711,0.019714656290531707,-0.4240177004654,0.9402609292744337
1658789421563709,0.026062409399557396,-0.40656137941557935,0.9406271457999544
1658789421579707,0.0289921416037231,-0.4104676890211336,0.944167238879988
1658789421595705,0.027405203326466676,-0.4104676890211336,0.942458228427558
1658789421611703,0.026306553749904538,-0.4126649881742579,0.9447775997558558
1658789421627700,0.02532997634851597,-0.4054627298390172,0.9405050736247809
1658789421643698,0.029968719005111666,-0.4118104829480429,0.9451438162813766
1658789421659696,0.02154573891813527,-0.41840238040741573,0.948439765011063
1658789421675694,0.013244831006332447,-0.4207217517357136,0.945021744106203
1658789421691589,0.021057450217440987,-0.4164492256046386,0.9496604867627987
1658789421707587,0.0289921416037231,-0.4164492256046386,0.9658960860608836
1658789421723585,0.03167772945754166,-0.40912489509422434,0.9534447241931794
1658789421739583,0.02801556420233453,-0.4016784924086365,0.9326924544136723
1658789421755581,0.020569161516746703,-0.4253604943923093,0.9439230945296408
1658789421771578,0.015197985809109582,-0.4314641031509878,0.9572289616235601
1658789421787576,0.01995880064087885,-0.42035553521019287,0.9796902418554971
1658789421803574,0.022278171969176697,-0.41449607080186146,0.9861600671396964
1658789421819572,0.012024109254596738,-0.42963302052338426,0.9682154573891815
1658789421835570,0.0109254596780346,-0.42670328831921855,0.954421301594568
1658789421851568,0.014221408407721015,-0.4155947203784236,0.9588158999008165
1658789421867566,0.027405203326466676,-0.39520866712443725,0.9575951781490808
1658789421883564,0.03314259555962451,-0.39765011062790867,0.9611352712291144
1658789421899562,0.03167772945754166,-0.41290913252460504,0.9556420233463037
1658789421915559,0.029480430304417382,-0.4190127412832836,0.9451438162813766
1658789421931557,0.020935378042267416,-0.419745174334325,0.9480735484855423
1658789421947555,0.02911421377889667,-0.40997940032043934,0.948439765011063
1658789421963553,0.02410925459678026,-0.42218661783779643,0.9448996719310294
1658789421979551,0.027527275501640247,-0.4253604943923093,0.9507591363393608
1658789421995549,0.03350881208514522,-0.4185244525825893,0.9643091477836272
1658789422011383,0.026062409399557396,-0.40521858548867007,0.9370870527199209
1658789422027380,0.023010605020218122,-0.4101014724956129,0.928786144808118
1658789422043377,0.023498893720912406,-0.42706950484473927,0.9405050736247809
1658789422059373,0.031067368581673804,-0.4247501335164414,0.9442893110551616
1658789422075370,0.03460746166170736,-0.4121766994735636,0.9370870527199209
1658789422091367,0.03289845120927737,-0.4008239871824215,0.9204852368963152
1658789422107364,0.03704890516517878,-0.40949111161974505,0.9246356908522166
1658789422123361,0.03460746166170736,-0.4319523918516821,0.933058670939193
1658789422139358,0.034851606012054503,-0.42377355611505285,0.934767681391623
1658789422155355,0.033630884260318794,-0.40656137941557935,0.9353780422674909
1658789422171352,0.032410162508583085,-0.4018005645838101,0.9237811856260016
1658789422187349,0.030945296406500233,-0.4190127412832836,0.9129167620355538
1658789422203346,0.037537193865873064,-0.41791409170672145,0.9146257724879838
1658789422219343,0.03802548256656735,-0.4105897611963072,0.9333028152895402
1658789422235340,0.03717097734035235,-0.40949111161974505,0.9469748989089801
1658789422251337,0.03179980163271523,-0.4260929274433507,0.9353780422674909
1658789422267334,0.03436331731136022,-0.4273136491950864,0.9236591134508281
1658789422283331,0.03399710078583951,-0.426581216144045,0.9204852368963152
1658789422299327,0.03790341039139378,-0.4043640802624551,0.9351338979171437
1658789422315324,0.03143358510719452,-0.4071717402914472,0.940749217975128
1658789422331237,0.029968719005111666,-0.42121004043640786,0.9453879606317237
1658789422347234,0.029480430304417382,-0.4198672465094986,0.9320820935378045
1658789422363231,0.03204394598306237,-0.42255283436331714,0.9459983215075916
1658789422379228,0.02777141985198739,-0.42999923704890497,0.9519798580910965
1658789422395225,0.026306553749904538,-0.4247501335164414,0.9502708476386665
1658789422411222,0.024353398947127403,-0.42963302052338426,0.9626001373311972
1658789422427219,0.02923628595407024,-0.4207217517357136,0.9740749217975129
1658789422443216,0.02679484245059882,-0.4256046387426564,0.9627222095063708
1658789422459213,0.02667277027542525,-0.42328526741435857,0.9522240024414437
1658789422475210,0.024597543297474544,-0.42890058747234283,0.9580834668497751
1658789422491207,0.022278171969176697,-0.42755779354543355,0.9668726634622722
1658789422507204,0.022278171969176697,-0.42340733958953214,0.9656519417105365
1658789422523201,0.01995880064087885,-0.41828030823224216,0.9582055390249486
1658789422539198,0.02032501716639956,-0.4198672465094986,0.9569848172732129
1658789422555194,0.019592584115358136,-0.424872205691615,0.9588158999008165
1658789422571191,0.033752956435492365,-0.4138857099259936,0.9511253528648815
1658789422587188,0.028625925078202386,-0.4247501335164414,0.9412375066758223
1658789422603185,0.028870069428549527,-0.4332951857785914,0.9394064240482187
1658789422619182,0.030823224231326662,-0.4177920195315479,0.9499046311131458
1658789422635179,0.03265430685893023,-0.4092469672693979,0.9550316624704358
1658789422651092,0.02398718242160669,-0.41278706034943147,0.9342793926909287
1658789422667089,0.02032501716639956,-0.4268253604943921,0.9342793926909287
1658789422683085,0.023620965896085977,-0.4264591439688714,0.9358663309681852
1658789422699082,0.03448538948653379,-0.4080262455176622,0.9405050736247809
1658789422715078,0.03839169909208806,-0.41193255512321647,0.9593041886015108
1658789422731074,0.033630884260318794,-0.42413977264057356,0.9522240024414437
1658789422747071,0.030823224231326662,-0.42963302052338426,0.9469748989089801
1658789422763067,0.029724574654764524,-0.42584878309300356,0.9442893110551616
1658789422779064,0.03167772945754166,-0.4201113908598457,0.945021744106203
1658789422795060,0.033630884260318794,-0.4260929274433507,0.9352559700923173
1658789422811057,0.03595025558861664,-0.4192568856336307,0.931349660486763
1658789422827053,0.039002059967955915,-0.421454184786755,0.9462424658579387
1658789422843050,0.03790341039139378,-0.4192568856336307,0.9464866102082858
1658789422859046,0.03717097734035235,-0.42572671091783,0.9361104753185323
1658789422875043,0.037659266041046635,-0.43256275272754996,0.931349660486763
1658789422891039,0.03717097734035235,-0.426581216144045,0.9187762264438852
1658789422907035,0.0327763790341038,-0.4176699473563743,0.9267109178301673
1658789422923032,0.0319218738078888,-0.4236514839398793,0.9345235370412759
1658789422939028,0.03045700770580595,-0.4202334630350193,0.9300068665598538
1658789422955025,0.03546196688792236,-0.42035553521019287,0.9350118257419702
1658789422970916,0.034973678187228074,-0.4198672465094986,0.9251239795529109
1658789422986912,0.03411917296101308,-0.42499427786678856,0.9258564126039524
1658789423002908,0.033875028610665936,-0.43341725795376496,0.9315938048371102
1658789423018904,0.03680476081483164,-0.42328526741435857,0.9282978561074238
1658789423034900,0.034973678187228074,-0.4181582360570686,0.9230487525749602
1658789423050896,0.037537193865873064,-0.42426184481574714,0.9236591134508281
1658789423066892,0.037781338216220206,-0.42243076218814357,0.9242694743266959
1658789423082888,0.03851377126726163,-0.42121004043640786,0.9268329900053409
1658789423098884,0.028503852903028815,-0.42670328831921855,0.9292744335088123
1658789423114880,0.027405203326466676,-0.42877851529716926,0.9328145265888459
1658789423130876,0.029724574654764524,-0.42633707179369784,0.9387960631723509
1658789423146872,0.03607232776379021,-0.4131532768749522,0.9446555275806823
1658789423162868,0.03961242084382377,-0.4173037308308536,0.9438010223544673
1658789423178864,0.03155565728236809,-0.4310978866254671,0.9485618371862365
1658789423194860,0.03436331731136022,-0.4369573510337985,0.9503929198138401
1658789423210856,0.03338673990997165,-0.4202334630350193,0.9617456321049822
1658789423226852,0.03546196688792236,-0.41327534905012575,0.9660181582360572
1658789423242848,0.027527275501640247,-0.4192568856336307,0.9599145494773786
1658789423258844,0.025696192874036683,-0.43268482490272353,0.9530785076676587
1658789423274840,0.0289921416037231,-0.4357366292820628,0.9646753643091479
1658789423290771,0.03326466773479808,-0.4226749065384907,0.9690699626153965
1658789423306767,0.032532234683756656,-0.41535057602807646,0.9613794155794615
1658789423322763,0.028259708552681673,-0.42377355611505285,0.9641870756084536
1658789423338759,0.027405203326466676,-0.4387884336614025,0.9573510337987337
1658789423354755,0.028381780727855244,-0.4323186083772028,0.9480735484855423
1658789423370751,0.03070115205615309,-0.4210879682612343,0.9355001144426645
1658789423386747,0.029724574654764524,-0.423163195239185,0.9359884031433587
1658789423402743,0.027161058976119534,-0.4278019378957807,0.9497825589379723
1658789423418739,0.039124132143129486,-0.42035553521019287,0.9541771572442208
1658789423434735,0.03680476081483164,-0.4210879682612343,0.9344014648661023
1658789423450731,0.03057907988097952,-0.43012130922407854,0.9254901960784316
1658789423466727,0.02252231631952384,-0.43988708323796466,0.9258564126039524
1658789423482723,0.030823224231326662,-0.4295109483482107,0.9355001144426645
1658789423498719,0.033875028610665936,-0.41913481345845716,0.9401388570992602
1658789423514715,0.0327763790341038,-0.42218661783779643,0.9348897535667966
1658789423530711,0.0327763790341038,-0.4252384222171357,0.928786144808118
1658789423546707,0.035095750362401645,-0.4380560006103611,0.9302510109102009
1658789423562703,0.039124132143129486,-0.43646906233310423,0.9268329900053409
1658789423578699,0.03826962691691449,-0.42914473182269,0.9297627222095066
1658789423594695,0.03436331731136022,-0.4273136491950864,0.9280537117570766
1658789423610595,0.03936827649347663,-0.42926680399786354,0.9375753414206152
1658789423626591,0.03302052338445094,-0.4348821240558478,0.9320820935378045
1658789423642586,0.029480430304417382,-0.42841229877164855,0.9186541542687117
1658789423658582,0.031311512932020946,-0.4414740215152211,0.9348897535667966
1658789423674577,0.04107728694590662,-0.4387884336614025,0.9448996719310294
1658789423690573,0.03582818341344307,-0.42670328831921855,0.9308613717860688
1658789423706568,0.03436331731136022,-0.42218661783779643,0.9282978561074238
1658789423722564,0.03179980163271523,-0.42890058747234283,0.9312275883115895
1658789423738559,0.029968719005111666,-0.43683527885862494,0.9357442587930116
1658789423754555,0.03302052338445094,-0.43781185626001395,0.947585259784848
1658789423770550,0.03143358510719452,-0.4380560006103611,0.9463645380331123
1658789423786546,0.029846646829938095,-0.4320744640268557,0.9331807431143666
1658789423802541,0.03436331731136022,-0.42047760738536644,0.9307392996108952
1658789423818537,0.035095750362401645,-0.4285343709468221,0.9479514763103687
1658789423834532,0.03216601815823594,-0.4236514839398793,0.9348897535667966
1658789423850528,0.026306553749904538,-0.44000915541313823,0.9335469596398873
1658789423866523,0.025940337224383825,-0.4452582589456018,0.9435568780041201
1658789423882519,0.03167772945754166,-0.4352483405813685,0.9511253528648815
1658789423898514,0.03424124513618665,-0.43085374227511997,0.9561303120469979
1658789423914510,0.03045700770580595,-0.4285343709468221,0.9511253528648815
1658789423930420,0.027038986800945963,-0.4306095979247728,0.939894712748913
1658789423946415,0.022278171969176697,-0.4324406805523764,0.9479514763103687
1658789423962410,0.02679484245059882,-0.42914473182269,0.9455100328068973
1658789423978405,0.02935835812924381,-0.4201113908598457,0.9355001144426645
1658789423994400,0.030823224231326662,-0.42841229877164855,0.9320820935378045
1658789424010395,0.032288090333409514,-0.42633707179369784,0.9496604867627987
1658789424026390,0.032410162508583085,-0.4227969787136643,0.9524681467917908
1658789424042385,0.019104295414663852,-0.4276798657206071,0.9374532692454416
1658789424058380,0.02423132677195383,-0.44208438239108894,0.9363546196688795
1658789424074375,0.03289845120927737,-0.4323186083772028,0.9309834439612423
1658789424090370,0.03216601815823594,-0.42719157701991284,0.9336690318150609
1658789424106365,0.03289845120927737,-0.42755779354543355,0.955275806820783
1658789424122360,0.02801556420233453,-0.4331731136034178,0.9462424658579387
1658789424138355,0.027283131151293105,-0.4406195162890061,0.9414816510261694
1658789424154350,0.03350881208514522,-0.43134203097581425,0.9370870527199209
1658789424170345,0.032532234683756656,-0.4260929274433507,0.936476691844053
1658789424186340,0.029846646829938095,-0.42291905088883786,0.9314717326619366
1658789424202335,0.028747997253375956,-0.43085374227511997,0.9234149691004809
1658789424218330,0.02679484245059882,-0.4417181658655682,0.936476691844053
1658789424234325,0.0365606164644845,-0.4353704127565421,0.9462424658579387
1658789424250305,0.03460746166170736,-0.4336614023041121,0.9470969710841537
1658789424266300,0.03179980163271523,-0.4202334630350193,0.9271992065308616
1658789424282295,0.028259708552681673,-0.43085374227511997,0.928786144808118
1658789424298290,0.027161058976119534,-0.4369573510337985,0.9353780422674909
1658789424314285,0.027649347676813818,-0.42890058747234283,0.9345235370412759
1658789424330280,0.028259708552681673,-0.4238956282902264,0.9414816510261694
1658789424346275,0.030090791180285237,-0.42206454566262286,0.9431906614785994
1658789424362270,0.03558403906309593,-0.4361028458075835,0.949294270237278
1658789424378265,0.02911421377889667,-0.4469672693980318,0.9439230945296408
1658789424394260,0.03033493553063238,-0.4343938353551535,0.9259784847791259
1658789424410255,0.025940337224383825,-0.4278019378957807,0.9307392996108952
1658789424426250,0.029846646829938095,-0.4273136491950864,0.9516136415655758
1658789424442245,0.030212863355458808,-0.4303654535744257,0.9579613946746015
1658789424458240,0.029724574654764524,-0.42621499961852427,0.9469748989089801
1658789424474235,0.032288090333409514,-0.42426184481574714,0.9291523613336388
1658789424490230,0.0327763790341038,-0.4319523918516821,0.9462424658579387
1658789424506225,0.02642862592507811,-0.44452582589456036,0.9384298466468302
1658789424522220,0.023743038071259548,-0.42743572137026,0.9262226291294731
1658789424538215,0.027161058976119534,-0.42511635004196213,0.9212176699473567
1658789424554210,0.02789349202716096,-0.43512626840619495,0.9402609292744337
1658789424570129,0.02923628595407024,-0.43183031967650853,0.9444113832303351
1658789424586124,0.029846646829938095,-0.43305104142824424,0.9411154345006487
1658789424602118,0.032288090333409514,-0.4293888761730371,0.9392843518730452
1658789424618113,0.03424124513618665,-0.4269474326695657,0.9413595788509959
1658789424634107,0.0327763790341038,-0.4374456397344928,0.9423361562523844
1658789424650102,0.027038986800945963,-0.4384222171358818,0.9411154345006487
1658789424666096,0.023743038071259548,-0.42926680399786354,0.9314717326619366
1658789424682091,0.024475471122300974,-0.42572671091783,0.9342793926909287
1658789424698085,0.03179980163271523,-0.426581216144045,0.939894712748913
1658789424714080,0.03326466773479808,-0.42841229877164855,0.9431906614785994
1658789424730075,0.031067368581673804,-0.43915465018692323,0.941603723201343
1658789424746069,0.028503852903028815,-0.43817807278553467,0.939894712748913
1658789424762064,0.029846646829938095,-0.4353704127565421,0.942458228427558
1658789424778058,0.028625925078202386,-0.4281681544213014,0.9409933623254751
1658789424794053,0.029602502479590953,-0.4335393301289385,0.9455100328068973
1658789424810047,0.029724574654764524,-0.4315861753261614,0.932204165712978
1658789424826042,0.03179980163271523,-0.4298771648737314,0.9387960631723509
1658789424842036,0.033875028610665936,-0.42914473182269,0.9350118257419702
1658789424858031,0.029602502479590953,-0.43903257801174966,0.944167238879988
1658789424874025,0.02923628595407024,-0.4343938353551535,0.9346456092164495
1658789424889953,0.027527275501640247,-0.4329289692530707,0.9300068665598538
1658789424905948,0.024719615472648115,-0.4332951857785914,0.9409933623254751
1658789424921942,0.028503852903028815,-0.42804608224612783,0.946730754558633
1658789424937937,0.026184481574730967,-0.4385442893110554,0.9499046311131458
1658789424953931,0.03057907988097952,-0.4290226596475164,0.9406271457999544
1658789424969926,0.03448538948653379,-0.42841229877164855,0.945876249332418
1658789424985921,0.028381780727855244,-0.42841229877164855,0.9303730830853745
1658789425001915,0.028503852903028815,-0.43476005188067424,0.9273212787060352
1658789425017910,0.028137636377508102,-0.44745555809872606,0.9308613717860688
1658789425033904,0.026306553749904538,-0.4319523918516821,0.9359884031433587
1658789425049899,0.026184481574730967,-0.42426184481574714,0.943312733653773
1658789425065893,0.025696192874036683,-0.4302433813992521,0.9271992065308616
1658789425081888,0.03289845120927737,-0.4361028458075835,0.9298847943846802
1658789425097882,0.04473945220111375,-0.44000915541313823,0.9203631647211417
1658789425113877,0.042786297398336615,-0.43781185626001395,0.9324483100633252
1658789425129871,0.04193179217212162,-0.4331731136034178,0.9503929198138401
1658789425145866,0.03717097734035235,-0.4278019378957807,0.9405050736247809
1658789425161861,0.029968719005111666,-0.42877851529716926,0.9358663309681852
1658789425177855,0.025085831998168828,-0.4414740215152211,0.9439230945296408
1658789425193850,0.029724574654764524,-0.4404974441138325,0.946730754558633
1658789425209747,0.03338673990997165,-0.4350041962310214,0.9447775997558558
1658789425225741,0.032288090333409514,-0.4273136491950864,0.932204165712978
1658789425241735,0.03057907988097952,-0.4302433813992521,0.9486839093614101
1658789425257729,0.02410925459678026,-0.4404974441138325,0.9594262607766844
1658789425273723,0.03216601815823594,-0.4310978866254671,0.9549095902952622
1658789425289717,0.03692683299000521,-0.43268482490272353,0.9309834439612423
1658789425305711,0.03399710078583951,-0.43219653620202925,0.9206073090714888
1658789425321705,0.030823224231326662,-0.4406195162890061,0.9358663309681852
1658789425337700,0.033630884260318794,-0.43341725795376496,0.9438010223544673
1658789425353694,0.03448538948653379,-0.4298771648737314,0.9336690318150609
1658789425369688,0.033752956435492365,-0.4310978866254671,0.9308613717860688
1658789425385682,0.031067368581673804,-0.4385442893110554,0.9298847943846802
1658789425401676,0.03033493553063238,-0.43817807278553467,0.9232928969253074
1658789425417670,0.030823224231326662,-0.4268253604943921,0.9246356908522166
1658789425433664,0.03607232776379021,-0.4209658960860607,0.9129167620355538
1658789425449658,0.0319218738078888,-0.4252384222171357,0.9252460517280845
1658789425465652,0.0327763790341038,-0.4414740215152211,0.9494163424124515
1658789425481646,0.034851606012054503,-0.43549248493171566,0.9427023727779051
1658789425497640,0.031189440756847375,-0.4352483405813685,0.9383077744716566
1658789425513634,0.029968719005111666,-0.42743572137026,0.9334248874647137
1658789425529602,0.02667277027542525,-0.4320744640268557,0.9307392996108952
1658789425545596,0.03326466773479808,-0.4286564431219957,0.9368429083695737
1658789425561590,0.03692683299000521,-0.41962310215915144,0.9411154345006487
1658789425577584,0.034851606012054503,-0.43170824750133496,0.9384298466468302
1658789425593578,0.02777141985198739,-0.44672312504768463,0.9490501258869308
1658789425609572,0.028625925078202386,-0.4518501564049746,0.9562523842221715
1658789425625566,0.03057907988097952,-0.4409857328145268,0.9547875181200887
1658789425641560,0.030823224231326662,-0.4286564431219957,0.942458228427558
1658789425657554,0.024719615472648115,-0.42121004043640786,0.9353780422674909
1658789425673548,0.021789883268482413,-0.43915465018692323,0.945021744106203
1658789425689542,0.027283131151293105,-0.43915465018692323,0.9447775997558558
1658789425705536,0.03216601815823594,-0.4343938353551535,0.9491721980621044
1658789425721531,0.030212863355458808,-0.4369573510337985,0.9488059815365837
1658789425737525,0.025574120698863112,-0.44000915541313823,0.9412375066758223
1658789425753519,0.026184481574730967,-0.4472114137483789,0.9406271457999544
1658789425769513,0.03143358510719452,-0.4380560006103611,0.9392843518730452
1658789425785507,0.03045700770580595,-0.4302433813992521,0.9265888456549938
1658789425801501,0.028747997253375956,-0.4365911345082778,0.9389181353475244
1658789425817495,0.028503852903028815,-0.44074158846417966,0.9365987640192266
1658789425833489,0.03558403906309593,-0.43305104142824424,0.938185702296483
1658789425849426,0.036194399938963784,-0.42743572137026,0.931349660486763
1658789425865420,0.029602502479590953,-0.4361028458075835,0.9395284962233923
1658789425881414,0.02532997634851597,-0.4426947432669568,0.9340352483405816
1658789425897408,0.02935835812924381,-0.4312199588006407,0.9267109178301673
1658789425913402,0.03216601815823594,-0.4341496910048064,0.9290302891584652
1658789425929396,0.03424124513618665,-0.426581216144045,0.9345235370412759
1658789425945390,0.029846646829938095,-0.42792401007095426,0.9319600213626309
1658789425961384,0.03070115205615309,-0.42804608224612783,0.9318379491874573
1658789425977378,0.03814755474174092,-0.4295109483482107,0.9270771343556881
1658789425993373,0.029968719005111666,-0.44281681544213036,0.9269550621805145
1658789426009367,0.031311512932020946,-0.4431830319676511,0.9370870527199209
1658789426025361,0.03289845120927737,-0.4245059891660943,0.9323262378881516
1658789426041355,0.039002059967955915,-0.41718165865568,0.9284199282825973
1658789426057349,0.03448538948653379,-0.42804608224612783,0.9348897535667966
1658789426073343,0.027283131151293105,-0.43634699015793066,0.9362325474937059
1658789426089337,0.02423132677195383,-0.4298771648737314,0.9353780422674909
1658789426105331,0.026916914625772392,-0.4357366292820628,0.941603723201343
1658789426121325,0.03155565728236809,-0.4341496910048064,0.936476691844053
1658789426137319,0.03472953383688093,-0.4295109483482107,0.9384298466468302
1658789426153313,0.03179980163271523,-0.43683527885862494,0.9488059815365837
1658789426169250,0.02642862592507811,-0.4463569085221639,0.9636987869077593
1658789426185244,0.031189440756847375,-0.4358587014572364,0.9623559929808501
1658789426201237,0.02655069810025168,-0.44000915541313823,0.9602807660028994
1658789426217231,0.027038986800945963,-0.4522163729304953,0.9658960860608836
1658789426233224,0.028747997253375956,-0.464545662623026,0.9617456321049822
1658789426249218,0.0289921416037231,-0.4507515068284125,0.9680933852140079
1658789426265212,0.0319218738078888,-0.4425726710917832,0.9767605096513314
1658789426281205,0.028137636377508102,-0.4573434042877853,0.9824979018844893
1658789426297199,0.03558403906309593,-0.46808575570305955,0.9870145723659114
1658789426313192,0.036438544289310926,-0.4733348592355231,0.9945830472266728
1658789426329186,0.03924620431830306,-0.45136186770428033,0.9953154802777142
1658789426345180,0.029968719005111666,-0.4536812390325782,0.9877470054169528
1658789426361173,0.03411917296101308,-0.4644235904478524,0.9915312428473335
1658789426377167,0.04461738002594018,-0.4740672922865645,1.0084992751964599
1658789426393160,0.04962233920805659,-0.47064927138170454,1.0153353170061798
1658789426409154,0.04449530785076661,-0.4700389105058367,1.0128938735027084
1658789426425148,0.05011062790875087,-0.4724803540093081,1.0135042343785763
1658789426441141,0.05023270008392444,-0.4754100862134738,1.010452429999237
1658789426457135,0.05242999923704872,-0.4506294346532389,0.9958037689784085
1658789426473128,0.054383154039825854,-0.4384222171358818,0.9806668192568857
1658789426489105,0.06268406195162868,-0.44953078507667676,0.9826199740596628
1658789426505098,0.06524757763027367,-0.46967269398031597,0.9978789959563592
1658789426521092,0.07171740291447293,-0.46466773479819956,1.0072785534447242
1658789426537086,0.0718394750896465,-0.45294880598153675,0.9712672617685207
1658789426553079,0.08307011520561502,-0.4497749294270239,0.9621118486305029
1658789426569073,0.08905165178912,-0.4657663843747617,0.9656519417105365
1658789426585066,0.10101472495612995,-0.456000610360876,0.9656519417105365
1658789426601060,0.10785076676584993,-0.4442816815442132,0.9595483329518579
1658789426617054,0.10907148851758564,-0.43183031967650853,0.9418478675516901
1658789426633047,0.11541924162661132,-0.4417181658655682,0.9162127107652402
1658789426649041,0.1267719539177543,-0.45551232166018174,0.9242694743266959
1658789426665034,0.13910124361028497,-0.4566109712367439,0.9325703822384988
1658789426681028,0.13910124361028497,-0.4459906919966432,0.9469748989089801
1658789426697022,0.14081025406271497,-0.4501411459525446,0.9532005798428322
1658789426713015,0.14312962539101282,-0.46210421911955457,0.9479514763103687
1658789426729009,0.16144045166704846,-0.4664988174258031,0.9660181582360572
1658789426745002,0.16815442130159486,-0.46137178606851315,0.9630884260318915
1658789426760996,0.1646143282215613,-0.44953078507667676,0.9459983215075916
1658789426776990,0.16400396734569345,-0.45966277561608315,0.9444113832303351
1658789426792983,0.17413595788509983,-0.4544136720836196,0.9379415579461359
1658789426808960,0.18805218585488692,-0.4523384451056689,0.9497825589379723
1658789426824953,0.19391165026321833,-0.45539024948500817,0.9413595788509959
1658789426840947,0.2048981460288397,-0.45709925993743816,0.9403830014496073
1658789426856940,0.2129549095902954,-0.4716258487830931,0.9456321049820708
1658789426872934,0.21612878614480824,-0.4862745098039216,0.9405050736247809
1658789426888928,0.23834592202639815,-0.45929655909056244,0.9245136186770431
1658789426904921,0.2418860151064317,-0.45050736247806533,0.9041275654230567
1658789426920915,0.242374303807126,-0.4657663843747617,0.8963149462119482
1658789426936908,0.2439612420843824,-0.4721141374837874,0.9184100099183645
1658789426952902,0.26019684138246735,-0.4435492484931718,0.8948500801098653
1658789426968896,0.2730144197756923,-0.4480659189745939,0.8864271000228889
1658789426984889,0.27618829633020514,-0.47431143663691167,0.8892347600518811
1658789427000883,0.2772869459067673,-0.492988479438468,0.9350118257419702
1658789427016876,0.29034866865033937,-0.48871595330739304,0.9505149919890137
1658789427032870,0.30048065918974576,-0.4755321583886474,0.9138933394369424
1658789427048864,0.30841535057602787,-0.500679026474403,0.9202410925459681
1658789427064857,0.3014572365911343,-0.5362020294499121,0.9499046311131458
1658789427080851,0.3070725566491186,-0.500679026474403,0.9549095902952622
1658789427096844,0.3212329289692528,-0.462836652170596,0.9334248874647137
1658789427112838,0.3335622186617835,-0.4767528801403831,0.9242694743266959
1658789427128784,0.3452811474784463,-0.49250019073777374,0.9257343404287788
1658789427144777,0.35504692149233197,-0.507515068284123,0.9239032578011752
1658789427160770,0.37482261387045046,-0.4843213550011445,0.8925307087815675
1658789427176763,0.38739604791332916,-0.46430151827267885,0.8760509651331354
1658789427192756,0.4064393072404062,-0.494697489890898,0.8858167391470211
1658789427208749,0.4116884107728698,-0.5199664301518272,0.8998550392919817
1658789427224743,0.4182803082322426,-0.4973830777447166,0.880445563439384
1658789427240736,0.4304875257495997,-0.47528801403830023,0.8343022812237733
1658789427256729,0.4549019607843139,-0.458564126039521,0.818432898451209
1658789427272722,0.4518501564049746,-0.48578622110322733,0.8092774853131912
1658789427288715,0.44245059891660965,-0.46051728084229815,0.7890135042343784
1658789427304708,0.4502632181277182,-0.41498435950255574,0.7732661936369878
1658789427320701,0.4547798886091403,-0.42243076218814357,0.7620355535210193
1658789427336694,0.47943846799420164,-0.45343709468223103,0.7493400473029679
1658789427352687,0.503242542153048,-0.4606393530174717,0.7243152513923858
1658789427368681,0.53510337987335,-0.4417181658655682,0.7122301060502023
1658789427384674,0.5437705043106735,-0.43463797970550067,0.7071030746929123
1658789427400667,0.5573205157549399,-0.45673304341191745,0.7122301060502023
1658789427416660,0.5794155794613562,-0.44538033112077535,0.6795147631036853
1658789427432653,0.591134508278019,-0.43048752574959925,0.6564431219958804
1658789427448608,0.5934538796063169,-0.41168841077286933,0.6702372777904939
1658789427464601,0.6127412832837411,-0.38056000610360874,0.610788128480964
1658789427480594,0.6333714808880755,-0.3786068513008316,0.5851529716945141
1658789427496587,0.6370336461432826,-0.4009460593575951,0.6406958113984897
1658789427512580,0.6382543678950183,-0.3928892957961394,0.6132295719844354
1658789427528574,0.6311741817349512,-0.4160830090791179,0.595407034409094
1658789427544567,0.6280003051804384,-0.4285343709468221,0.5612268253604942
1658789427560560,0.6382543678950183,-0.4207217517357136,0.5813687342641334
1658789427576553,0.672190432593271,-0.3786068513008316,0.5824673838406955
1658789427592546,0.7132066834515909,-0.36029602502479596,0.5773403524834055
1658789427608539,0.7353017471580072,-0.39435416189822226,0.5415732051575493
1658789427624532,0.7249256122682537,-0.41718165865568,0.5217975127794308
1658789427640525,0.7259021896696423,-0.4025329976348515,0.5539024948500799
1658789427656519,0.7343251697566187,-0.3862973983367666,0.5242389562829022
1658789427672512,0.7603265430685893,-0.36578927290760666,0.46210421911955457
1658789427688505,0.7653315022507057,-0.3933775844968337,0.46344701304646385
1658789427704498,0.7393301289387351,-0.39557488364995796,0.4664988174258031
1658789427720491,0.7414053559166858,-0.35834287022201883,0.47992675669489593
1658789427736484,0.7400625619897765,-0.3639581902800031,0.465400167849241
1658789427752477,0.7600823987182421,-0.3714045929655909,0.3805600061036092
1658789427768463,0.7716792553597314,-0.35028610666056315,0.3590753032730598
1658789427784456,0.7755855649652856,-0.3369802395666439,0.3792172121766999
1658789427800449,0.7965819790951398,-0.3219653620202947,0.3826352330815599
1658789427816442,0.8364995803768975,-0.34723430228122387,0.40119020370794267
1658789427832435,0.8603036545357439,-0.35529106584267955,0.3767757686732285
1658789427848428,0.8513923857480732,-0.34137483787289247,0.34381628137636344
1658789427864421,0.8334477759975583,-0.32587167162584896,0.32074464026855853
1658789427880415,0.8162355992980848,-0.37042801556420235,0.29974822613870433
1658789427896408,0.828686961165789,-0.3906919966430151,0.3157396810864421
1658789427912401,0.8496833752956432,-0.3739681086442359,0.3486991683833063
1658789427928394,0.8543221179522389,-0.3496757457846953,0.3132982375829707
1658789427944387,0.8548104066529332,-0.3124437323567557,0.2890058747234301
1658789427960380,0.8364995803768975,-0.3341725795376518,0.26776531624322875
1658789427976373,0.8512703135728996,-0.31793698023956685,0.2200350957503625
1658789427992366,0.8637216754406039,-0.31183337148088786,0.22455176623178463
1658789428008360,0.8772716868848711,-0.3159838254367897,0.2573891813534752
1658789428024353,0.8958266575112539,-0.32806897077897323,0.24933241779201953
1658789428040346,0.899488822766461,-0.3295338368810561,0.18927290760662263
1658789428056339,0.8908216983291375,-0.32843518730449395,0.16388189517051988
1658789428072332,0.8847180895704589,-0.30096894789044004,0.18658731975280407
1658789428088287,0.8927748531319146,-0.3104905775539786,0.2108796826123447
1658789428104280,0.9221942473487452,-0.29034866865033937,0.14935530632486493
1658789428120273,0.9273212787060352,-0.2737468528267337,0.11737239642938846
1658789428136266,0.9098649576562146,-0.26276035706111234,0.11285572594796633
1658789428152259,0.8855725947966739,-0.2477454795147631,0.12469672693980272
1658789428168253,0.8976577401388575,-0.2520180056458381,0.123476005188067
1658789428184246,0.9209735255970095,-0.2561684596017395,0.10675211718928779
1658789428200239,0.9303730830853745,-0.2830243381399251,0.12799267566949002
1658789428216232,0.9257343404287788,-0.276798657206073,0.13507286182955713
1658789428232225,0.9262226291294731,-0.2755779354543373,0.11749446860456203
1658789428248218,0.941603723201343,-0.2516517891203174,0.06402685587853796
1658789428264211,0.9445334554055087,-0.22613870450904106,0.039124132143129486
1658789428280204,0.9610131990539408,-0.20587472343022828,0.07721065079728362
1658789428296198,0.9523460746166172,-0.23370717936980245,0.1071183337148085
1658789428312191,0.9468528267338066,-0.24127565423056385,0.058289463645380124
1658789428328184,0.9275654230563823,-0.2351720454718853,0.007873655298695326
1658789428344177,0.9093766689555203,-0.23627069504844744,0.00323491264209963
1658789428360170,0.9263447013046466,-0.2284580758373389,0.02667277027542525
1658789428376163,0.9462424658579387,-0.22394140535591678,0.024841687647821686
1658789428392156,0.9532005798428322,-0.22223239490348679,0.007873655298695326
1658789428408081,0.9361104753185323,-0.23028915846494247,0.020569161516746703
1658789428424073,0.9197528038452738,-0.2234531166552225,-0.004699778744182481
1658789428440066,0.9177996490424967,-0.21368734264133682,-0.03033493553063238
1658789428456059,0.954421301594568,-0.19171435111009405,-0.07354848554207694
1658789428472051,0.9752956435492486,-0.18243686579690221,-0.0800183108262762
1658789428488044,0.9694361791409172,-0.20404364080262472,-0.042664225223163044
1658789428504037,0.9568627450980394,-0.18524452582589435,-0.05133134966048658
1658789428520029,0.9532005798428322,-0.1890287632562755,-0.09076066224155044
1658789428536022,0.9542992294193944,-0.20148012512397973,-0.12384222171358816
1658789428552014,0.9727321278706036,-0.20184634164950044,-0.10455481803616395
1658789428568007,0.9685816739147022,-0.1965972381170369,-0.08990615701533544
1658789428584000,0.9517357137407494,-0.19537651636530118,-0.07391470206759765
1658789428599992,0.9302510109102009,-0.21149004348821254,-0.07183947508964694
1658789428615985,0.9146257724879838,-0.2083161669336997,-0.08563363088426046
1658789428631978,0.9098649576562146,-0.2171053635461968,-0.11346608682383463
1658789428647970,0.9335469596398873,-0.19171435111009405,-0.12457465476462959
1658789428663963,0.9672388799877929,-0.15448233768215447,-0.14520485236896308
1658789428679956,0.985427634088655,-0.1543602655069809,-0.14911116197451735
1658789428695948,0.9652857251850158,-0.19623102159151617,-0.14142061493858238
1658789428711941,0.9376974135957887,-0.2121004043640804,-0.1316548409246967
1658789428727935,0.9329365987640195,-0.18524452582589435,-0.14019989318684667
1658789428743928,0.9440451667048144,-0.18744182497901862,-0.18133821622034008
1658789428759921,0.9613794155794615,-0.21747158007171752,-0.18011749446860437
1658789428775913,0.9733424887464714,-0.22833600366216533,-0.14496070801861594
1658789428791906,0.9639429312581065,-0.23260852979324032,-0.12884718089570457
1658789428807899,0.9673609521629665,-0.19671931029221046,-0.1724269474326694
1658789428823891,0.9545433737697415,-0.20001525902189687,-0.18304722667277007
1658789428839884,0.9470969710841537,-0.20306706340123615,-0.18878461890592835
1658789428855877,0.9452658884565501,-0.19427786678873904,-0.16998550392919798
1658789428871869,0.9344014648661023,-0.18023956664377794,-0.15741206988632017
1658789428887862,0.9324483100633252,-0.16754406042572656,-0.18451209277485292
1658789428903854,0.9147478446631574,-0.1829251544975965,-0.2200350957503625
1658789428919847,0.9215838864728774,-0.18963912413214334,-0.2196688792248418
1658789428935840,0.9368429083695737,-0.1902494850080112,-0.19757381551842546
1658789428951832,0.952712291142138,-0.18353551537346435,-0.1923247119859619
1658789428967825,0.9566186007476922,-0.18182650492103436,-0.20978103303578255
1658789428983818,0.9481956206607158,-0.18744182497901862,-0.25311665522240023
1658789428999810,0.9386739909971773,-0.18915083543144906,-0.24554818036163883
1658789429015803,0.9439230945296408,-0.18268101014724936,-0.2666666666666666
1658789429031796,0.9538109407187001,-0.15204089417868305,-0.30682841229877145
1658789429047760,0.9558861676966508,-0.14068818188754095,-0.2902265964751658
1658789429063752,0.9353780422674909,-0.13495078965438312,-0.28375677119096654
1658789429079745,0.9278095674067295,-0.13580529488059812,-0.2780193789578087
1658789429095738,0.9317158770122838,-0.1569237811856259,-0.29413290608072007
1658789429111730,0.932204165712978,-0.15301747158007162,-0.3245288776989397
1658789429127723,0.933058670939193,-0.15033188372625306,-0.2993820096131836
1658789429143715,0.9385519188220037,-0.1552147707331959,-0.2818036163881894
1658789429159708,0.940749217975128,-0.16131837949187444,-0.275944151979858
1658789429175701,0.9429465171282523,-0.13812466620889596,-0.2897383077744715
1658789429191693,0.9428244449530787,-0.12738231479362172,-0.3277027542534525
1658789429207686,0.9386739909971773,-0.13824673838406953,-0.34772259098191816
1658789429223679,0.9392843518730452,-0.14410620279240094,-0.3235523002975511
1658789429239671,0.9379415579461359,-0.14227512016479738,-0.2893720912489508
1658789429255664,0.9431906614785994,-0.14227512016479738,-0.2754558632791637
1658789429271657,0.9345235370412759,-0.14605935759517807,-0.2890058747234301
1658789429287649,0.9284199282825973,-0.1467917906462195,-0.3159838254367897
1658789429303642,0.9306172274357216,-0.1543602655069809,-0.30255588616769646
1658789429319635,0.9335469596398873,-0.16498054474708157,-0.28253604943923083
1658789429335627,0.9387960631723509,-0.14532692454413665,-0.28375677119096654
1658789429351620,0.9306172274357216,-0.13788052185854882,-0.28925001907377723
1658789429367584,0.9210955977721831,-0.14325169756618594,-0.30768291752498644
1658789429383576,0.9203631647211417,-0.1450827801937895,-0.3003585870145722
1658789429399569,0.9326924544136723,-0.14947737850003806,-0.28876173037308295
1658789429415562,0.9419699397268637,-0.14923323414969092,-0.2818036163881894
1658789429431554,0.9478294041351951,-0.1467917906462195,-0.2893720912489508
1658789429447547,0.9512474250400551,-0.14312962539101237,-0.2981612878614479
1658789429463540,0.9478294041351951,-0.16852063782711513,-0.2796063172350651
1658789429479532,0.9505149919890137,-0.18060578316929865,-0.24200808728160528
1658789429495525,0.9555199511711301,-0.1762111848630501,-0.21564049744411395
1658789429511518,0.9494163424124515,-0.16974135957885084,-0.21808194094758537
1658789429527510,0.9351338979171437,-0.1602197299153123,-0.24542610818646526
1658789429543503,0.9286640726329445,-0.16754406042572656,-0.2301670862897689
1658789429559496,0.9279316395819031,-0.18573281452658863,-0.1712062256809337
1658789429575488,0.9315938048371102,-0.1943999389639126,-0.128725108720531
1658789429591481,0.9375753414206152,-0.18182650492103436,-0.1502098115510795
1658789429607473,0.9383077744716566,-0.17376974135957868,-0.16266117341878372
1658789429623466,0.9326924544136723,-0.21112382696269183,-0.15045395590142663
1658789429639459,0.9442893110551616,-0.21441977569237824,-0.1447165636682688
1658789429655451,0.9557640955214772,-0.205386434729534,-0.13104448004882885
1658789429671444,0.9735866330968186,-0.1862211032272829,-0.14105439841306167
1658789429687439,0.9873807888914321,-0.1602197299153123,-0.16388189517051943
1658789429703431,0.9790798809796293,-0.20123598077363258,-0.14544899671931022
1658789429719424,0.9741969939726864,-0.22247653925383393,-0.1299458304722667
1658789429735417,0.9728542000457772,-0.19513237201495404,-0.13202105745021742
1658789429751409,0.953566796368353,-0.1841458762493322,-0.15204089417868305
1658789429767402,0.9505149919890137,-0.17218280308232226,-0.15545891508354304
1658789429783394,0.9463645380331123,-0.1774319066147858,-0.13006790264744028
1658789429799387,0.9477073319600215,-0.17633325703822367,-0.12335393301289388
1658789429815380,0.9564965285725187,-0.16559090562294942,-0.1328755626764324
1658789429831372,0.9545433737697415,-0.1862211032272829,-0.15216296635385662
1658789429847365,0.9513694972152287,-0.2024567025253683,-0.14203097581445023
1658789429863358,0.9546654459449151,-0.19684138246738403,-0.12237735561150531
1658789429879350,0.9579613946746015,-0.2048981460288397,-0.1106584267948425
1658789429895343,0.9696803234912643,-0.19769588769359903,-0.1275043869687953
1658789429911336,0.9661402304112308,-0.18048371099412508,-0.15082017242694734
1658789429927328,0.9630884260318915,-0.17682154573891795,-0.132143129625391
1658789429943321,0.9629663538567179,-0.19073777370870548,-0.09967193102922112
1658789429959313,0.9634546425574122,-0.18146028839551365,-0.09185931181811258
1658789429975306,0.9660181582360572,-0.15948729686427088,-0.11944762340733961
1658789429991299,0.9459983215075916,-0.14459449149309522,-0.1299458304722667
1658789430007263,0.9387960631723509,-0.15875486381322945,-0.09454489967193114
1658789430023255,0.9317158770122838,-0.18512245365072078,-0.06854352635996053
1658789430039248,0.9351338979171437,-0.19098191805905262,-0.05914396887159512
1658789430055241,0.9517357137407494,-0.1712062256809337,-0.05365072098878443
1658789430071233,0.9502708476386665,-0.1652246890974287,-0.08404669260700404
1658789430087226,0.9591821164263372,-0.18597695887693577,-0.06390478370336483
1658789430103219,0.9566186007476922,-0.19842832074464045,-0.04888990615701516
1658789430119211,0.9566186007476922,-0.19537651636530118,-0.04119935912108019
1658789430135204,0.9615014877546351,-0.1808499275196458,-0.05255207141222229
1658789430151197,0.9534447241931794,-0.1850003814755472,-0.06659037155718339
1658789430167189,0.9542992294193944,-0.20550850690470757,-0.0252079041733424
1658789430183182,0.9394064240482187,-0.2296787975890746,0.010437170977340315
1658789430199175,0.9428244449530787,-0.22626077668421463,-0.02130159456778813
1658789430215167,0.9444113832303351,-0.22357518883039607,-0.024841687647821686
1658789430231160,0.9403830014496073,-0.20221255817502115,-0.025940337224383825
1658789430247152,0.9395284962233923,-0.1995269703212026,-0.002990768291752488
1658789430263145,0.9344014648661023,-0.22540627145799963,0.02252231631952384
1658789430279138,0.9376974135957887,-0.238956282902266,0.010803387502861028
1658789430295130,0.933058670939193,-0.22906843671320676,0.003356984817273201
1658789430311123,0.9234149691004809,-0.2191805905241475,0.01226825360494388
1658789430327087,0.919996948195621,-0.24054322117952243,0.06305027847714939
1658789430343080,0.9129167620355538,-0.2653238727397573,0.07928587777523433
1658789430359072,0.9224383916990924,-0.2536049439230945,0.07306019684138221
1658789430375065,0.9195086594949267,-0.25677882047760736,0.07891966124971361
1658789430391058,0.9177996490424967,-0.23761348897535672,0.08709849698634287
1658789430407050,0.915724422064546,-0.24115358205539028,0.09918364232852639
1658789430423043,0.9032730601968417,-0.2565346761272602,0.11871519035629774
1658789430439036,0.9008316166933703,-0.24982070649271382,0.1062638284885935
1658789430455028,0.8870374608987568,-0.26556801709010447,0.12249942778667844
1658789430471021,0.8841077286945911,-0.2670328831921873,0.15863279163805633
1658789430487013,0.8819104295414668,-0.27704280155642014,0.18158236057068766
1658789430503006,0.883009079118029,-0.30548561837186217,0.17926298924238981
1658789430518999,0.8791027695124747,-0.313908598458839,0.18951705195696977
1658789430534991,0.8747081712062252,-0.2772869459067673,0.20978103303578255
1658789430550984,0.8776379034103918,-0.26556801709010447,0.23907835507743957
1658789430566977,0.8875257495994511,-0.2938887617303729,0.24933241779201953
1658789430582969,0.8975356679636839,-0.3031662470435643,0.24213015945677885
1658789430598962,0.8817883573662932,-0.2848554207675287,0.22027924010070965
1658789430614955,0.8736095216296631,-0.2608072022583352,0.2981612878614479
1658789430630947,0.8433356221866175,-0.3194018463416497,0.3428397039749749
1658789430646911,0.834668497749294,-0.34393835355153746,0.34296177615014845
1658789430662903,0.8347905699244675,-0.33551537346456106,0.3272144655527578
1658789430678896,0.8172121766994733,-0.31671625848783114,0.3297779812314028
1658789430694888,0.8115968566414891,-0.31012436102845786,0.39118028534370985
1658789430710880,0.8118410009918362,-0.3479667353322653,0.47724116884107737
1658789430726872,0.8299076829175247,-0.348332951857786,0.4774853131914245
1658789430742864,0.8305180437933926,-0.357732509346151,0.4557564660105289
1658789430758856,0.8170901045242998,-0.3770199130235752,0.48737315938048376
1658789430774849,0.7918211642633706,-0.4066834515907529,0.52143129625391
1658789430790841,0.7992675669489584,-0.3803158617532616,0.5149614709697108
1658789430806833,0.7945067521171891,-0.38141451132982374,0.5449912260624092
1658789430822825,0.7787594415197985,-0.3925230792706187,0.5490196078431371
1658789430838817,0.7665522240024414,-0.3773861295490959,0.5399862668802928
1658789430854809,0.7544670786602579,-0.40192263675898365,0.5856412603952084
1658789430870802,0.75385671778439,-0.43183031967650853,0.5723353933012891
1658789430886794,0.7578850995651178,-0.42426184481574714,0.5539024948500799
1658789430902786,0.75214770733196,-0.4046082246128022,0.5414511329823757
1658789430918778,0.7310292210269322,-0.3963073167009994,0.5773403524834055
1658789430934770,0.7268787670710308,-0.3982604715037765,0.6236057068741889
1658789430950762,0.7422598611429008,-0.39557488364995796,0.6068818188754097
1658789430966766,0.7389639124132144,-0.4140077821011672,0.5933318074311433
1658789430982759,0.7184557869840544,-0.4005798428320744,0.5800259403372241
1658789430998751,0.6881818875410088,-0.3991149767299915,0.6311741817349512
1658789431014744,0.6768291752498667,-0.41583886472877074,0.6524147402151526
1658789431030737,0.6919661249713895,-0.42084382391088715,0.6304417486839098
1658789431046729,0.7036850537880524,-0.42963302052338426,0.6485084306095983
1658789431062722,0.6990463111314567,-0.40448615243762864,0.6441138323033497
1658789431078714,0.6828107118333717,-0.40827038986800934,0.6786602578774703
1658789431094707,0.6687724116884111,-0.4389105058365761,0.6942854962996874
1658789431110700,0.6604715037766082,-0.4535591668574046,0.6874494544899674
1658789431126692,0.6552224002441447,-0.41168841077286933,0.670481422140841
1658789431142685,0.6466773479819947,-0.41535057602807646,0.6802471961547267
1658789431158678,0.6453345540550854,-0.4193789578088043,0.7188220035095751
1658789431174670,0.6510719462882433,-0.4269474326695657,0.7208972304875259
1658789431190663,0.6511940184634168,-0.4143739986266879,0.6972152285038531
1658789431206656,0.6406958113984897,-0.4013122758831158,0.6653543907835511
1658789431222648,0.6245822842755775,-0.40619516289005864,0.7058823529411766
1658789431238641,0.6262912947280084,-0.41168841077286933,0.76069275959411
1658789431254634,0.6325169756618605,-0.41913481345845716,0.7199206530861373
1658789431270626,0.6337376974135962,-0.42706950484473927,0.7093003738460366
1658789431286590,0.6061493858243683,-0.4310978866254671,0.7129625391012437
1658789431302582,0.578927290760662,-0.4298771648737314,0.7382314793621729
1658789431318575,0.5779507133592734,-0.41327534905012575,0.7479972533760586
1658789431334567,0.5871061264972912,-0.40619516289005864,0.7171129930571452
1658789431350559,0.591989013504234,-0.3963073167009994,0.6988021667811095
1658789431366551,0.5821011673151748,-0.3891050583657587,0.7113756008239873
1658789431382543,0.5680628671702141,-0.4201113908598457,0.730540932326238
1658789431398535,0.5734340428778513,-0.42926680399786354,0.7531242847333486
1658789431414528,0.5758754863813227,-0.42597085526817713,0.7404287785152972
1658789431430520,0.5642786297398334,-0.42633707179369784,0.7360341802090486
1658789431446512,0.5507286182955671,-0.42413977264057356,0.7565423056382086
1658789431462504,0.5387655451285571,-0.42706950484473927,0.7536125734340429
1658789431478496,0.5332722972457464,-0.40521858548867007,0.75043869687953
1658789431494488,0.5390096894789043,-0.3967956054016937,0.7382314793621729
1658789431510481,0.5244831006332493,-0.4043640802624551,0.7493400473029679
1658789431526473,0.5152056153200579,-0.41962310215915144,0.7515373464560922
1658789431542465,0.5117875944151979,-0.42462806134126785,0.7599603265430686
1658789431558457,0.5091020065613794,-0.42133211261158143,0.7807125963225756
1658789431574449,0.4984817273212787,-0.3971618219272144,0.780590524147402
1658789431590441,0.4804150453955902,-0.4114442664225222,0.7935301747158006
1658789431606384,0.4737010757610438,-0.4101014724956129,0.7644769970244907
1658789431622376,0.48444342717631805,-0.40277714198519865,0.7489738307774472
1658789431638368,0.4745555809872588,-0.4008239871824215,0.7656977187762264
1658789431654360,0.4614938582436867,-0.41913481345845716,0.798535133897917
1658789431670353,0.46259250782024885,-0.4202334630350193,0.8313725490196076
1658789431686345,0.4564888990615703,-0.42084382391088715,0.7844968337529563
1658789431702337,0.44330510414282465,-0.4293888761730371,0.8134279392690926
1658789431718329,0.43244068055237683,-0.42743572137026,0.8395513847562368
1658789431734321,0.42853437094682256,-0.42755779354543355,0.8410162508583197
1658789431750313,0.4216983291371026,-0.43646906233310423,0.8219729915312426
1658789431766306,0.4158388647287712,-0.44367132066834536,0.816723887998779
1658789431782298,0.39252307927061914,-0.42926680399786354,0.8347905699244675
1658789431798290,0.3830014496070806,-0.42841229877164855,0.8789806973373011
1658789431814282,0.3884946974898913,-0.41193255512321647,0.8651865415426867
1658789431830274,0.394842450598917,-0.40363164721141365,0.8277103837644004
1658789431846266,0.38190280003051846,-0.4319523918516821,0.8521248187991146
1658789431862259,0.3574883649958034,-0.42926680399786354,0.8777599755855654
1658789431878251,0.33990997177080917,-0.42914473182269,0.9035172045471889
1658789431894243,0.3284351873044935,-0.4472114137483789,0.8853284504463268
1658789431910235,0.3392996108949413,-0.4434271763179982,0.8892347600518811
1658789431926239,0.33490501258869276,-0.4286564431219957,0.8944838635843446
1658789431942231,0.31134508278019357,-0.4425726710917832,0.9286640726329445
1658789431958223,0.30853742275120144,-0.4431830319676511,0.9247577630273902
1658789431974215,0.3134203097581443,-0.43598077363240995,0.9125505455100331
1658789431990207,0.3157396810864421,-0.43170824750133496,0.931349660486763
1658789432006199,0.3014572365911343,-0.428290226596475,0.9329365987640195
1658789432022192,0.2886396581979094,-0.42462806134126785,0.9167009994659345
1658789432038184,0.2876630807965208,-0.41998931868467215,0.8998550392919817
1658789432054176,0.2888838025482565,-0.423163195239185,0.9005874723430232
1658789432070168,0.27411306935225443,-0.4295109483482107,0.9068131532768753
1658789432086160,0.25506981002517737,-0.4393987945372704,0.9427023727779051
1658789432102152,0.2506752117189288,-0.44122987716487394,0.9500267032883194
1658789432118145,0.25592431525139236,-0.41876859693293644,0.8981460288395517
1658789432134137,0.2650797283894102,-0.43671320668345137,0.9237811856260016
1658789432150129,0.2525062943465324,-0.4502632181277182,0.9436789501792937
1658789432166121,0.24164187075608456,-0.4446478980697339,0.955275806820783
1658789432182113,0.2318760967421989,-0.4456244754711225,0.9481956206607158
1658789432198105,0.22906843671320676,-0.44965285725185034,0.942458228427558
1658789432214098,0.22784771496147105,-0.4547798886091403,0.947585259784848
1658789432230090,0.21649500267032895,-0.4387884336614025,0.9442893110551616
1658789432246063,0.202822919050889,-0.42291905088883786,0.9303730830853745
1658789432262055,0.1969634546425576,-0.4252384222171357,0.9297627222095066
1658789432278047,0.20184634164950044,-0.44757763027389963,0.9210955977721831
1658789432294039,0.21515220874341967,-0.44074158846417966,0.9147478446631574
1658789432310032,0.20502021820401328,-0.45038529030289176,0.9400167849240866
1658789432326024,0.19562066071564832,-0.47101548790722525,0.9711451895933472
1658789432342016,0.1990386816205083,-0.45539024948500817,0.9566186007476922
1658789432358008,0.20648508430609613,-0.46344701304646385,0.980300602731365
1658789432374000,0.21783779659723823,-0.4733348592355231,1.0114290074006256
1658789432389992,0.19269092851148262,-0.455146105134661,0.9813992523079271
1658789432405985,0.17206073090714913,-0.47260242618448167,1.0082551308461127
1658789432421977,0.1625391012436106,-0.5008010986495766,1.0439002059967954
1658789432437969,0.1596093690394449,-0.5065384908827344,1.0434119172961012
1658789432453961,0.1768215457389184,-0.49994659342336156,1.063065537499046
1658789432469953,0.19159227893492048,-0.5285114824139772,1.0871137560082396
1658789432485945,0.20184634164950044,-0.5200885023270008,1.063065537499046
1658789432501937,0.20648508430609613,-0.5286335545891507,1.0565957122148468
1658789432517930,0.20929274433508827,-0.5379110399023421,1.0834515907530324
1658789432533922,0.20721751735713756,-0.5365682459754328,1.0825970855268174
1658789432549914,0.20721751735713756,-0.5541466392004271,1.0828412298771646
1658789432565887,0.20294499122606258,-0.5619592584115356,1.072220950637064
1658789432581879,0.19964904249637616,-0.5525597009231706,1.0633096818493932
1658789432597871,0.20502021820401328,-0.5103227283131151,1.0370641641870755
1658789432613864,0.20416571297779829,-0.5059281300068665,1.036942092011902
1658789432629856,0.20392156862745114,-0.5202105745021743,1.0261997405966277
1658789432645848,0.2124666208896011,-0.5319295033188371,1.004470893415732
1658789432661840,0.22357518883039607,-0.5269245441367207,1.0071564812695506
1658789432677832,0.22662699320973534,-0.5228961623559929,0.9893339436942092
1658789432693824,0.23822384985122458,-0.53339436942092,0.9859159227893493
1658789432709817,0.24798962386511025,-0.5337605859464407,0.9773708705271993
1658789432725809,0.2592202639810788,-0.5103227283131151,0.9595483329518579
1658789432741801,0.26935225452048517,-0.48908216983291375,0.9411154345006487
1658789432757793,0.28119325551232155,-0.464545662623026,0.9154802777141988
1658789432773785,0.28668650339513224,-0.46173800259403386,0.8917982757305261
1658789432789777,0.28790722514686795,-0.467109178301671,0.882154573891814
1658789432805770,0.2981612878614479,-0.47016098268101025,0.8833752956435497
1658789432821762,0.30267795834287003,-0.4821240558480202,0.8916762035553525
1658789432837754,0.3229419394216828,-0.46845197222858026,0.8916762035553525
1658789432853746,0.32953383688105564,-0.4874952315556573,0.879591058213169
1658789432869738,0.3494316014343477,-0.4826123445487145,0.8606698710612646
1658789432885711,0.35809872587167124,-0.4829785610742352,0.8498054474708168
1658789432901703,0.37482261387045046,-0.4783398184176395,0.8623788815136946
1658789432917696,0.3938658731975284,-0.46686503395132384,0.8485847257190811
1658789432933688,0.3964293888761734,-0.49457541771572444,0.8249027237354083
1658789432949680,0.40473029678797623,-0.5217975127794308,0.8307621881437397
1658789432965672,0.4208438239108876,-0.5059281300068665,0.8272220950637061
1658789432981664,0.4408636606393532,-0.4721141374837874,0.8200198367284655
1658789432997656,0.4452582589456018,-0.48358892195010306,0.8169680323491262
1658789433013649,0.4561226825360496,-0.46930647745479526,0.782299534599832
1658789433029641,0.4498970016021975,-0.467109178301671,0.7698481727321278
1658789433045633,0.4569771877622646,-0.4497749294270239,0.7815671015487906
1658789433061625,0.4666208896009767,-0.44574654764629607,0.7804684519722285
1658789433077617,0.4841992828259709,-0.44037537193865894,0.7342030975814451
1658789433093609,0.500679026474403,-0.4690623331044481,0.7448233768215458
1658789433109602,0.5226520180056458,-0.46894026092927454,0.75556572823682
1658789433125594,0.5396200503547721,-0.4506294346532389,0.7445792324711986
1658789433141586,0.5454795147631035,-0.44660105287251106,0.7301747158007172
1658789433157578,0.5548790722514685,-0.4442816815442132,0.7016098268101016
1658789433173570,0.5604943923094527,-0.43634699015793066,0.6913557640955217
1658789433189562,0.5769741359578848,-0.4201113908598457,0.7006332494087131
1658789433205566,0.5864957656214234,-0.40692759594110006,0.681589990081636
1658789433221558,0.599679560540169,-0.3997253376058594,0.6305638208590834
1658789433237550,0.5960173952849619,-0.41913481345845716,0.6450904097047383
1658789433253543,0.596261539635309,-0.4155947203784236,0.6702372777904939
1658789433269535,0.5967498283360033,-0.4114442664225222,0.653147173266194
1658789433285527,0.6092011902037076,-0.42584878309300356,0.6275120164797441
1658789433301519,0.6117647058823525,-0.44037537193865894,0.5934538796063169
1658789433317511,0.6343480582894641,-0.4046082246128022,0.6160372320134275
1658789433333503,0.6590066376745254,-0.3845883878843366,0.6139620050354768
1658789433349496,0.6795147631036853,-0.3882505531395437,0.6035858701457233
1658789433365488,0.7017318989852752,-0.3891050583657587,0.562691691462577
1658789433381480,0.7133287556267645,-0.3806820782787823,0.5467002365148392
1658789433397472,0.7154039826047152,-0.36908522163729307,0.5547570000762949
1658789433413464,0.7188220035095751,-0.36420233463035023,0.5485313191424428
1658789433429456,0.7327382314793622,-0.3643244068055238,0.5206988632028686
1658789433445449,0.7374990463111315,-0.3906919966430151,0.5217975127794308
1658789433461441,0.7442130159456779,-0.36127260242618453,0.5056839856565194
1658789433477433,0.7423819333180743,-0.3579766536964981,0.5001907377737087
1658789433493425,0.7437247272449836,-0.3646906233310445,0.49030289158464946
1658789433509417,0.75385671778439,-0.3811703669794766,0.4778515297169452
1658789433525390,0.7638666361486228,-0.3765316243228809,0.48688487067978947
1658789433541382,0.7792477302204928,-0.33978789959563604,0.4507515068284125
1658789433557375,0.788281071183337,-0.3340505073624782,0.428412298771649
1658789433573367,0.795971618219272,-0.33307392996108964,0.4165712977798126
1658789433589359,0.8031738765545127,-0.3340505073624782,0.4597848477912567
1658789433605351,0.8229495689326312,-0.3235523002975511,0.4678416113527124
1658789433621343,0.8367437247272447,-0.3172045471885254,0.3883726253147177
1658789433637335,0.8419928282597082,-0.32379644464789825,0.3372243839169906
1658789433653328,0.8273441672388797,-0.3306324864576182,0.3725032425421526
1658789433669320,0.815869382772564,-0.313908598458839,0.43158617532616184
1658789433685312,0.837232013427939,-0.2830243381399251,0.4090028229190512
1658789433701304,0.8546883344777596,-0.2678873884184023,0.3104905775539786
1658789433717296,0.8491950865949489,-0.28912794689860366,0.2663004501411459
1658789433733288,0.8323491264209961,-0.3248950942244604,0.3305104142824442
1658789433749281,0.8294193942168304,-0.3058518348973829,0.36139467460135766
1658789433765273,0.8576180666819253,-0.281071183337148,0.3402761882963299
1658789433781265,0.8689707789730674,-0.2880292973220415,0.26398107881284805
1658789433797257,0.8924086366063939,-0.2990157930876629,0.24725719081406883
1658789433813249,0.894361791409171,-0.3202563515678647,0.3079270618753336
1658789433829241,0.9033951323720153,-0.2948653391317615,0.3258716716258485
1658789433845214,0.909742885481041,-0.2692301823453116,0.2621499961852445
1658789433861207,0.9079118028534374,-0.27997253376058584,0.21051346608682397
1658789433877199,0.9082780193789581,-0.2860761425192644,0.21771572442206466
1658789433893191,0.9103532463569088,-0.3014572365911343,0.2822919050888837
1658789433909183,0.9094987411306938,-0.3065842679484243,0.2886396581979094
1658789433925175,0.8993667505912875,-0.31024643320363143,0.23907835507743957
1658789433941167,0.8815442130159461,-0.30975814450293715,0.2033112077515833
1658789433957160,0.8704356450751503,-0.32050049591821184,0.23370717936980245
1658789433973152,0.8987563897154196,-0.29425497825589364,0.2632486457618066
1658789433989144,0.9176775768673231,-0.2986495765621422,0.2570229648279545
1658789434005136,0.9289082169832916,-0.3012130922407872,0.23260852979324032
1658789434021128,0.9251239795529109,-0.2638590066376745,0.17242694743266984
1658789434037120,0.9120622568093388,-0.2570229648279545,0.1814602883955141
1658789434053113,0.9086442359044788,-0.2960860608834972,0.24469367513542384
1658789434069105,0.9264667734798202,-0.316472114137484,0.2435950255588617
1658789434085097,0.9499046311131458,-0.30060273136491933,0.22064545662623036
1658789434101089,0.9439230945296408,-0.27655451285572585,0.1582665751125356
1658789434117081,0.9247577630273902,-0.26727702754253446,0.12799267566949002
1658789434133073,0.9263447013046466,-0.25555809872587165,0.13116655222400286
1658789434149066,0.9357442587930116,-0.24811169604028382,0.1646143282215613
1658789434165069,0.9448996719310294,-0.22125581750209822,0.1524071107042042
1658789434181061,0.9434348058289466,-0.20929274433508827,0.11285572594796633
1658789434197054,0.9274433508812088,-0.24676890211337454,0.10064850843060924
1658789434213046,0.9212176699473567,-0.25775539787899593,0.07953002212558147
1658789434229038,0.9315938048371102,-0.2553139543755245,0.08978408484016143
1658789434245030,0.9500267032883194,-0.23150988021667818,0.09295796139467427
1658789434261022,0.9584496833752958,-0.1990386816205083,0.0663462272068358
1658789434277014,0.9541771572442208,-0.1906157015335319,0.02777141985198739
1658789434293007,0.954421301594568,-0.1981841763942933,0.007751583123521755
1658789434308999,0.9427023727779051,-0.21063553826199755,0.021789883268482413
1658789434324991,0.946730754558633,-0.1850003814755472,0.021667811093308842
1658789434340983,0.9572289616235601,-0.17438010223544653,0.007385366598001042
1658789434356975,0.9626001373311972,-0.19220263981078833,0.006286717021438903
1658789434372967,0.9615014877546351,-0.1829251544975965,-0.010559243152513886
1658789434388960,0.9560082398718244,-0.18829633020523406,0.0021362630655374915
1658789434404952,0.9579613946746015,-0.17987335011825722,0.015075913633936011
1658789434420944,0.9591821164263372,-0.16412603952086657,-0.019714656290531707
1658789434436936,0.9584496833752958,-0.1552147707331959,-0.053040360112916574
1658789434452928,0.9456321049820708,-0.15155260547798877,-0.06390478370336483
1658789434468920,0.9406271457999544,-0.1464255741206988,-0.06817730983443981
1658789434484893,0.9573510337987337,-0.1438620584420538,-0.050476844434271584
1658789434500886,0.9792019531548029,-0.17084000915541298,-0.021057450217440987
1658789434516878,0.9840848401617457,-0.19085984588387905,-0.04486152437628732
1658789434532870,0.9755397878995957,-0.20819409475852613,-0.04364080262455161
1658789434548862,0.9507591363393608,-0.19794003204394617,-0.06829938200961339
1658789434564854,0.9494163424124515,-0.17132829785610726,-0.07891966124971406
1658789434580846,0.9556420233463037,-0.1753566796368351,-0.04876783398184159
1658789434596839,0.9719996948195622,-0.17694361791409152,-0.04510566872663446
1658789434612831,0.9817654688334478,-0.16559090562294942,-0.054627298390172996
1658789434628823,0.9784695201037614,-0.17230487525749583,-0.06768902113374553
1658789434644815,0.9572289616235601,-0.16498054474708157,-0.10357824063477539
1658789434660807,0.937331197070268,-0.17608911268787653,-0.10467689021133753
1658789434676799,0.9311055161364159,-0.18182650492103436,-0.07257190814068837
1658789434692792,0.9463645380331123,-0.1928130006866562,-0.04388494697489875
1658789434708784,0.9667505912870986,-0.17926298924238937,-0.06634622720683625
1658789434724776,0.9621118486305029,-0.18927290760662263,-0.128725108720531
1658789434740768,0.9517357137407494,-0.20550850690470757,-0.12469672693980316
1658789434756760,0.9384298466468302,-0.20001525902189687,-0.13202105745021742
1658789434772752,0.9486839093614101,-0.1870756084534979,-0.11297779812314035
1658789434788745,0.9721217669947357,-0.15667963683527875,-0.12262149996185245
1658789434804718,0.973464560921645,-0.1736476691844051,-0.15240711070420376
1658789434820710,0.9573510337987337,-0.17889677271686866,-0.21100175478751826
1658789434836702,0.942458228427558,-0.19159227893492048,-0.20697337300679042
1658789434852694,0.936476691844053,-0.18487830930037363,-0.17853055619134794
1658789434868686,0.9447775997558558,-0.1829251544975965,-0.1589990081635766
1658789434884678,0.951857785915923,-0.18731975280384505,-0.16839856565194156
1658789434900671,0.9507591363393608,-0.1858548867017622,-0.21051346608682397
1658789434916663,0.9453879606317237,-0.17779812314030652,-0.24408331425955598
1658789434932655,0.951857785915923,-0.17523460746166153,-0.21063553826199755
1658789434948647,0.9580834668497751,-0.18744182497901862,-0.17218280308232226
1658789434964639,0.9596704051270315,-0.19562066071564832,-0.17718776226443866
1658789434980631,0.9530785076676587,-0.19586480506599546,-0.20636301213092256
1658789434996624,0.9361104753185323,-0.18426794842450578,-0.2305333028152896
1658789435012616,0.9237811856260016,-0.17389181353475225,-0.2196688792248418
1658789435028608,0.9295185778591595,-0.1585107194628823,-0.23114366369115746
1658789435044600,0.9298847943846802,-0.14496070801861594,-0.23370717936980245
1658789435060592,0.9391622796978716,-0.1636377508201723,-0.21661707484550252
1658789435076584,0.9350118257419702,-0.18023956664377794,-0.2175936522468911
1658789435092577,0.941603723201343,-0.1782864118410008,-0.23834592202639815
1658789435108569,0.9445334554055087,-0.18341344319829078,-0.2611734187838559
1658789435124542,0.951857785915923,-0.18915083543144906,-0.24640268558785383
1658789435140534,0.9573510337987337,-0.1745021744106201,-0.2318760967421989
1658789435156526,0.9534447241931794,-0.1610742351415273,-0.21832608529793252
1658789435172518,0.9455100328068973,-0.16412603952086657,-0.23504997329671173
1658789435188511,0.9438010223544673,-0.16803234912642084,-0.24493781948577098
1658789435204503,0.9367208361944002,-0.16766613260090013,-0.2377355611505303
1658789435220495,0.9325703822384988,-0.16083009079118016,-0.2112458991378654
1658789435236487,0.9324483100633252,-0.1543602655069809,-0.21283283741512182
1658789435252479,0.9367208361944002,-0.14056610971236738,-0.2453040360112917
1658789435268471,0.9365987640192266,-0.16119630731670087,-0.2511635004196231
1658789435284464,0.9355001144426645,-0.16510261692225514,-0.26105134660868234
1658789435300456,0.9384298466468302,-0.15289539940489805,-0.2683756771190966
1658789435316448,0.9302510109102009,-0.14996566720073234,-0.2704509040970473
1658789435332440,0.9300068665598538,-0.1576562142366673,-0.2805828946364537
1658789435348432,0.9359884031433587,-0.18451209277485292,-0.30719462882429216
1658789435364424,0.9425803006027316,-0.19476615548943332,-0.3495536736095217
1658789435380416,0.9516136415655758,-0.18646524757763006,-0.3646906233310445
1658789435396409,0.9530785076676587,-0.16827649347676799,-0.3533379110399024
1658789435412401,0.9525902189669644,-0.13775844968337525,-0.36957351033798735
1658789435428393,0.9453879606317237,-0.1404440375371938,-0.3722590981918059
1658789435444366,0.9267109178301673,-0.1610742351415273,-0.37665369649805447
1658789435460358,0.9217059586480509,-0.15155260547798877,-0.3839780270084687
1658789435476350,0.9124284733348595,-0.1644922560463873,-0.37006179903868164
1658789435492343,0.9074235141527431,-0.1724269474326694,-0.357732509346151
1658789435508335,0.9113298237582974,-0.17206073090714868,-0.34393835355153746
1658789435524327,0.9256122682536052,-0.16839856565194156,-0.34222934309910746
1658789435540319,0.9395284962233923,-0.1560692759594109,-0.3484550240329596
1658789435556311,0.9378194857709623,-0.16119630731670087,-0.33807888914320605
1658789435572303,0.933058670939193,-0.17340352483405796,-0.3320973525597011
1658789435588296,0.9314717326619366,-0.18744182497901862,-0.32330815594720397
1658789435604288,0.9337911039902345,-0.1757228961623558,-0.31122301060502
1658789435620280,0.932204165712978,-0.15887693598840302,-0.3140306706340126
1658789435636272,0.9262226291294731,-0.16534676127260228,-0.2964522774090179
1658789435652264,0.9245136186770431,-0.17779812314030652,-0.28827344167238866
1658789435668256,0.9329365987640195,-0.17682154573891795,-0.29669642175936506
1658789435684249,0.9291523613336388,-0.1862211032272829,-0.280216678110933
1658789435700241,0.9257343404287788,-0.18011749446860437,-0.2661783779659723
1658789435716233,0.9252460517280845,-0.17560082398718224,-0.2554360265506981
1658789435732225,0.9259784847791259,-0.17401388570992582,-0.2537270160982681
1658789435748217,0.929640650034333,-0.17145037003128083,-0.2678873884184023
1658789435764221,0.9303730830853745,-0.17169451438162797,-0.2600747692072938
1658789435780213,0.9250019073777374,-0.17889677271686866,-0.23199816891737246
1658789435796205,0.9169451438162817,-0.17438010223544653,-0.2024567025253683
1658789435812197,0.9190203707942324,-0.17376974135957868,-0.18866254673075478
1658789435828189,0.9275654230563823,-0.18915083543144906,-0.17218280308232226
1658789435844182,0.9302510109102009,-0.19427786678873904,-0.1753566796368351
1658789435860174,0.9230487525749602,-0.19598687724116903,-0.161440451667048
1658789435876166,0.9121843289845124,-0.18280308232242293,-0.161440451667048
1658789435892158,0.9064469367513546,-0.19256885633630905,-0.11224536507209892
1658789435908150,0.8999771114671553,-0.20941481651026184,-0.09283588921950114
1658789435924142,0.9102311741817353,-0.21832608529793252,-0.07110704203860552
1658789435940135,0.9181658655680174,-0.22284275577935464,-0.041443503471427334
1658789435956127,0.9033951323720153,-0.22858014801251247,-0.05780117494468584
1658789435972119,0.8866712443732361,-0.23578240634775316,-0.03204394598306237
1658789435988111,0.8810559243152518,-0.2343175402456703,0.002746623941405346
1658789436004103,0.8841077286945911,-0.24261844815747313,0.05474937056534657
1658789436020095,0.9040054932478832,-0.21844815747310609,0.05804531929503298
1658789436036088,0.9143816281376367,-0.22735942626077676,0.08770885786221072
1658789436052080,0.9118181124589917,-0.2728923476005187,0.13714808880750784
1658789436068072,0.9035172045471889,-0.30951400015259,0.1788967727168691
1658789436084045,0.908033875028611,-0.31744869153887256,0.21527428091859324
1658789436100037,0.9175555046921495,-0.2771648737315937,0.22113374532692465
1658789436116028,0.9137712672617688,-0.2893720912489508,0.26569008926527804
1658789436132020,0.919996948195621,-0.2915693904020751,0.2625162127107652
1658789436148012,0.908888380254826,-0.2907148851758601,0.31805905241474
1658789436164003,0.9024185549706267,-0.275944151979858,0.32367437247272424
1658789436179995,0.8985122453650725,-0.2877851529716944,0.3162279697871364
1658789436195987,0.9090104524299996,-0.3014572365911343,0.30646219577325073
1658789436211979,0.8911879148546582,-0.30939192797741644,0.3229419394216828
1658789436227970,0.8825207904173347,-0.2965743495841915,0.36847486076142477
1658789436243962,0.877027542534524,-0.32135500114442683,0.3893492027161063
1658789436259954,0.8850843060959797,-0.3478446631570917,0.3594415197985805
1658789436275945,0.8938735027084768,-0.33185320820935393,0.3134203097581443
1658789436291937,0.8996108949416346,-0.2855878538185701,0.34088654917219774
1658789436307929,0.8898451209277489,-0.31061264972915215,0.391424429694057
1658789436323920,0.8898451209277489,-0.317326619363699,0.3737239642938883
1658789436339912,0.882154573891814,-0.3228198672465097,0.35638971541924125
1658789436355904,0.8706797894254974,-0.2947432669565879,0.30341039139391146
1658789436371895,0.8565194171053632,-0.2840009155413137,0.30731670099946573
1658789436387887,0.8496833752956432,-0.30463111314564717,0.37152666514076405
1658789436403869,0.8483405813687339,-0.35529106584267955,0.38995956359197415
1658789436419861,0.8659189745937281,-0.3635919737544824,0.4014343480582898
1658789436435854,0.8760509651331354,-0.3311207751583125,0.37274738689249975
1658789436451846,0.8670176241702903,-0.30939192797741644,0.3566338597695884
1658789436467838,0.8524910353246353,-0.2935225452048522,0.35638971541924125
1658789436483830,0.851148241397726,-0.276798657206073,0.3590753032730598
1658789436499822,0.8318608377203018,-0.2877851529716944,0.3574883649958034
1658789436515814,0.8242923628595404,-0.28082703898680084,0.36554512855725907
1658789436531807,0.8125734340428776,-0.319035629816129,0.41510643167772976
1658789436547799,0.8100099183642326,-0.38934920271610585,0.44965285725185034
1658789436563791,0.828686961165789,-0.38898298619058513,0.4492866407263296
1658789436579783,0.8386968795300218,-0.3659113450827802,0.4271915770199133
1658789436595775,0.8319829098954754,-0.315617608911269,0.423285267414359
1658789436611767,0.8178225375753412,-0.3257495994506754,0.46686503395132384
1658789436627760,0.814160372320134,-0.3248950942244604,0.4738231479362174
1658789436643752,0.8065918974593727,-0.31537346456092186,0.4641794460975053
1658789436659744,0.8008545052262148,-0.31061264972915215,0.43695735103379896
1658789436675736,0.7810788128480963,-0.3261158159761961,0.4430609597924775
1658789436691728,0.7622796978713664,-0.3486991683833067,0.49579613946746015
1658789436707720,0.7602044708934157,-0.3849546044098573,0.544502937361715
1658789436723724,0.7713130388342107,-0.4042420080872815,0.555855649652857
1658789436739716,0.7716792553597314,-0.3845883878843366,0.5226520180056458
1658789436755708,0.7543450064850843,-0.36578927290760666,0.4867627985046159
1658789436771700,0.7327382314793622,-0.35858701457236597,0.5156939040207522
1658789436787693,0.7344472419317922,-0.3559014267185474,0.5381551842526893
1658789436803685,0.7403067063401236,-0.35870908674753954,0.5457236591134507
1658789436819677,0.7464103150988022,-0.35150682841229886,0.5061722743572137
1658789436835669,0.7212634470130466,-0.3438162813763639,0.4851758602273595
1658789436851661,0.685862516212711,-0.3522392614633403,0.5542687113756006
1658789436867653,0.6674296177615018,-0.3911802853437094,0.5691615167467763
1658789436883646,0.6675516899366754,-0.4227969787136643,0.6046845197222854
1658789436899638,0.6851300831616696,-0.4110780498970015,0.6018768596932933
1658789436915630,0.6894026092927446,-0.3711604486152438,0.5773403524834055
1658789436931622,0.6698710612649732,-0.3825131609063859,0.6195773250934611
1658789436947614,0.6555886167696654,-0.380193789578088,0.6173800259403368
1658789436963606,0.6520485236896318,-0.36749828336003665,0.6033417257953761
1658789436979599,0.6414282444495312,-0.3533379110399024,0.611642633707179
1658789436995591,0.6181124589913782,-0.38727397573815514,0.678171969176776
1658789437011583,0.6017547875181197,-0.40863660639353006,0.6897688258182653
1658789437027575,0.599679560540169,-0.4110780498970015,0.6829327840085453
1658789437043548,0.5896696421759362,-0.424872205691615,0.7395742732890822
1658789437059540,0.5851529716945141,-0.4393987945372704,0.7659418631265735
1658789437075533,0.5828336003662162,-0.43183031967650853,0.7659418631265735
1658789437091525,0.5791714351110091,-0.41071183337148076,0.7278553444724194
1658789437107517,0.5692835889219499,-0.43134203097581425,0.7921873807888913
1658789437123509,0.5642786297398334,-0.4151064316777293,0.8253910124361026
1658789437139501,0.5573205157549399,-0.4152285038529029,0.8291752498664833
1658789437155493,0.5479209582665749,-0.41120012207217504,0.8054932478828105
1658789437171486,0.5309529259174486,-0.4025329976348515,0.7562981612878614
1658789437187478,0.5020218204013123,-0.43390554665445924,0.8186770428015562
1658789437203470,0.5026321812771801,-0.4392767223620968,0.8817883573662932
1658789437219462,0.5045853360799573,-0.4185244525825893,0.8584725719081403
1658789437235454,0.5065384908827344,-0.44122987716487394,0.8093995574883648
1658789437251446,0.48065918974593735,-0.499824521248188,0.838086518654154
1658789437267439,0.46552224002441456,-0.5142290379186694,0.8751964599069204
1658789437283431,0.4557564660105289,-0.4787060349431602,0.8925307087815675
1658789437299423,0.45209430075532175,-0.44660105287251106,0.8415045395590139
1658789437315415,0.4341496910048068,-0.42926680399786354,0.8255130846112761
1658789437331407,0.42951094834821113,-0.4435492484931718,0.830395971618219
1658789437347399,0.42816815442130185,-0.4335393301289385,0.8327153429465168
1658789437363372,0.4270695048447397,-0.42706950484473927,0.8666514076447696
1658789437379365,0.41522850385290333,-0.4561226825360496,0.859693293659876
1658789437395357,0.40973525597009264,-0.45209430075532175,0.8627450980392153
1658789437411349,0.4093690394445719,-0.45807583733882673,0.8570077058060575
1658789437427341,0.3976501106279091,-0.4872510872053102,0.8809338521400782
1658789437443333,0.4061951628900591,-0.4552681773098346,0.8623788815136946
1658789437459325,0.3851987487602049,-0.44586861982146964,0.8452887769893946
1658789437475318,0.3709163042648962,-0.4574654764629589,0.8517586022735939
1658789437491310,0.3733577477683676,-0.4276798657206071,0.8402838178072782
1658789437507302,0.3826352330815599,-0.41754787518120073,0.8285648889906154
1658789437523294,0.39118028534370985,-0.42340733958953214,0.8247806515602347
1658789437539286,0.3743343251697562,-0.4227969787136643,0.838086518654154
1658789437555278,0.35297169451438126,-0.4293888761730371,0.852002746623941
1658789437571271,0.33624780651560204,-0.4573434042877853,0.8445563439383532
1658789437587263,0.3394216830701149,-0.4851758602273595,0.8581063553826196
1658789437603255,0.3620050354772255,-0.4552681773098346,0.8635996032654303
1658789437619247,0.34296177615014845,-0.46381322957198456,0.8772716868848711
1658789437635239,0.32916762035553493,-0.44623483634699035,0.8756847486076147
1658789437651231,0.3167162584878307,-0.4426947432669568,0.8764171816586561
1658789437667224,0.308659494926375,-0.4413519493400475,0.8885023270008396
1658789437683227,0.30511940184634145,-0.43634699015793066,0.8992446784161139
1658789437699219,0.28168154421301583,-0.4323186083772028,0.9176775768673231
1658789437715211,0.26849774929427017,-0.4392767223620968,0.9240253299763488
1658789437731204,0.270817120622568,-0.463691157396811,0.9420920119020373
1658789437747196,0.28448920424200796,-0.45294880598153675,0.943312733653773
1658789437763188,0.29803921568627434,-0.4413519493400475,0.9337911039902345
1658789437779180,0.2877851529716944,-0.4497749294270239,0.9214618142977038
1658789437795172,0.26947432669565874,-0.4561226825360496,0.9292744335088123
1658789437811164,0.25506981002517737,-0.4674753948271917,0.930495155260548
1658789437827157,0.25384908827344166,-0.46015106431677744,0.9235370412756545
1658789437843149,0.25055313954375524,-0.44330510414282465,0.904615854123751
1658789437859141,0.2439612420843824,-0.4452582589456018,0.9084000915541317
1658789437875133,0.2368810559243153,-0.421454184786755,0.8839856565194175
1658789437891125,0.23700312809948887,-0.4439154650186925,0.8970473792629896
1658789437907117,0.22955672541390104,-0.4447699702449075,0.9119401846341653
1658789437923110,0.21405355916685753,-0.4314641031509878,0.9160906385900667
1658789437939102,0.20465400167849257,-0.4451361867704282,0.9250019073777374
1658789437955094,0.20672922865644328,-0.4362249179827571,0.9018081940947589
1658789437971086,0.21490806439307253,-0.4352483405813685,0.894361791409171
1658789437987078,0.21979095140001537,-0.44281681544213036,0.9159685664148931
1658789438003021,0.204531929503319,-0.43671320668345137,0.9385519188220037
1658789438019013,0.1923247119859619,-0.4418402380407418,0.9247577630273902
1658789438035004,0.18878461890592835,-0.4511177233539332,0.9168230716411081
1658789438050996,0.19134813458457334,-0.4531929503318839,0.8998550392919817
1658789438066988,0.19623102159151617,-0.4494087129015032,0.9151140611886781
1658789438082979,0.1788967727168691,-0.44672312504768463,0.9204852368963152
1658789438098971,0.1768215457389184,-0.44660105287251106,0.9261005569542995
1658789438114963,0.16766613260090057,-0.4507515068284125,0.8921644922560468
1658789438130954,0.16900892652780986,-0.44965285725185034,0.8803234912642104
1658789438146946,0.1494773785000385,-0.4509956511787596,0.8903334096284432
1658789438162938,0.14081025406271497,-0.4406195162890061,0.9103532463569088
1658789438178929,0.13958953231097926,-0.4281681544213014,0.8927748531319146
1658789438194921,0.15130846112764207,-0.4298771648737314,0.8709239337758445
1658789438210913,0.16314946211947845,-0.4319523918516821,0.8909437705043111
1658789438226904,0.16217288471808988,-0.4451361867704282,0.9022964827954532
1658789438242896,0.15301747158007206,-0.4340276188296328,0.9180437933928438
1658789438258888,0.12982375829709358,-0.42670328831921855,0.9220721751735717
1658789438274880,0.11041428244449492,-0.4276798657206071,0.9076676585030903
1658789438290871,0.10431067368581637,-0.43463797970550067,0.9169451438162817
1658789438306863,0.1004043640802621,-0.42499427786678856,0.9261005569542995
1658789438322845,0.09588769359883997,-0.42975509269855783,0.9594262607766844
1658789438338837,0.0844129091325243,-0.45172808422980104,0.9677271686884872
1658789438354828,0.08282597085526788,-0.45001907377737105,0.9461203936827651
1658789438370820,0.08868543526359929,-0.456000610360876,0.9787136644541086
1658789438386812,0.09686427100022854,-0.4404974441138325,0.9877470054169528
1658789438402804,0.08490119783321859,-0.45539024948500817,1.0097199969481956
1658789438418795,0.07440299076829149,-0.4712596322575724,1.0023956664377813
1658789438434787,0.0764782177462422,-0.4527046616311896,1.0020294499122606
1658789438450779,0.07733272297245719,-0.45001907377737105,1.0196078431372548
1658789438466770,0.07220569161516721,-0.47724116884107737,1.0492713817044326
1658789438482762,0.055970092317082276,-0.5117875944151979,1.0519569695582511
1658789438498754,0.05035477225909801,-0.5369344625009536,1.0689250019073775
1658789438514745,0.05535973144121442,-0.5537804226749063,1.1065232318608373
1658789438530737,0.06036469062333083,-0.557564660105287,1.1018844892042416
1658789438546729,0.06915388723582794,-0.5441367208361942,1.100907911802853
1658789438562720,0.06500343327992653,-0.5293659876401922,1.1010299839780266
1658789438578712,0.059754329747462975,-0.5236285954070343,1.0773479819943539
1658789438594704,0.06012054627298369,-0.5244831006332493,1.0985885404745552
1658789438610695,0.05792324711985941,-0.5034866865033951,1.094071869993133
1658789438626687,0.057312886243991557,-0.5012893873502708,1.0813763637750817
1658789438642700,0.059632257572289404,-0.5353475242236971,1.0749065384908825
1658789438658692,0.05157549401083372,-0.5498741130693521,1.0828412298771646
1658789438674683,0.05535973144121442,-0.5230182345311665,1.057938506141756
1658789438690675,0.0672007324330508,-0.5220416571297779,1.0659952697032118
1658789438706667,0.08538948653391287,-0.5321736476691843,1.0359655146105133
1658789438722658,0.11187914854657777,-0.54023041123064,1.0141145952544441
1658789438738650,0.13202105745021786,-0.5255817502098115,1.018142977035172
1658789438754642,0.13739223315785498,-0.5022659647516594,1.0059357595178149
1658789438770633,0.1381246662088964,-0.47809567406729236,0.9838406958113985
1658789438786625,0.13641565575646641,-0.49030289158464946,0.9788357366292821
1658789438802617,0.13800259403372284,-0.47858396276798665,0.9590600442511636
1658789438818608,0.13543907835507785,-0.47443350881208524,0.9566186007476922
1658789438834600,0.1406881818875414,-0.47235828183413453,0.9635767147325858
1658789438850592,0.1482566567483028,-0.4862745098039216,0.9627222095063708
1658789438866583,0.1629053177691313,-0.4905470359349966,0.950148775463493
1658789438882575,0.17694361791409197,-0.49665064469367515,0.9500267032883194
1658789438898567,0.18695353627832478,-0.504097047379263,0.9610131990539408
1658789438914559,0.20782787823300541,-0.48017090104524307,0.930495155260548
1658789438930550,0.22650492103456177,-0.4892042420080873,0.9145037003128103
1658789438946542,0.23370717936980245,-0.4910353246356909,0.9070572976272224
1658789438962524,0.24554818036163883,-0.48017090104524307,0.9190203707942324
1658789438978516,0.25470359349965666,-0.4612497138933396,0.8992446784161139
1658789438994507,0.273380636301213,-0.46478980697337313,0.8878919661249718
1658789439010499,0.28278019378957797,-0.4809033340962845,0.8784924086366068
1658789439026491,0.2938887617303729,-0.48029297322041664,0.8654306858930338
1658789439042482,0.3049973296711679,-0.4767528801403831,0.8635996032654303
1658789439058474,0.31732661936369855,-0.4733348592355231,0.8452887769893946
1658789439074466,0.3267261768520635,-0.47394522011139095,0.8407721065079725
1658789439090458,0.33368429083695705,-0.492988479438468,0.837232013427939
1658789439106449,0.343938353551537,-0.48358892195010306,0.8471198596169982
1658789439122441,0.3733577477683676,-0.4396429388876175,0.8042725261310748
1658789439138433,0.37824063477531134,-0.4502632181277182,0.7931639581902798
1658789439154424,0.39081406881818914,-0.46637674525062955,0.7981689173723963
1658789439170416,0.3917906462195777,-0.4673533226520181,0.7862058442053863
1658789439186408,0.4102235446707869,-0.4314641031509878,0.7974364843213548
1658789439202399,0.4279240100709547,-0.41571679255359717,0.7588616769665064
1658789439218391,0.43488212405584825,-0.44574654764629607,0.7503166247043564
1658789439234383,0.46552224002441456,-0.44708934157320535,0.7401846341649501
1658789439250374,0.467963683527886,-0.46601052872510884,0.7685053788052185
1658789439266366,0.4732127870603495,-0.45294880598153675,0.7763179980163271
1658789439282348,0.4834668497749295,-0.4741893644617381,0.7793698023956663
1658789439298340,0.48358892195010306,-0.4994583047226673,0.7361562523842222
1658789439314332,0.506660563057908,-0.4686961165789274,0.7285877775234608
1658789439330323,0.5091020065613794,-0.4518501564049746,0.7283436331731137
1658789439346315,0.5203326466773479,-0.44831006332494105,0.7191882200350959
1658789439362307,0.5438925764858471,-0.455146105134661,0.7388418402380408
1658789439378298,0.5608606088349735,-0.45929655909056244,0.7373769741359579
1658789439394290,0.5656214236667427,-0.4469672693980318,0.6985580224307624
1658789439410282,0.5672083619439992,-0.43512626840619495,0.6742656595712218
1658789439426273,0.5790493629358355,-0.4522163729304953,0.6880598153658353
1658789439442265,0.5944304570077055,-0.45294880598153675,0.7099107347219045
1658789439458257,0.6164034485389482,-0.41913481345845716,0.6797589074540324
1658789439474249,0.6165255207141218,-0.42047760738536644,0.6286106660563062
1658789439490240,0.6205539024948497,-0.4278019378957807,0.6004119935912104
1658789439506232,0.6272678721293969,-0.4402532997634854,0.6189669642175932
1658789439522224,0.6389868009460598,-0.4215762569619286,0.6515602349889376
1658789439538215,0.6415503166247047,-0.41535057602807646,0.6270237277790498
1658789439554207,0.643747615777829,-0.41889066910811,0.5913786526283662
1658789439570199,0.6653543907835511,-0.42059967956054,0.5607385366597999
1658789439586190,0.688426031891356,-0.40534065766384364,0.5800259403372241
1658789439602203,0.6991683833066302,-0.3761654077973602,0.5595178149080642
1658789439618195,0.710887312123293,-0.3589532310978867,0.5550011444266421
1658789439634186,0.7121080338750287,-0.37921721217669946,0.5473105973907071
1658789439650178,0.7147936217288473,-0.4126649881742579,0.5664759288929577
1658789439666170,0.7309071488517587,-0.40741588464179435,0.5254596780346379
1658789439682161,0.7323720149538415,-0.4122987716487372,0.5045853360799573
1658789439698153,0.7321278706034944,-0.4038757915617608,0.5047074082551308
1658789439714145,0.7417715724422065,-0.37042801556420235,0.5321736476691843
1658789439730136,0.7365224689097429,-0.36920729381246664,0.5391317616540778
1658789439746128,0.7531242847333486,-0.3436942092011903,0.5009231708247501
1658789439762120,0.7656977187762264,-0.3513847562371253,0.4578316929884796
1658789439778112,0.7630121309224078,-0.38690775921263443,0.47186999313344025
1658789439794103,0.7656977187762264,-0.3501640344853896,0.4699168383306631
1658789439810095,0.7667963683527885,-0.34857709620813315,0.5053177691309987
1658789439826087,0.7841306172274356,-0.3572442206454567,0.48187991149767306
1658789439842078,0.8008545052262148,-0.37177080949111163,0.4376897840848404
1658789439858070,0.8034180209048598,-0.36920729381246664,0.4350041962310218
1658789439874062,0.8159914549477376,-0.3307545586327918,0.44586861982146964
1658789439890053,0.8223392080567633,-0.30768291752498644,0.44965285725185034
1658789439906045,0.8280766002899211,-0.30060273136491933,0.39337758449683413
1658789439922027,0.8349126420996411,-0.28155947203784226,0.3485770962081327
1658789439938019,0.8361333638513768,-0.28961623559929794,0.3716487373159376
1658789439954011,0.8230716411078047,-0.3373464560921646,0.43830014496070824
1658789439970002,0.8452887769893946,-0.3353933012893875,0.4119325551232169
1658789439985994,0.8592050049591817,-0.35565728236820027,0.39154650186923057
1658789440001986,0.8543221179522389,-0.34479285877775245,0.3755550469214928
1658789440017977,0.8552986953536275,-0.2840009155413137,0.34503700312809915
1658789440033969,0.8505378805218582,-0.28278019378957797,0.33319600213626277
1658789440049961,0.8577401388570989,-0.2947432669565879,0.3124437323567557
1658789440065952,0.862256809338521,-0.29925993743801005,0.31598382543678927
1658789440081944,0.8688487067978938,-0.30048065918974576,0.32196536202029424
1658789440097936,0.8736095216296631,-0.29840543221179505,0.30511940184634145
1658789440113927,0.8776379034103918,-0.3107347219043257,0.2991378652628365
1658789440129919,0.8947280079346918,-0.3081712062256807,0.2918135347524222
1658789440145911,0.9055924315251396,-0.31293202105745044,0.29132524605172794
1658789440161903,0.911451895933471,-0.27875181200885013,0.2821698329137101
1658789440177894,0.9261005569542995,-0.24054322117952243,0.26312657358663305
1658789440193886,0.9198748760204474,-0.2714274814984359,0.26898603799496446
1658789440209878,0.9075455863279167,-0.3031662470435643,0.26849774929427017
1658789440225869,0.8906996261539639,-0.2843671320668344,0.25690089265278093
1658789440241851,0.8869153887235832,-0.2902265964751658,0.28278019378957797
1658789440257843,0.8968032349126425,-0.2936446173800258,0.28290226596475154
1658789440273835,0.9207293812466624,-0.2553139543755245,0.20062561989776473
1658789440289826,0.9214618142977038,-0.2661783779659723,0.18219272144655552
1658789440305818,0.9232928969253074,-0.2549477378500038,0.21722743572137038
1658789440321810,0.9167009994659345,-0.27533379110399014,0.2721599145494773
1658789440337802,0.9261005569542995,-0.26691081101701375,0.26861982146944374
1658789440353793,0.9336690318150609,-0.2697184710460059,0.20440985732814543
1658789440369785,0.9162127107652402,-0.2704509040970473,0.16192874036774274
1658789440385777,0.911451895933471,-0.2641031509880216,0.18414587624933265
1658789440401768,0.9355001144426645,-0.22833600366216533,0.21222247653925397
1658789440417760,0.9566186007476922,-0.22357518883039607,0.21527428091859324
1658789440433752,0.955275806820783,-0.25970855268177306,0.18866254673075478
1658789440449743,0.936476691844053,-0.2638590066376745,0.1477683680476085
1658789440465735,0.916578927290761,-0.24847791256580454,0.1381246662088964
1658789440481727,0.9229266803997866,-0.25128557259479667,0.15887693598840347
1658789440497718,0.9512474250400551,-0.24432745860990313,0.14422827496757495
1658789440513710,0.9563744563973451,-0.2435950255588617,0.13470664530403642
1658789440529702,0.9423361562523844,-0.2343175402456703,0.13409628442816857
1658789440545693,0.9160906385900667,-0.2330968184939346,0.11139085984588348
1658789440561676,0.9218280308232245,-0.21954680704966822,0.08807507438773143
1658789440577667,0.9434348058289466,-0.23761348897535672,0.1088273441672385
1658789440593659,0.9654077973601893,-0.23639276722362101,0.11395437552452847
1658789440609651,0.973464560921645,-0.2175936522468911,0.08575570305943359
1658789440625642,0.9655298695353629,-0.19501029983978047,0.034973678187228074
1658789440641634,0.9413595788509959,-0.1965972381170369,0.008117799649042468
1658789440657626,0.9292744335088123,-0.2217441062027925,0.015808346684977437
1658789440673617,0.9348897535667966,-0.22919050888838033,0.03595025558861664
1658789440689609,0.9555199511711301,-0.2116121156633861,0.024597543297474544
1658789440705601,0.9721217669947357,-0.19598687724116903,-0.015197985809109582
1658789440721593,0.9676050965133136,-0.20782787823300541,-0.033630884260318794
1658789440737584,0.9680933852140079,-0.23114366369115746,-0.025940337224383825
1658789440753576,0.9594262607766844,-0.22540627145799963,-0.007629510948348184
1658789440769568,0.9663843747615779,-0.20978103303578255,-0.0015259021896696368
1658789440785559,0.9757839322499429,-0.17425803006027296,-0.048035400930800165
1658789440801551,0.9779812314030671,-0.16290531776913086,-0.07562371252002764
1658789440817543,0.9699244678416115,-0.19623102159151617,-0.04315251392385733
1658789440833534,0.9558861676966508,-0.20428778515297186,-0.015075913633936011
1658789440849526,0.9617456321049822,-0.19562066071564832,0.008728160524910322
1658789440865518,0.9660181582360572,-0.1952544441901276,-0.0014038300144960658
1658789440881500,0.9713893339436943,-0.18182650492103436,-0.05658045319295013
1658789440897492,0.9616235599298086,-0.1715724422064544,-0.07953002212558191
1658789440913483,0.9540550850690472,-0.16559090562294942,-0.05096513313496587
1658789440929475,0.9607690547035936,-0.16046387426565945,-0.008728160524910322
1658789440945467,0.9582055390249486,-0.18719768062867148,-5.493247882810692E-4
1658789440961458,0.9636987869077593,-0.18988326848249049,-0.040222781719691625
1658789440977450,0.9668726634622722,-0.17474631876096725,-0.08599984740978117
1658789440993442,0.9602807660028994,-0.1854886701762415,-0.07293812466620908
1658789441009433,0.9677271686884872,-0.1724269474326694,-0.052918287937743
1658789441025425,0.9790798809796293,-0.15631342030975803,-0.05413900968947871
1658789441041417,0.9772487983520257,-0.15973144121461802,-0.07782101167315192
1658789441057408,0.9647974364843215,-0.15191882200350948,-0.11163500419623107
1658789441073400,0.9472190432593273,-0.1607080186160066,-0.11175707637140464
1658789441089392,0.9521019302662701,-0.1636377508201723,-0.0955214770733197
1658789441105383,0.9600366216525522,-0.17047379262989226,-0.08978408484016187
1658789441121375,0.9623559929808501,-0.1799954222934308,-0.09503318837262542
1658789441137367,0.9645532921339743,-0.1505760280766002,-0.1182269016556039
1658789441153359,0.9651636530098422,-0.13006790264744028,-0.15667963683527875
1658789441169350,0.9639429312581065,-0.12054627298390175,-0.1712062256809337
1658789441185342,0.9677271686884872,-0.13409628442816812,-0.14532692454413665
1658789441201324,0.9646753643091479,-0.13202105745021742,-0.11554131380178534
1658789441217316,0.9582055390249486,-0.12713817044327458,-0.1354390783550774
1658789441233307,0.9549095902952622,-0.14581521324483093,-0.17267109178301654
1658789441249299,0.96406500343328,-0.1526512550545509,-0.17376974135957868
1658789441265291,0.9617456321049822,-0.18219272144655507,-0.14581521324483093
1658789441281283,0.96919203479057,-0.1610742351415273,-0.14520485236896308
1658789441297274,0.9687037460898758,-0.13470664530403598,-0.15594720378423732
1658789441313266,0.9602807660028994,-0.12262149996185245,-0.17010757610437155
1658789441329258,0.9470969710841537,-0.14459449149309522,-0.1812161440451665
1658789441345249,0.9523460746166172,-0.1607080186160066,-0.1858548867017622
1658789441361241,0.9578393224994279,-0.15582513160906375,-0.16388189517051943
1658789441377233,0.955275806820783,-0.1220111390859846,-0.16839856565194156
1658789441393224,0.9584496833752958,-0.11639581902800034,-0.16913099870298298
1658789441409216,0.9639429312581065,-0.14117647058823524,-0.18280308232242293
1658789441425208,0.9650415808346686,-0.1686427100022887,-0.1607080186160066
1658789441441199,0.9622339208056765,-0.19134813458457334,-0.12762645914396886
1658789441457191,0.9572289616235601,-0.16412603952086657,-0.15619134813458446
1658789441473183,0.9499046311131458,-0.15362783245593947,-0.1881742580300605
1658789441489174,0.9350118257419702,-0.16302738994430443,-0.1870756084534979
1658789441505166,0.9276874952315559,-0.17230487525749583,-0.17230487525749583
1658789441521148,0.949294270237278,-0.14154268711375595,-0.18451209277485292
1658789441537140,0.9403830014496073,-0.15411612115663376,-0.2150301365682461
1658789441553132,0.9374532692454416,-0.1476462958724345,-0.27203784237430373
1658789441569123,0.9392843518730452,-0.15924315251392374,-0.26739909971770803
1658789441585115,0.9512474250400551,-0.15948729686427088,-0.2628824292362859
1658789441601107,0.9745632104982072,-0.13641565575646597,-0.2955977721828029
1658789441617098,0.973464560921645,-0.1505760280766002,-0.3124437323567557
1658789441633090,0.9622339208056765,-0.15118638895246805,-0.3331960021362632
1658789441649082,0.9514915693904022,-0.1607080186160066,-0.356023498893721
1658789441665073,0.9440451667048144,-0.16437018387121372,-0.34894331273365387
1658789441681065,0.9540550850690472,-0.12762645914396886,-0.34308384832532246
1658789441697057,0.96577401388571,-0.12591744869153887,-0.34222934309910746
1658789441713049,0.9591821164263372,-0.1240863660639353,-0.37592126344701304
1658789441729040,0.9374532692454416,-0.14459449149309522,-0.36530098420691237
1658789441745032,0.9207293812466624,-0.1517967498283359,-0.3412527656977189
1658789441761024,0.9261005569542995,-0.14190890363927666,-0.30341039139391146
1658789441777015,0.9428244449530787,-0.13519493400473026,-0.313908598458839
1658789441793007,0.949294270237278,-0.13482871747920955,-0.3119554436560614
1658789441808999,0.9396505683985659,-0.14666971847104593,-0.315617608911269
1658789441824990,0.9315938048371102,-0.1644922560463873,-0.29596398870832363
1658789441841003,0.9394064240482187,-0.164858472571908,-0.2566567483024338
1658789441856995,0.9445334554055087,-0.15948729686427088,-0.2394445716029603
1658789441872986,0.9503929198138401,-0.15033188372625306,-0.2537270160982681
1658789441888978,0.9483176928358894,-0.13641565575646597,-0.2330968184939346
1658789441904970,0.9466086823834594,-0.12726024261844815,-0.21478599221789896
1658789441920961,0.9335469596398873,-0.1459372854200045,-0.19000534065766406
1658789441936953,0.9280537117570766,-0.14056610971236738,-0.1998931868467233
1658789441952945,0.9303730830853745,-0.1375143053330281,-0.18365758754863792
1658789441968937,0.9353780422674909,-0.1392233157854581,-0.1426413366903181
1658789441984928,0.9457541771572444,-0.13641565575646597,-0.12237735561150531
1658789442000920,0.9457541771572444,-0.14459449149309522,-0.12445258258945602
1658789442016912,0.9412375066758223,-0.18109407186999293,-0.11895933470664533
1658789442032903,0.9400167849240866,-0.18780804150453978,-0.10431067368581681
1658789442048895,0.9455100328068973,-0.18841840238040763,-0.06610208285648911
1658789442064887,0.9604028381780729,-0.15423819333180733,-0.0695201037613491
1658789442080878,0.9635767147325858,-0.15826657511253517,-0.06793316548409267
1658789442096870,0.9578393224994279,-0.16498054474708157,-0.07037460898756409
1658789442112862,0.951857785915923,-0.18194857709620793,-0.04718089570458517
1658789442128853,0.9529564354924851,-0.17962920576791008,-0.029602502479590953
1658789442144845,0.9589379720759901,-0.17975127794308365,-0.02288853284504455
1658789442160827,0.9545433737697415,-0.1881742580300605,-0.01629663538567172
1658789442176819,0.9497825589379723,-0.17596704051270295,-0.017273212787060288
1658789442192811,0.9395284962233923,-0.19806210421911974,0.009338521400778177
1658789442208802,0.9418478675516901,-0.2141756313420311,0.02252231631952384
1658789442224794,0.946730754558633,-0.22711528191042962,0.024353398947127403
1658789442240786,0.9522240024414437,-0.22149996185244536,0.023010605020218122
1658789442256777,0.9596704051270315,-0.23248645761806674,0.04437323567559304
1658789442272769,0.9571068894483865,-0.2280918593118182,0.04388494697489875
1658789442288761,0.9563744563973451,-0.2243076218814375,0.046692607003890885
1658789442304752,0.9468528267338066,-0.24750133516441597,0.049256122682535874
1658789442320744,0.9425803006027316,-0.26776531624322875,0.06195162890058725
1658789442336736,0.9318379491874573,-0.2641031509880216,0.07257190814068792
1658789442352728,0.9302510109102009,-0.23492790112153816,0.08941786831464071
1658789442368719,0.9342793926909287,-0.23285267414358746,0.1012588693064771
1658789442384711,0.9315938048371102,-0.25091935606927596,0.09967193102922067
1658789442400703,0.9337911039902345,-0.2562905317769131,0.10016021972991496
1658789442416694,0.9405050736247809,-0.2520180056458381,0.10077058060578281
1658789442432686,0.9400167849240866,-0.2528725108720531,0.11859311818112417
1658789442448678,0.9264667734798202,-0.29010452429999223,0.13580529488059856
1658789442464669,0.9276874952315559,-0.2885175860227358,0.14642557412069923
1658789442480651,0.9235370412756545,-0.2976729991607536,0.1642481116960406
1658789442496643,0.9293965056839859,-0.27704280155642014,0.14581521324483138
1658789442512635,0.9235370412756545,-0.2763103685053787,0.15741206988632062
1658789442528627,0.9259784847791259,-0.2813153276874951,0.18048371099412552
1658789442544618,0.9271992065308616,-0.29254596780346365,0.18365758754863837
1658789442560610,0.9273212787060352,-0.26849774929427017,0.18634317540245693
1658789442576602,0.9414816510261694,-0.2444495307850767,0.21393148699168396
1658789442592593,0.9262226291294731,-0.2805828946364537,0.2515297169451438
1658789442608585,0.9242694743266959,-0.29340047302967864,0.23785763332570387
1658789442624577,0.916578927290761,-0.2902265964751658,0.23407339589532317
1658789442640568,0.9093766689555203,-0.26349279011215376,0.23321889066910817
1658789442656560,0.8991226062409403,-0.25311665522240023,0.24298466468299385
1658789442672552,0.8996108949416346,-0.2697184710460059,0.27618829633020514
1658789442688543,0.8958266575112539,-0.29462119478141435,0.27399099717708086
1658789442704535,0.8944838635843446,-0.31280994888227687,0.2692301823453116
1658789442720527,0.8992446784161139,-0.29047074082551294,0.2368810559243153
1658789442736518,0.8966811627374689,-0.28668650339513224,0.2780193789578087
1658789442752510,0.8905775539787903,-0.3131761654077976,0.3075608453498129
1658789442768502,0.8899671931029225,-0.3189135576409554,0.2909590295262072
1658789442784494,0.8972915236133368,-0.32343022812237754,0.2830243381399251
1658789442800506,0.8898451209277489,-0.2957198443579765,0.26056305790798806
1658789442816498,0.8966811627374689,-0.2667887388418402,0.29755092698558006
1658789442832490,0.8772716868848711,-0.28998245212481866,0.32904554818036136
1658789442848481,0.866529335469596,-0.31280994888227687,0.3179369802395664
1658789442864473,0.8615243762874796,-0.3268482490272375,0.31305409323262356
1658789442880465,0.8516365300984203,-0.2993820096131836,0.30646219577325073
1658789442896456,0.8485847257190811,-0.30939192797741644,0.36603341725795335
1658789442912448,0.8384527351796747,-0.3357595178149082,0.3609063859006634
1658789442928440,0.8455329213397418,-0.3471122301060503,0.36725413900968906
1658789442944431,0.8423590447852289,-0.3403982604715039,0.37030594338902834
1658789442960423,0.8422369726100554,-0.34271763179980175,0.39423208972304913
1658789442976415,0.8419928282597082,-0.35358205539024956,0.39533073929961127
1658789442992406,0.8452887769893946,-0.3462577248798353,0.4031433585107198
1658789443008398,0.8393072404058897,-0.3478446631570917,0.40424200808728195
1658789443024390,0.8332036316472111,-0.34137483787289247,0.3955748836499584
1658789443040382,0.8271000228885326,-0.3373464560921646,0.4195010299839783
1658789443056373,0.8136720836194398,-0.37921721217669946,0.46979476615548954
1658789443072365,0.8129396505683983,-0.37421225299458305,0.44574654764629607
1658789443088357,0.8084229800869762,-0.3757991912718395,0.42230869001297044
1658789443104348,0.7949950408178834,-0.36505683985656523,0.4463569085221639
1658789443120330,0.778881513694972,-0.35077439536125743,0.4831006332494088
1658789443136322,0.7703364614328221,-0.3412527656977189,0.4845654993514916
1658789443152314,0.7660639353017471,-0.386175326161593,0.48688487067978947
1658789443168305,0.7608148317692836,-0.4122987716487372,0.48615243762874805
1658789443184297,0.7553215838864729,-0.38336766613260087,0.5270466163118943
1658789443200289,0.7492179751277943,-0.4114442664225222,0.5751430533302813
1658789443216281,0.7560540169375143,-0.3982604715037765,0.5288776989394979
1658789443232272,0.7630121309224078,-0.37836270695048446,0.5033646143282215
1658789443248264,0.7412832837415122,-0.4018005645838101,0.5430380712596321
1658789443264256,0.7259021896696423,-0.3937438010223544,0.5730678263523306
1658789443280247,0.7235828183413444,-0.4030212863355458,0.6106660563057904
1658789443296239,0.7199206530861373,-0.4298771648737314,0.5906462195773248
1658789443312231,0.7241931792172123,-0.4343938353551535,0.6012664988174254
1658789443328222,0.6991683833066302,-0.43988708323796466,0.6077363241016247
1658789443344214,0.6900129701686124,-0.4341496910048064,0.6280003051804384
1658789443360206,0.6917219806210424,-0.4210879682612343,0.6271457999542234
1658789443376197,0.6970931563286795,-0.4373235675593192,0.6432593270771347
1658789443392189,0.6845197222858017,-0.43683527885862494,0.6414282444495312
1658789443408181,0.6762188143739989,-0.43170824750133496,0.6326390478370341
1658789443424173,0.674753948271916,-0.42841229877164855,0.6305638208590834
1658789443440124,0.6630350194552532,-0.42584878309300356,0.6333714808880755
1658789443456116,0.6507057297627226,-0.4320744640268557,0.6563210498207068
1658789443472108,0.6483863584344247,-0.4507515068284125,0.6648661020828568
1658789443488099,0.6516823071641111,-0.4644235904478524,0.6469214923323419
1658789443504091,0.6457007705806062,-0.46088349736781886,0.6399633783474483
1658789443520083,0.6194552529182875,-0.4374456397344928,0.607370107576104
1658789443536074,0.5983367666132597,-0.42621499961852427,0.6227512016479739
1658789443552066,0.5933318074311433,-0.45087357900358604,0.670481422140841
1658789443568058,0.599679560540169,-0.45917448691538887,0.6421606775005726
1658789443584049,0.6188448920424197,-0.4633249408712903,0.6486305027847719
1658789443600041,0.6122529945830468,-0.4423285267414361,0.6596169985503932
1658789443616033,0.5999237048905162,-0.4365911345082778,0.7013656824597545
1658789443632024,0.5807583733882655,-0.43378347447928567,0.7029526207370109
1658789443648016,0.5685511558709084,-0.4328068970778971,0.6934309910734724
1658789443664008,0.5701380941481649,-0.4340276188296328,0.7182116426337073
1658789443679999,0.5560997940032042,-0.461127641718166,0.7500724803540093
1658789443695991,0.5548790722514685,-0.4661326009002824,0.7398184176394293
1658789443711983,0.5587853818570228,-0.4603952086671246,0.716014343480583
1658789443727975,0.5471885252155335,-0.4724803540093081,0.7311512932021058
1658789443743966,0.5210650797283893,-0.46771953917753883,0.7490959029526207
1658789443759948,0.5110551613641565,-0.4733348592355231,0.7980468451972227
1658789443775940,0.510933089188983,-0.4729686427100024,0.7929198138399327
1658789443791932,0.5220416571297779,-0.4561226825360496,0.7560540169375143
1658789443807923,0.5182574196993972,-0.4494087129015032,0.7360341802090486
1658789443823915,0.5005569542992294,-0.4461127641718168,0.75898374914168
1658789443839907,0.48358892195010306,-0.4817578393224995,0.8170901045242998
1658789443855898,0.47614251926451523,-0.4822461280231938,0.8050049591821162
1658789443871890,0.47602044708934166,-0.45722133211261173,0.7647211413748378
1658789443887882,0.46845197222858026,-0.47345693141069667,0.7918211642633706
1658789443903874,0.4539253833829253,-0.4934767681391623,0.8111085679407948
1658789443919865,0.4468451972228582,-0.4874952315556573,0.8125734340428776
1658789443935857,0.44586861982146964,-0.48358892195010306,0.7854734111543449
1658789443951849,0.45038529030289176,-0.4784618905928131,0.7803463797970549
1658789443967840,0.43537041275654254,-0.4536812390325782,0.7645990691996642
1658789443983832,0.4136415655756469,-0.47016098268101025,0.7984130617227434
1658789443999824,0.40119020370794267,-0.5008010986495766,0.8107423514152741
1658789444015815,0.4072938124666212,-0.4965285725185016,0.8114747844663155
1658789444031807,0.40509651331349694,-0.467963683527886,0.7860837720302127
1658789444047799,0.39325551232166056,-0.4800488288700695,0.8009765774013884
1658789444063790,0.3767757686732285,-0.4909132524605173,0.8123292896925305
1658789444079803,0.37360189211871475,-0.5078812848096437,0.8560311284046689
1658789444095795,0.37738612954909634,-0.49616235599298086,0.8402838178072782
1658789444111786,0.3742122529945826,-0.48773937590600447,0.8345464255741204
1658789444127778,0.36395819028000265,-0.49323262378881516,0.8415045395590139
1658789444143770,0.35138475623712484,-0.4901808194094759,0.8419928282597082
1658789444159762,0.35089646753643056,-0.49872587167162585,0.867383840695811
1658789444175753,0.34332799267566916,-0.4850537880521859,0.8638437476157774
1658789444191745,0.34210727092393345,-0.4678416113527124,0.8531013962005032
1658789444207737,0.32404058899824495,-0.4967727168688487,0.8645761806668188
1658789444223728,0.3119554436560614,-0.5029983978027008,0.8433356221866175
1658789444239720,0.30682841229877145,-0.4931105516136416,0.8241702906843669
1658789444255712,0.3082932784008543,-0.494697489890898,0.8655527580682074
1658789444271703,0.3032883192187379,-0.5008010986495766,0.9163347829404138
1658789444287695,0.2888838025482565,-0.492133974212253,0.875318532082094
1658789444303687,0.2855878538185701,-0.4732127870603495,0.8566414892805367
1658789444319678,0.28961623559929794,-0.47602044708934166,0.8667734798199431
1658789444335670,0.27789730678263513,-0.48236820019836735,0.8676279850461581
1658789444351662,0.26349279011215376,-0.4800488288700695,0.8666514076447696
1658789444367653,0.2523842221713588,-0.49066910811017017,0.8653086137178603
1658789444383645,0.24371709773403527,-0.510078583962768,0.8896009765774018
1658789444399627,0.24225223163195242,-0.48944838635843446,0.8919203479056996
1658789444415619,0.23846799420157172,-0.5073929961089494,0.911451895933471
1658789444431611,0.23736934462500958,-0.5237506675822079,0.9158464942397195
1658789444447602,0.24408331425955598,-0.4939650568398566,0.8877698939497982
1658789444463594,0.24371709773403527,-0.48664072632944233,0.8974135957885103
1658789444479586,0.22040131227588322,-0.5121538109407187,0.9363546196688795
1658789444495577,0.21356527046616325,-0.5331502250705729,0.9748073548485543
1658789444511569,0.21612878614480824,-0.5520714122224764,0.9507591363393608
1658789444527561,0.21991302357518894,-0.5674525062943467,0.99140917067216
1658789444543553,0.21857022964827966,-0.5767299916075381,1.0097199969481956
1658789444559544,0.20843823910887327,-0.5556115053025099,1.0030060273136492
1658789444575536,0.21454184786755182,-0.5648889906157017,0.9950713359273671
1658789444591528,0.20929274433508827,-0.603219653620203,1.0236362249179827
1658789444607519,0.21405355916685753,-0.5941863126573588,1.0365758754863812
1658789444623511,0.21185626001373326,-0.6033417257953766,1.0530556191348133
1658789444639503,0.22149996185244536,-0.6094453345540551,1.0310826276035705
1658789444655494,0.22540627145799963,-0.6206759746700237,1.0413366903181505
1658789444671486,0.22272068360418107,-0.6148165102616923,1.0463416495002669
1658789444687478,0.21356527046616325,-0.5976043335622188,1.0349889372091248
1658789444703469,0.2091706721599147,-0.5872281986724652,1.0264438849469748
1658789444719452,0.2007476920729383,-0.5907682917524988,1.0065461203936827
1658789444735443,0.1940337224383919,-0.5831998168917374,0.9595483329518579
1658789444751435,0.1998931868467233,-0.5800259403372245,0.9584496833752958
1658789444767427,0.22149996185244536,-0.567940794995041,0.9626001373311972
1658789444783418,0.24115358205539028,-0.5562218661783778,0.9459983215075916
1658789444799410,0.2540932326237888,-0.5631799801632718,0.9269550621805145
1658789444815402,0.26312657358663305,-0.5729457541771574,0.8993667505912875
1658789444831393,0.2830243381399251,-0.5458457312886242,0.9019302662699324
1658789444847385,0.2931563286793315,-0.5061722743572137,0.8759288929579618
1658789444863377,0.29254596780346365,-0.47602044708934166,0.8467536430914775
1658789444879368,0.2868085755703058,-0.48200198367284663,0.8267338063630119
1658789444895360,0.279362172884718,-0.4881055924315252,0.8191653315022505
1658789444911352,0.27118333714808873,-0.493842984664683,0.8305180437933926
1658789444927343,0.27875181200885013,-0.5175249866483558,0.8407721065079725
1658789444943335,0.30133516441596075,-0.5142290379186694,0.8297856107423511
1658789444959327,0.32367437247272424,-0.5152056153200579,0.832104982070649
1658789444975319,0.3460135805294877,-0.499824521248188,0.8253910124361026
1658789444991310,0.3640802624551762,-0.4859082932784009,0.8262455176623176
1658789445007302,0.36359197375448193,-0.4922560463874266,0.8274662394140533
1658789445023294,0.3637140459296555,-0.4893263141832609,0.8262455176623176
1658789445039306,0.3687190051117719,-0.5001907377737087,0.8604257267109174
1658789445055298,0.3726253147173262,-0.49713893339436943,0.8484626535439075
1658789445071290,0.37531090257114563,-0.4883497367818723,0.8373540856031125
1658789445087281,0.37274738689249975,-0.4956740672922866,0.836377508201724
1658789445103273,0.391424429694057,-0.4935988403143359,0.8489509422446018
1658789445119265,0.40753795681696836,-0.48688487067978947,0.8393072404058897
1658789445135256,0.4132753490501262,-0.4807812619211109,0.8183108262760355
1658789445151248,0.41644922560463904,-0.4750438696879531,0.8007324330510412
1658789445167240,0.41132219424734906,-0.5020218204013123,0.7876707103074692
1658789445183231,0.4208438239108876,-0.5228961623559929,0.8102540627145798
1658789445199223,0.4251163500419626,-0.5048294804303044,0.8080567635614555
1658789445215215,0.43781185626001395,-0.49787136644541086,0.8196536202029447
1658789445231207,0.45807583733882673,-0.48651865415426876,0.791699092088197
1658789445247198,0.4673533226520181,-0.47602044708934166,0.7459220263981079
1658789445263190,0.462836652170596,-0.4809033340962845,0.7556878004119936
1658789445279182,0.4623483634699017,-0.4762645914396888,0.7685053788052185
1658789445295173,0.4590524147402153,-0.4787060349431602,0.7644769970244907
1658789445311165,0.4737010757610438,-0.4812695506218052,0.7531242847333486
1658789445327157,0.4854200045777066,-0.4776073853665981,0.7239490348668651
1658789445343148,0.49445334554055087,-0.49250019073777374,0.7316395819028001
1658789445359130,0.4939650568398566,-0.49835965514610514,0.7270008392462044
1658789445375122,0.49958037689784085,-0.503242542153048,0.7339589532310979
1658789445391114,0.5220416571297779,-0.4994583047226673,0.7406729228656443
1658789445407106,0.5465781643396657,-0.4967727168688487,0.7312733653772794
1658789445423097,0.5629358358129242,-0.47650873579003594,0.7020981155107959
1658789445439089,0.568673228046082,-0.46295872434576957,0.6848859388113224
1658789445455081,0.5619592584115356,-0.47260242618448167,0.6830548561837189
1658789445471072,0.5650110627908749,-0.4905470359349966,0.6979476615548945
1658789445487064,0.5687953002212556,-0.4901808194094759,0.7067368581673916
1658789445503056,0.5759975585564963,-0.4717479209582667,0.7014877546349281
1658789445519047,0.5810025177386127,-0.47431143663691167,0.6717021438925768
1658789445535039,0.5860074769207291,-0.4807812619211109,0.6586404211490047
1658789445551031,0.6010223544670783,-0.46723125047684455,0.644602121004044
1658789445567022,0.602243076218814,-0.4774853131914245,0.6610818646524761
1658789445583014,0.6117647058823525,-0.4746776531624324,0.6521705958648054
1658789445599006,0.6212863355458911,-0.47858396276798665,0.6666971847104604
1658789445614997,0.6347142748149848,-0.4691844052796217,0.6547341115434504
1658789445630989,0.6515602349889376,-0.4376897840848404,0.613351644159609
1658789445646981,0.6511940184634168,-0.4531929503318839,0.5943083848325319
1658789445662973,0.6511940184634168,-0.4612497138933396,0.6395971618219276
1658789445678955,0.6597390707255668,-0.4417181658655682,0.6590066376745254
1658789445694946,0.6613260090028232,-0.42926680399786354,0.6183566033417254
1658789445710938,0.6668192568856339,-0.4492866407263296,0.5838101777676048
1658789445726930,0.6646219577325096,-0.42792401007095426,0.5557335774776835
1658789445742921,0.6664530403601132,-0.42047760738536644,0.5994354161898219
1658789445758913,0.6714579995422296,-0.42719157701991284,0.6239719233997096
1658789445774905,0.6842755779354546,-0.4293888761730371,0.5803921568627448
1658789445790897,0.6970931563286795,-0.4511177233539332,0.5363241016250857
1658789445806888,0.706614785992218,-0.4402532997634854,0.5341268024719614
1658789445822880,0.7093003738460366,-0.4434271763179982,0.5811245899137862
1658789445838872,0.7255359731441215,-0.4456244754711225,0.6027313649195083
1658789445854863,0.74189364461738,-0.4375677119096668,0.5613488975356677
1658789445870855,0.753002212558175,-0.4085145342183565,0.5037308308537423
