Timestamp (microseconds),Gyro X (°/s),Gyro Y (°/s),Gyro Z (°/s)
1658789420731811,-2.410925459678083,-1.2512397955290453,0.8850232700083325
1658789420747809,-0.8850232700083325,-1.8616006713969,0.15259021896690683
1658789420763807,-0.45777065690094787,-2.410925459678083,-0.33569848172737693
1658789420779805,0.8239871824216607,-2.7161058976118966,-0.7019150072480898
1658789420795803,0.8239871824216607,-2.410925459678083,-1.0681315327688026
1658789420811801,-0.3967345693140487,-2.166781109330941,-1.0681315327688026
1658789420827798,-0.5188067444876197,-1.983672846570471,-1.1291676203554744
1658789420843796,-0.9460593575952316,-1.5564202334630863,-0.9460593575952316
1658789420859794,-2.04470893415737,-1.1291676203554744,-1.1291676203554744
1658789420875792,-3.3875028610666504,-0.5188067444876197,-1.5564202334630863
1658789420891790,-3.2043945983061803,0.03051804379333589,-1.4953841458761872
1658789420907788,-2.3498893720911838,0.33569848172737693,-1.1291676203554744
1658789420923786,0.7019150072480898,0.7629510948347615,-0.45777065690094787
1658789420939784,1.6174563210497581,0.5188067444876197,-0.15259021896690683
1658789420955782,0.5798428320745188,0.03051804379333589,-0.03051804379333589
1658789420971779,-0.45777065690094787,0.09155413138023505,0.33569848172737693
1658789420987777,-2.8992141603723667,-0.03051804379333589,0.45777065690094787
1658789421003775,-4.486152437628789,-0.6408789196611906,0.2746623941404778
1658789421019773,-4.180971999694748,-1.1291676203554744,0.3967345693140487
1658789421035771,-2.655069810025225,-1.4953841458761872,0.5798428320745188
1658789421051757,-0.15259021896690683,-1.4343480582895154,0.6408789196611906
1658789421067755,0.6408789196611906,-1.1291676203554744,0.9460593575952316
1658789421083753,0.7019150072480898,-0.9460593575952316,1.0070954451819034
1658789421099751,1.1902037079423735,-0.3967345693140487,1.6784924086366573
1658789421115749,1.8005645838102282,-0.5188067444876197,2.04470893415737
1658789421131747,0.8239871824216607,-0.7629510948347615,2.105745021744042
1658789421147745,-0.45777065690094787,-0.3967345693140487,1.6784924086366573
1658789421163743,-1.3733119707026162,-0.213626306553806,1.2512397955290453
1658789421179741,-1.3122758831159445,-0.2746623941404778,1.2512397955290453
1658789421195738,-1.1291676203554744,-1.0681315327688026,1.4343480582895154
1658789421211736,-0.5188067444876197,-1.3122758831159445,1.6174563210497581
1658789421227734,0.33569848172737693,-0.7019150072480898,2.227817196917613
1658789421243732,0.5798428320745188,-0.45777065690094787,2.3498893720911838
1658789421259730,-0.6408789196611906,-0.3967345693140487,2.5940337224383256
1658789421275728,-0.5188067444876197,-0.8239871824216607,2.655069810025225
1658789421291726,-0.3967345693140487,-0.9460593575952316,2.9602502479590385
1658789421307724,0.33569848172737693,-1.1902037079423735,2.8381780727854675
1658789421323722,-0.7629510948347615,-1.6784924086366573,2.04470893415737
1658789421339719,-1.6784924086366573,-1.8616006713969,1.5564202334630863
1658789421355717,-0.5188067444876197,-1.739528496223329,1.3122758831159445
1658789421371734,0.8239871824216607,-2.04470893415737,1.0681315327688026
1658789421387732,1.2512397955290453,-1.983672846570471,1.0070954451819034
1658789421403730,-0.213626306553806,-2.04470893415737,0.5798428320745188
1658789421419728,-1.1902037079423735,-1.4343480582895154,0.5798428320745188
1658789421435726,-0.7019150072480898,-0.7019150072480898,1.1291676203554744
1658789421451724,-0.45777065690094787,-0.3967345693140487,1.2512397955290453
1658789421467722,-1.6784924086366573,-0.5798428320745188,0.8239871824216607
1658789421483719,-3.0212863355459376,-1.0681315327688026,0.09155413138023505
1658789421499717,-2.288853284504512,-0.8239871824216607,0.09155413138023505
1658789421515715,-1.4953841458761872,-1.0070954451819034,-0.213626306553806
1658789421531713,-1.2512397955290453,-1.1902037079423735,-0.213626306553806
1658789421547711,-0.15259021896690683,-1.0681315327688026,-0.09155413138023505
1658789421563709,1.5564202334630863,-0.7629510948347615,0.213626306553806
1658789421579707,0.8850232700083325,-0.5798428320745188,0.3967345693140487
1658789421595705,0.5798428320745188,-0.7629510948347615,0.5188067444876197
1658789421611703,-0.7629510948347615,-0.33569848172737693,0.5798428320745188
1658789421627700,-1.8005645838102282,0.213626306553806,0.213626306553806
1658789421643698,-1.8616006713969,0.7019150072480898,-0.03051804379333589
1658789421659696,-0.5188067444876197,0.15259021896690683,0.2746623941404778
1658789421675694,0.6408789196611906,-0.3967345693140487,0.7019150072480898
1658789421691589,1.4343480582895154,-0.7019150072480898,1.1291676203554744
1658789421707587,1.6784924086366573,-0.45777065690094787,1.2512397955290453
1658789421723585,1.6784924086366573,0.09155413138023505,1.4953841458761872
1658789421739583,0.213626306553806,0.09155413138023505,1.2512397955290453
1658789421755581,-3.0823224231326094,-0.45777065690094787,0.9460593575952316
1658789421771578,-3.936827649347606,-0.213626306553806,1.1902037079423735
1658789421787576,-3.3264667734797513,0.03051804379333589,0.8850232700083325
1658789421803574,-2.8992141603723667,-0.09155413138023505,0.09155413138023505
1658789421819572,-1.8616006713969,-1.2512397955290453,-0.8850232700083325
1658789421835570,0.8850232700083325,-2.655069810025225,-1.2512397955290453
1658789421851568,3.2654306858930795,-3.692683299000464,-1.0070954451819034
1658789421867566,3.2043945983061803,-3.997863736934505,-0.5798428320745188
1658789421883564,-0.9460593575952316,-3.936827649347606,-0.7629510948347615
1658789421899562,-4.058899824521177,-3.3264667734797513,-0.5188067444876197
1658789421915559,-3.2043945983061803,-2.7161058976118966,0.213626306553806
1658789421931557,-0.6408789196611906,-2.655069810025225,0.8850232700083325
1658789421947555,1.0070954451819034,-2.8992141603723667,1.1902037079423735
1658789421963553,0.15259021896690683,-3.2043945983061803,1.4343480582895154
1658789421979551,0.8850232700083325,-3.1433585107195086,2.04470893415737
1658789421995549,0.9460593575952316,-2.7161058976118966,2.105745021744042
1658789422011383,1.3733119707026162,-2.288853284504512,1.6784924086366573
1658789422027380,-0.8239871824216607,-3.0212863355459376,0.7629510948347615
1658789422043377,-1.5564202334630863,-4.242008087281647,-0.3967345693140487
1658789422059373,-1.1902037079423735,-4.058899824521177,-0.15259021896690683
1658789422075370,-0.45777065690094787,-3.3875028610666504,-0.15259021896690683
1658789422091367,-1.4953841458761872,-2.7771419851987957,0.213626306553806
1658789422107364,-2.410925459678083,-2.9602502479590385,0.45777065690094787
1658789422123361,-2.105745021744042,-2.532997634851654,0.7629510948347615
1658789422139358,0.7629510948347615,-1.739528496223329,1.2512397955290453
1658789422155355,2.04470893415737,-1.3122758831159445,1.6174563210497581
1658789422171352,1.3733119707026162,-1.3733119707026162,1.8005645838102282
1658789422187349,-0.3967345693140487,-1.739528496223329,1.6174563210497581
1658789422203346,-0.45777065690094787,-1.6784924086366573,1.6174563210497581
1658789422219343,-0.6408789196611906,-1.2512397955290453,1.1902037079423735
1658789422235340,-1.2512397955290453,-0.45777065690094787,0.8850232700083325
1658789422251337,-2.3498893720911838,-0.09155413138023505,1.0681315327688026
1658789422267334,0.213626306553806,0.09155413138023505,1.6784924086366573
1658789422283331,2.7771419851987957,-0.03051804379333589,2.04470893415737
1658789422299327,2.4719615472647547,0.09155413138023505,2.410925459678083
1658789422315324,-0.15259021896690683,0.3967345693140487,1.9226367589837992
1658789422331237,-2.227817196917613,0.5798428320745188,1.8005645838102282
1658789422347234,-1.1902037079423735,1.1291676203554744,1.983672846570471
1658789422363231,-0.03051804379333589,1.0070954451819034,1.8616006713969
1658789422379228,-0.5188067444876197,1.1291676203554744,2.166781109330941
1658789422395225,0.213626306553806,0.7629510948347615,2.105745021744042
1658789422411222,0.6408789196611906,0.3967345693140487,2.227817196917613
1658789422427219,1.3733119707026162,0.5188067444876197,2.532997634851654
1658789422443216,1.4343480582895154,0.7019150072480898,2.3498893720911838
1658789422459213,-0.03051804379333589,0.3967345693140487,1.9226367589837992
1658789422475210,-0.5798428320745188,-0.7019150072480898,1.1291676203554744
1658789422491207,0.03051804379333589,-1.3122758831159445,0.8239871824216607
1658789422507204,0.5188067444876197,-1.6174563210497581,0.8850232700083325
1658789422523201,0.15259021896690683,-1.8616006713969,1.0681315327688026
1658789422539198,-0.5798428320745188,-1.8005645838102282,1.0070954451819034
1658789422555194,-0.8239871824216607,-1.4343480582895154,1.0070954451819034
1658789422571191,-0.45777065690094787,-1.1902037079423735,1.4343480582895154
1658789422587188,0.15259021896690683,-2.288853284504512,1.1902037079423735
1658789422603185,-0.2746623941404778,-2.8992141603723667,1.3733119707026162
1658789422619182,-0.5188067444876197,-2.5940337224383256,1.0070954451819034
1658789422635179,-0.3967345693140487,-2.166781109330941,0.2746623941404778
1658789422651092,-1.4953841458761872,-2.166781109330941,0.03051804379333589
1658789422667089,-1.2512397955290453,-2.7771419851987957,-0.09155413138023505
1658789422683085,-0.15259021896690683,-3.0823224231326094,0.5188067444876197
1658789422699082,0.7019150072480898,-2.9602502479590385,1.1902037079423735
1658789422715078,-1.3122758831159445,-2.655069810025225,1.4953841458761872
1658789422731074,-2.410925459678083,-2.410925459678083,1.4343480582895154
1658789422747071,-1.6174563210497581,-2.288853284504512,1.4953841458761872
1658789422763067,-0.03051804379333589,-2.5940337224383256,1.5564202334630863
1658789422779064,0.5188067444876197,-2.9602502479590385,1.4953841458761872
1658789422795060,-0.213626306553806,-3.5095750362402214,1.1291676203554744
1658789422811057,-0.213626306553806,-3.875791561760934,0.7629510948347615
1658789422827053,-1.3122758831159445,-3.6316472114137923,0.33569848172737693
1658789422843050,-2.04470893415737,-2.8381780727854675,0.213626306553806
1658789422859046,-2.5940337224383256,-2.105745021744042,0.2746623941404778
1658789422875043,-1.3122758831159445,-2.04470893415737,0.5188067444876197
1658789422891039,1.4953841458761872,-2.3498893720911838,0.7629510948347615
1658789422907035,1.3122758831159445,-2.288853284504512,1.0681315327688026
1658789422923032,-0.09155413138023505,-1.983672846570471,1.0681315327688026
1658789422939028,0.09155413138023505,-1.4953841458761872,1.3122758831159445
1658789422955025,-0.7629510948347615,-1.3733119707026162,1.1902037079423735
1658789422970916,-1.3122758831159445,-1.2512397955290453,0.7629510948347615
1658789422986912,-1.983672846570471,-0.9460593575952316,0.6408789196611906
1658789423002908,-1.0070954451819034,-0.9460593575952316,1.0681315327688026
1658789423018904,1.0681315327688026,-0.8239871824216607,1.6784924086366573
1658789423034900,0.8850232700083325,-0.7019150072480898,1.5564202334630863
1658789423050896,-0.7019150072480898,-0.3967345693140487,1.1291676203554744
1658789423066892,-0.8239871824216607,0.45777065690094787,1.0681315327688026
1658789423082888,-0.45777065690094787,0.7629510948347615,0.7629510948347615
1658789423098884,-0.45777065690094787,0.5188067444876197,0.3967345693140487
1658789423114880,-1.6174563210497581,0.2746623941404778,0.7019150072480898
1658789423130876,-1.3122758831159445,0.6408789196611906,1.0681315327688026
1658789423146872,-0.6408789196611906,1.1902037079423735,1.1902037079423735
1658789423162868,-1.0070954451819034,1.4343480582895154,1.1902037079423735
1658789423178864,-1.3733119707026162,0.8850232700083325,0.8850232700083325
1658789423194860,-0.7629510948347615,0.6408789196611906,1.2512397955290453
1658789423210856,0.15259021896690683,0.8850232700083325,1.4953841458761872
1658789423226852,0.2746623941404778,0.9460593575952316,1.3733119707026162
1658789423242848,-0.3967345693140487,0.45777065690094787,1.9226367589837992
1658789423258844,-0.2746623941404778,-0.33569848172737693,2.105745021744042
1658789423274840,0.45777065690094787,-0.9460593575952316,2.04470893415737
1658789423290771,0.9460593575952316,-1.0681315327688026,1.9226367589837992
1658789423306767,0.2746623941404778,-1.3122758831159445,1.5564202334630863
1658789423322763,-1.983672846570471,-1.6174563210497581,1.2512397955290453
1658789423338759,-0.8850232700083325,-2.105745021744042,1.0070954451819034
1658789423354755,0.8239871824216607,-2.410925459678083,1.1902037079423735
1658789423370751,2.410925459678083,-3.3875028610666504,1.0070954451819034
1658789423386747,0.03051804379333589,-3.875791561760934,0.9460593575952316
1658789423402743,-1.0681315327688026,-3.6316472114137923,0.7629510948347615
1658789423418739,-1.6174563210497581,-2.7161058976118966,0.9460593575952316
1658789423434735,-1.6784924086366573,-1.8616006713969,1.1291676203554744
1658789423450731,-1.3733119707026162,-1.8005645838102282,1.4343480582895154
1658789423466727,-0.15259021896690683,-2.532997634851654,1.4953841458761872
1658789423482723,1.2512397955290453,-2.7161058976118966,2.04470893415737
1658789423498719,1.3122758831159445,-2.410925459678083,2.105745021744042
1658789423514715,-0.09155413138023505,-1.983672846570471,1.739528496223329
1658789423530711,-0.9460593575952316,-1.5564202334630863,1.6174563210497581
1658789423546707,-1.3733119707026162,-1.6784924086366573,1.1291676203554744
1658789423562703,0.03051804379333589,-1.5564202334630863,1.2512397955290453
1658789423578699,-0.45777065690094787,-1.4953841458761872,1.8005645838102282
1658789423594695,-0.9460593575952316,-1.3733119707026162,1.8616006713969
1658789423610595,-1.4953841458761872,-0.9460593575952316,1.8616006713969
1658789423626591,-1.0681315327688026,-0.5188067444876197,1.739528496223329
1658789423642586,-0.33569848172737693,-0.3967345693140487,1.6174563210497581
1658789423658582,-0.45777065690094787,-0.8239871824216607,0.8850232700083325
1658789423674577,0.09155413138023505,-0.5798428320745188,1.0681315327688026
1658789423690573,1.1291676203554744,-0.213626306553806,1.2512397955290453
1658789423706568,-0.5798428320745188,-0.3967345693140487,1.0681315327688026
1658789423722564,-2.7161058976118966,-0.09155413138023505,1.1291676203554744
1658789423738559,-2.410925459678083,-0.03051804379333589,0.7629510948347615
1658789423754555,-0.8850232700083325,0.03051804379333589,1.3122758831159445
1658789423770550,0.9460593575952316,-0.3967345693140487,1.739528496223329
1658789423786546,1.6784924086366573,-0.45777065690094787,1.5564202334630863
1658789423802541,1.6174563210497581,0.03051804379333589,1.3733119707026162
1658789423818537,0.15259021896690683,0.2746623941404778,1.3122758831159445
1658789423834532,-1.2512397955290453,0.7019150072480898,1.4953841458761872
1658789423850528,-2.655069810025225,0.09155413138023505,1.0070954451819034
1658789423866523,-1.9226367589837992,-0.5188067444876197,1.0681315327688026
1658789423882519,-0.213626306553806,-0.5798428320745188,0.9460593575952316
1658789423898514,0.8239871824216607,-0.33569848172737693,0.8239871824216607
1658789423914510,0.5188067444876197,-0.2746623941404778,0.45777065690094787
1658789423930420,0.9460593575952316,-0.3967345693140487,0.213626306553806
1658789423946415,1.8005645838102282,-0.7629510948347615,0.213626306553806
1658789423962410,1.983672846570471,-0.8850232700083325,0.5188067444876197
1658789423978405,0.7629510948347615,-0.8850232700083325,0.9460593575952316
1658789423994400,-0.8850232700083325,-1.1291676203554744,1.1291676203554744
1658789424010395,-1.0070954451819034,-1.0681315327688026,1.1291676203554744
1658789424026390,-1.1291676203554744,-0.6408789196611906,1.2512397955290453
1658789424042385,-1.1902037079423735,-0.8239871824216607,1.0681315327688026
1658789424058380,-0.213626306553806,-1.2512397955290453,0.9460593575952316
1658789424074375,1.0681315327688026,-1.3122758831159445,1.3122758831159445
1658789424090370,1.2512397955290453,-1.1291676203554744,1.3122758831159445
1658789424106365,0.2746623941404778,-0.9460593575952316,0.9460593575952316
1658789424122360,0.33569848172737693,-0.5798428320745188,1.0681315327688026
1658789424138355,0.5798428320745188,-0.7019150072480898,1.2512397955290453
1658789424154350,0.3967345693140487,-1.0681315327688026,0.9460593575952316
1658789424170345,-0.213626306553806,-1.2512397955290453,0.5188067444876197
1658789424186340,-1.1902037079423735,-1.4343480582895154,0.3967345693140487
1658789424202335,-1.983672846570471,-1.8005645838102282,0.03051804379333589
1658789424218330,-2.166781109330941,-1.9226367589837992,0.15259021896690683
1658789424234325,-0.7019150072480898,-1.4953841458761872,0.3967345693140487
1658789424250305,0.2746623941404778,-0.8239871824216607,0.7019150072480898
1658789424266300,0.8239871824216607,-0.15259021896690683,1.1902037079423735
1658789424282295,0.7629510948347615,-0.15259021896690683,0.8239871824216607
1658789424298290,0.45777065690094787,-0.213626306553806,1.1291676203554744
1658789424314285,0.9460593575952316,-0.5188067444876197,1.5564202334630863
1658789424330280,0.45777065690094787,-1.1291676203554744,1.3122758831159445
1658789424346275,-0.9460593575952316,-1.2512397955290453,0.5798428320745188
1658789424362270,-1.983672846570471,-0.9460593575952316,-0.09155413138023505
1658789424378265,-0.7629510948347615,-0.5798428320745188,0.3967345693140487
1658789424394260,0.7629510948347615,-0.2746623941404778,1.1902037079423735
1658789424410255,1.4343480582895154,-0.9460593575952316,1.0070954451819034
1658789424426250,0.213626306553806,-1.2512397955290453,0.8850232700083325
1658789424442245,-0.45777065690094787,-1.0681315327688026,0.6408789196611906
1658789424458240,-1.1902037079423735,-0.5798428320745188,0.8239871824216607
1658789424474235,-1.6174563210497581,-0.5188067444876197,0.5798428320745188
1658789424490230,-1.8616006713969,-0.9460593575952316,-0.09155413138023505
1658789424506225,-1.1291676203554744,-0.8850232700083325,-0.15259021896690683
1658789424522220,-0.213626306553806,-0.8239871824216607,0.15259021896690683
1658789424538215,0.7629510948347615,-0.8239871824216607,0.5188067444876197
1658789424554210,-0.09155413138023505,-1.2512397955290453,0.33569848172737693
1658789424570129,-0.2746623941404778,-1.3733119707026162,0.5798428320745188
1658789424586124,-0.5188067444876197,-1.4343480582895154,0.8239871824216607
1658789424602118,-0.3967345693140487,-1.0070954451819034,1.0681315327688026
1658789424618113,-0.33569848172737693,-0.6408789196611906,1.0070954451819034
1658789424634107,-0.3967345693140487,-0.5188067444876197,0.45777065690094787
1658789424650102,0.33569848172737693,-0.7629510948347615,0.5188067444876197
1658789424666096,1.3733119707026162,-1.1291676203554744,0.9460593575952316
1658789424682091,0.8239871824216607,-1.4343480582895154,1.2512397955290453
1658789424698085,0.2746623941404778,-1.4343480582895154,1.1291676203554744
1658789424714080,-0.45777065690094787,-0.7019150072480898,1.2512397955290453
1658789424730075,-0.6408789196611906,-0.3967345693140487,1.1902037079423735
1658789424746069,0.6408789196611906,-0.45777065690094787,1.1902037079423735
1658789424762064,1.3122758831159445,-0.8239871824216607,1.1902037079423735
1658789424778058,1.6174563210497581,-1.3733119707026162,1.2512397955290453
1658789424794053,-0.213626306553806,-1.4953841458761872,1.3122758831159445
1658789424810047,-0.3967345693140487,-1.2512397955290453,1.3122758831159445
1658789424826042,-1.2512397955290453,-1.0681315327688026,1.0070954451819034
1658789424842036,-1.6784924086366573,-0.8850232700083325,0.7019150072480898
1658789424858031,-1.9226367589837992,-1.0070954451819034,0.3967345693140487
1658789424874025,-0.9460593575952316,-0.5188067444876197,0.9460593575952316
1658789424889953,0.09155413138023505,-0.8850232700083325,1.0681315327688026
1658789424905948,-0.15259021896690683,-1.2512397955290453,1.0681315327688026
1658789424921942,0.03051804379333589,-1.4953841458761872,1.0681315327688026
1658789424937937,-0.15259021896690683,-1.4343480582895154,0.8850232700083325
1658789424953931,0.8239871824216607,-1.3122758831159445,1.1291676203554744
1658789424969926,0.5798428320745188,-1.4343480582895154,0.8850232700083325
1658789424985921,0.5188067444876197,-1.5564202334630863,0.7629510948347615
1658789425001915,-0.8239871824216607,-1.739528496223329,0.8850232700083325
1658789425017910,-1.4343480582895154,-1.9226367589837992,0.8239871824216607
1658789425033904,-0.9460593575952316,-1.8616006713969,0.33569848172737693
1658789425049899,-0.6408789196611906,-1.9226367589837992,-0.7629510948347615
1658789425065893,-0.45777065690094787,-1.6174563210497581,-1.1902037079423735
1658789425081888,0.5798428320745188,-1.8616006713969,-1.0070954451819034
1658789425097882,1.5564202334630863,-1.6784924086366573,-0.2746623941404778
1658789425113877,2.04470893415737,-1.4953841458761872,0.33569848172737693
1658789425129871,0.7629510948347615,-0.9460593575952316,1.0681315327688026
1658789425145866,0.03051804379333589,0.09155413138023505,1.8005645838102282
1658789425161861,0.15259021896690683,0.33569848172737693,1.8005645838102282
1658789425177855,-0.5798428320745188,0.09155413138023505,1.8005645838102282
1658789425193850,-0.33569848172737693,-0.15259021896690683,1.983672846570471
1658789425209747,0.6408789196611906,-0.7019150072480898,1.9226367589837992
1658789425225741,0.7629510948347615,-1.2512397955290453,1.4343480582895154
1658789425241735,-0.45777065690094787,-2.105745021744042,0.213626306553806
1658789425257729,-1.3122758831159445,-2.166781109330941,-0.213626306553806
1658789425273723,-1.0070954451819034,-1.6784924086366573,0.33569848172737693
1658789425289717,-0.5798428320745188,-1.8005645838102282,0.5188067444876197
1658789425305711,-0.6408789196611906,-2.227817196917613,0.6408789196611906
1658789425321705,-1.3733119707026162,-2.4719615472647547,0.5798428320745188
1658789425337700,-0.7629510948347615,-1.983672846570471,1.0070954451819034
1658789425353694,-0.6408789196611906,-1.6174563210497581,1.1291676203554744
1658789425369688,-0.5798428320745188,-1.5564202334630863,0.8850232700083325
1658789425385682,-0.213626306553806,-1.1902037079423735,0.7629510948347615
1658789425401676,-0.03051804379333589,-0.9460593575952316,0.5798428320745188
1658789425417670,0.5188067444876197,-0.7629510948347615,0.7019150072480898
1658789425433664,0.213626306553806,-0.7629510948347615,1.0681315327688026
1658789425449658,-0.9460593575952316,-0.6408789196611906,1.3122758831159445
1658789425465652,-2.3498893720911838,-0.2746623941404778,1.1902037079423735
1658789425481646,-0.7019150072480898,0.6408789196611906,1.6784924086366573
1658789425497640,0.7629510948347615,0.7629510948347615,1.8005645838102282
1658789425513634,2.227817196917613,0.2746623941404778,1.6784924086366573
1658789425529602,2.288853284504512,-0.03051804379333589,1.6784924086366573
1658789425545596,1.8005645838102282,-0.09155413138023505,1.983672846570471
1658789425561590,0.2746623941404778,-0.15259021896690683,1.9226367589837992
1658789425577584,-1.6784924086366573,-0.15259021896690683,1.5564202334630863
1658789425593578,-2.227817196917613,-0.3967345693140487,1.3733119707026162
1658789425609572,-0.7019150072480898,-0.5798428320745188,1.3122758831159445
1658789425625566,1.6174563210497581,-0.5798428320745188,1.3733119707026162
1658789425641560,2.532997634851654,-0.5798428320745188,1.3122758831159445
1658789425657554,2.4719615472647547,-0.8239871824216607,1.3733119707026162
1658789425673548,0.2746623941404778,-1.1291676203554744,1.739528496223329
1658789425689542,-0.6408789196611906,-1.1291676203554744,2.04470893415737
1658789425705536,-0.7019150072480898,-1.3122758831159445,1.8616006713969
1658789425721531,-1.3733119707026162,-1.2512397955290453,1.6784924086366573
1658789425737525,-1.3122758831159445,-1.2512397955290453,1.1902037079423735
1658789425753519,0.09155413138023505,-1.4343480582895154,0.8239871824216607
1658789425769513,1.0070954451819034,-1.5564202334630863,0.8239871824216607
1658789425785507,1.739528496223329,-2.04470893415737,0.5798428320745188
1658789425801501,0.213626306553806,-2.410925459678083,0.2746623941404778
1658789425817495,-0.15259021896690683,-2.04470893415737,0.3967345693140487
1658789425833489,-0.03051804379333589,-1.5564202334630863,0.5798428320745188
1658789425849426,-0.5798428320745188,-1.1902037079423735,0.6408789196611906
1658789425865420,-1.4953841458761872,-0.9460593575952316,0.5798428320745188
1658789425881414,-0.213626306553806,-0.8239871824216607,0.7019150072480898
1658789425897408,1.3733119707026162,-1.0070954451819034,1.0681315327688026
1658789425913402,1.4343480582895154,-1.4343480582895154,1.0681315327688026
1658789425929396,1.0070954451819034,-1.8616006713969,0.7019150072480898
1658789425945390,0.5188067444876197,-1.4343480582895154,0.7629510948347615
1658789425961384,-0.5798428320745188,-1.0070954451819034,0.5798428320745188
1658789425977378,-1.3733119707026162,-0.7019150072480898,0.2746623941404778
1658789425993373,-0.9460593575952316,-0.6408789196611906,0.33569848172737693
1658789426009367,0.213626306553806,-0.9460593575952316,1.1291676203554744
1658789426025361,1.8005645838102282,-0.8239871824216607,1.6174563210497581
1658789426041355,1.0070954451819034,-0.5188067444876197,1.4953841458761872
1658789426057349,-0.2746623941404778,-0.3967345693140487,0.8850232700083325
1658789426073343,-0.8850232700083325,-0.03051804379333589,0.7019150072480898
1658789426089337,-0.7629510948347615,0.15259021896690683,1.0681315327688026
1658789426105331,-0.9460593575952316,-0.03051804379333589,1.3733119707026162
1658789426121325,-0.09155413138023505,-0.09155413138023505,1.5564202334630863
1658789426137319,0.9460593575952316,-0.213626306553806,1.739528496223329
1658789426153313,-0.03051804379333589,-0.3967345693140487,1.8616006713969
1658789426169250,-0.8850232700083325,-0.7629510948347615,1.6174563210497581
1658789426185244,-0.213626306553806,-0.8850232700083325,1.4343480582895154
1658789426201237,-0.213626306553806,-1.2512397955290453,1.0681315327688026
1658789426217231,-1.6784924086366573,-1.8616006713969,0.7629510948347615
1658789426233224,-1.0070954451819034,-2.3498893720911838,0.03051804379333589
1658789426249218,0.5798428320745188,-2.7161058976118966,-0.09155413138023505
1658789426265212,0.7629510948347615,-3.0212863355459376,0.03051804379333589
1658789426281205,-1.3733119707026162,-3.7537193865873633,0.15259021896690683
1658789426297199,-2.04470893415737,-4.486152437628789,0.09155413138023505
1658789426313192,-1.2512397955290453,-5.157549401083315,-0.3967345693140487
1658789426329186,-0.9460593575952316,-6.012054627298312,-0.8239871824216607
1658789426345180,-2.410925459678083,-7.11070420386045,-2.166781109330941
1658789426361173,-4.180971999694748,-8.392462043183059,-3.3875028610666504
1658789426377167,-4.242008087281647,-8.758678568703772,-3.936827649347606
1658789426393160,-2.5940337224383256,-9.430075532158298,-4.058899824521177
1658789426409154,-1.6784924086366573,-10.772869459067579,-4.119935912108076
1658789426425148,-1.1902037079423735,-12.298771648737329,-4.42511635004189
1658789426441141,0.7019150072480898,-13.702601663233281,-4.42511635004189
1658789426457135,1.3733119707026162,-14.679179064621849,-4.669260700389032
1658789426473128,-1.3733119707026162,-16.32715342946517,-5.706874189364498
1658789426489105,-6.195162890058782,-17.975127794308264,-6.683451590753066
1658789426505098,-8.51453421835663,-18.76859693293659,-7.354848554207592
1658789426521092,-7.049668116273779,-19.317921721217544,-7.598992904554734
1658789426537086,-4.9134050507361735,-20.416571297779683,-8.33142595559616
1658789426553079,-4.730296787975931,-22.247653925383247,-9.308003356984727
1658789426569073,-4.730296787975931,-23.529411764705856,-9.55214770733187
1658789426585066,-3.0823224231326094,-24.01770046540014,-9.124895094224485
1658789426601060,-2.532997634851654,-23.773556115052997,-8.575570305943302
1658789426617054,-3.692683299000464,-23.7125200274661,-8.270389868009488
1658789426633047,-6.134126802471883,-23.7125200274661,-8.758678568703772
1658789426649041,-6.8665598535133086,-23.89562829022657,-8.45349813076973
1658789426665034,-5.3406576638437855,-23.95666437781324,-7.721065079728305
1658789426681028,-4.058899824521177,-24.13977264057371,-7.232776379034021
1658789426697022,-5.584802014190927,-23.83459220263967,-6.744487678339738
1658789426713015,-6.073090714885211,-23.590447852292527,-6.134126802471883
1658789426729009,-3.5095750362402214,-23.773556115052997,-5.401693751430457
1658789426745002,0.09155413138023505,-24.689097428854666,-4.730296787975931
1658789426760996,0.2746623941404778,-25.726710917830133,-4.486152437628789
1658789426776990,-2.04470893415737,-27.191577019912984,-5.706874189364498
1658789426792983,-2.288853284504512,-28.107118333714652,-6.927595941100208
1658789426808960,-2.3498893720911838,-29.08369573510322,-7.660028992141633
1658789426824953,-3.3875028610666504,-29.999237048905115,-8.087281605249018
1658789426840947,-6.622415503166167,-30.914778362706784,-8.880750743877343
1658789426856940,-6.622415503166167,-31.280994888227724,-8.941786831464015
1658789426872934,-4.242008087281647,-31.280994888227724,-7.721065079728305
1658789426888928,-0.33569848172737693,-31.769283588922008,-6.927595941100208
1658789426904921,-1.1291676203554744,-32.928969253071045,-7.598992904554734
1658789426920915,-2.4719615472647547,-33.66140230411247,-7.782101167315204
1658789426936908,-2.4719615472647547,-33.90554665445961,-7.598992904554734
1658789426952902,-0.9460593575952316,-32.928969253071045,-6.683451590753066
1658789426968896,-3.6316472114137923,-32.867933165484146,-6.8665598535133086
1658789426984889,-7.049668116273779,-33.35622186617843,-7.476920729381163
1658789427000883,-7.354848554207592,-33.051041428244616,-6.683451590753066
1658789427016876,-4.364080262455218,-32.13550011444272,-4.791332875562603
1658789427032870,-1.2512397955290453,-32.50171663996343,-3.997863736934505
1658789427048864,-2.532997634851654,-34.57694361791414,-5.3406576638437855
1658789427064857,0.09155413138023505,-36.89631494621199,-6.683451590753066
1658789427080851,4.180971999694748,-38.78843366140245,-7.537956816968062
1658789427096844,4.119935912108076,-41.901274128328396,-10.772869459067579
1658789427112838,-3.0823224231326094,-44.647898069733856,-14.190890363927565
1658789427128784,-8.087281605249018,-46.72312504768456,-16.44922560463874
1658789427144777,-10.528725108720437,-48.371099412527656,-17.853055619134693
1658789427160770,-10.711833371480907,-49.40871290150312,-17.975127794308264
1658789427176763,-13.275349050125897,-50.934615091172645,-19.80621042191183
1658789427192756,-15.533684290836845,-52.216372930495254,-21.45418478675515
1658789427208749,-12.481879911497572,-52.277409018081926,-20.477607385366582
1658789427224743,-6.134126802471883,-51.97222858014811,-18.402380407415876
1658789427240736,-2.166781109330941,-52.09430075532168,-17.181658655680167
1658789427256729,-1.1902037079423735,-52.94880598153668,-17.303730830853738
1658789427272722,-2.8992141603723667,-53.25398641947049,-17.059586480506596
1658789427288715,-2.7771419851987957,-53.559166857404534,-17.120622568093268
1658789427304708,-4.486152437628789,-54.596780346379774,-18.76859693293659
1658789427320701,-10.040436408026153,-56.54993514915691,-21.39314869916825
1658789427336694,-15.411612115663274,-57.465476462958804,-22.73594262607753
1658789427352687,-16.26611734187827,-57.34340428778523,-24.07873655298681
1658789427368681,-15.045395590142562,-57.282368200198334,-26.031891355763946
1658789427384674,-12.970168612191856,-57.16029602502476,-26.58121614404513
1658789427400667,-14.312962539101136,-56.67200732433048,-25.848783093003703
1658789427416660,-9.491111619745197,-55.3902494850081,-23.590447852292527
1658789427432653,-5.645838101777599,-55.08506904707406,-21.69832913710229
1658789427448608,-5.706874189364498,-54.779888609140244,-20.660715648126825
1658789427464601,-6.805523765926637,-53.19295033188382,-18.524452582589447
1658789427480594,-8.148317692835917,-51.91119249256121,-16.754406042572555
1658789427496587,-9.979400320439481,-51.42290379186693,-15.777828641183987
1658789427512580,-8.026245517662346,-50.56839856565193,-14.98435950255589
1658789427528574,-10.345616845960194,-51.17875944151979,-15.533684290836845
1658789427544567,-8.270389868009488,-52.3994811932555,-16.937514305333025
1658789427560560,-5.462729839017356,-52.52155336842907,-18.280308232242305
1658789427576553,-2.7771419851987957,-52.277409018081926,-19.1348134584573
1658789427592546,-7.843137254901876,-52.155336842908355,-19.562066071564686
1658789427608539,-13.824673838406852,-52.3994811932555,-20.660715648126825
1658789427624532,-15.655756466010416,-51.36186770428026,-20.17242694743254
1658789427640525,-12.787060349431613,-50.44632639047836,-18.097199969481835
1658789427656519,-10.284580758373295,-50.6904707408255,-15.960936903944457
1658789427672512,-9.491111619745197,-51.36186770428026,-14.618142977035177
1658789427688505,-10.040436408026153,-51.91119249256121,-15.289539940489703
1658789427704498,-4.180971999694748,-51.239795529106686,-16.08300907911803
1658789427720491,-0.2746623941404778,-49.34767681391622,-15.411612115663274
1658789427736484,-0.2746623941404778,-49.04249637598241,-15.533684290836845
1658789427752477,-0.5798428320745188,-49.10353246356908,-15.594720378423744
1658789427768463,-0.5798428320745188,-50.01907377737098,-17.79201953154802
1658789427784456,-1.6174563210497581,-50.6904707408255,-19.684138246738257
1658789427800449,-5.828946364538069,-49.713893339436936,-18.58548867017612
1658789427816442,-13.092240787365427,-49.04249637598241,-17.36476691844041
1658789427832435,-16.26611734187827,-46.78416113527123,-15.533684290836845
1658789427848428,-13.45845731288614,-44.464789806973386,-13.519493400473038
1658789427864421,-10.711833371480907,-43.9765011062791,-12.298771648737329
1658789427880415,-11.383230334935433,-45.13618677042814,-12.115663385976859
1658789427896408,-9.55214770733187,-44.464789806973386,-10.467689021133765
1658789427912401,-2.655069810025225,-43.305104142824575,-10.223544670786623
1658789427928394,4.974441138323073,-42.02334630350197,-10.467689021133765
1658789427944387,5.889982452124741,-43.121995880064105,-12.054627298390187
1658789427960380,1.3122758831159445,-44.58686198214696,-15.960936903944457
1658789427976373,-1.1291676203554744,-43.73235675593196,-16.08300907911803
1658789427992366,-5.76791027695117,-44.037537193866,-16.388189517051842
1658789428008360,-9.796292057679011,-43.9765011062791,-17.36476691844041
1658789428024353,-12.4208438239109,-43.305104142824575,-17.48683909361398
1658789428040346,-9.246967269398056,-42.51163500419625,-17.66994735637445
1658789428056339,-6.134126802471883,-42.57267109178315,-18.95170519569683
1658789428072332,-1.1902037079423735,-42.57267109178315,-19.501029983978015
1658789428088287,1.1902037079423735,-40.86366063935316,-16.44922560463874
1658789428104280,4.42511635004189,-38.91050583657602,-13.153276874952326
1658789428120273,3.6316472114137923,-38.72739757381555,-13.092240787365427
1658789428136266,0.6408789196611906,-38.97154192416269,-14.679179064621849
1658789428152259,-4.42511635004189,-38.30014496070817,-14.435034714274707
1658789428168253,-10.101472495613052,-36.652170595864845,-13.031204699778755
1658789428184246,-11.810482948043045,-35.85870145723675,-13.092240787365427
1658789428200239,-11.749446860456146,-35.370412756542464,-13.946746013580423
1658789428216232,-6.012054627298312,-35.12626840619532,-13.397421225299468
1658789428232225,-1.739528496223329,-35.12626840619532,-12.542915999084471
1658789428248218,2.9602502479590385,-35.73662928206318,-11.261158159761862
1658789428264211,2.7161058976118966,-36.4080262455177,-11.20012207217519
1658789428280204,-1.983672846570471,-36.16388189517056,-11.322194247348762
1658789428296198,-7.11070420386045,-34.271763179980326,-11.871519035629717
1658789428312191,-8.819714656290444,-31.952391851682478,-9.67421988250544
1658789428328184,-9.796292057679011,-32.25757228961629,-9.124895094224485
1658789428344177,-9.430075532158298,-33.5393301289389,-10.89494163424115
1658789428360170,-8.575570305943302,-33.17311360341819,-10.223544670786623
1658789428376163,-9.185931181811156,-32.25757228961629,-9.613183794918768
1658789428392156,-6.561379415579495,-32.31860837720319,-10.955977721828049
1658789428408081,-4.242008087281647,-32.56275272755033,-12.603952086671143
1658789428424073,0.6408789196611906,-32.19653620202962,-12.054627298390187
1658789428440066,2.9602502479590385,-31.647211413748437,-9.246967269398056
1658789428456059,1.8005645838102282,-32.07446402685605,-7.537956816968062
1658789428472051,-1.8616006713969,-32.13550011444272,-8.392462043183059
1658789428488044,-4.852368963149502,-30.73167009994654,-8.51453421835663
1658789428504037,-4.119935912108076,-27.92401007095441,-6.073090714885211
1658789428520029,-2.7161058976118966,-27.069504844739413,-4.9134050507361735
1658789428536022,-3.0212863355459376,-27.557793545433697,-5.706874189364498
1658789428552014,-4.669260700389032,-26.337071793697987,-4.974441138323073
1658789428568007,-3.997863736934505,-24.322880903333953,-4.791332875562603
1658789428584000,-0.33569848172737693,-23.651483939879427,-5.096513313496644
1658789428599992,4.119935912108076,-23.224231326771815,-3.570611123826893
1658789428615985,8.575570305943302,-23.346303501945386,-2.288853284504512
1658789428631978,11.01701380941472,-23.407339589532285,-1.8616006713969
1658789428647970,11.139085984588291,-23.163195239185143,-1.4343480582895154
1658789428663963,10.284580758373295,-24.13977264057371,-2.227817196917613
1658789428679956,2.4719615472647547,-25.665674830243233,-4.364080262455218
1658789428695948,-7.476920729381163,-25.726710917830133,-6.8665598535133086
1658789428711941,-10.345616845960194,-23.285267414358714,-6.622415503166167
1658789428727935,-11.627374685282575,-21.881437399862534,-5.523765926604028
1658789428743928,-11.810482948043045,-21.57625696192872,-5.706874189364498
1658789428759921,-11.566338597695903,-22.003509575036105,-6.500343327992596
1658789428775913,-9.430075532158298,-21.33211261158158,-5.096513313496644
1658789428791906,-2.5940337224383256,-20.11139085984587,-3.875791561760934
1658789428807899,4.9134050507361735,-19.562066071564686,-2.5940337224383256
1658789428823891,6.439307240405924,-19.9282825970854,-2.288853284504512
1658789428839884,5.462729839017356,-19.80621042191183,-2.9602502479590385
1658789428855877,4.364080262455218,-17.975127794308264,-1.8616006713969
1658789428871869,4.119935912108076,-16.998550392919697,-1.5564202334630863
1658789428887862,3.5095750362402214,-18.036163881895163,-2.655069810025225
1658789428903854,0.213626306553806,-19.073777370870403,-3.692683299000464
1658789428919847,-1.983672846570471,-19.684138246738257,-4.42511635004189
1658789428935840,-2.8381780727854675,-19.501029983978015,-4.9134050507361735
1658789428951832,-2.3498893720911838,-18.82963302052326,-5.462729839017356
1658789428967825,-1.0070954451819034,-18.646524757763018,-5.889982452124741
1658789428983818,1.4953841458761872,-18.158236057068734,-6.439307240405924
1658789428999810,4.669260700389032,-17.120622568093268,-5.95101853971164
1658789429015803,8.392462043183059,-16.2050812542916,-4.974441138323073
1658789429031796,7.782101167315204,-15.716792553597315,-4.119935912108076
1658789429047760,1.8005645838102282,-16.02197299153113,-5.157549401083315
1658789429063752,-3.2043945983061803,-14.435034714274707,-5.95101853971164
1658789429079745,-7.660028992141633,-11.627374685282575,-4.42511635004189
1658789429095738,-9.67421988250544,-10.040436408026153,-3.6316472114137923
1658789429111730,-9.613183794918768,-9.063859006637585,-3.2043945983061803
1658789429127723,-8.697642481116873,-8.819714656290444,-3.3875028610666504
1658789429143715,-5.401693751430457,-7.904173342488775,-3.2654306858930795
1658789429159708,-1.1902037079423735,-5.706874189364498,-1.2512397955290453
1658789429175701,3.814755474174035,-4.42511635004189,0.8239871824216607
1658789429191693,3.7537193865873633,-3.997863736934505,0.7019150072480898
1658789429207686,1.9226367589837992,-3.7537193865873633,-0.2746623941404778
1658789429223679,-1.739528496223329,-2.410925459678083,0.213626306553806
1658789429239671,-3.814755474174035,-0.3967345693140487,1.0681315327688026
1658789429255664,-1.983672846570471,1.2512397955290453,1.3733119707026162
1658789429271657,1.0681315327688026,1.8005645838102282,1.2512397955290453
1658789429287649,2.166781109330941,2.5940337224383256,1.1902037079423735
1658789429303642,2.655069810025225,3.814755474174035,2.04470893415737
1658789429319635,3.1433585107195086,5.3406576638437855,3.570611123826893
1658789429335627,3.3264667734797513,6.500343327992596,5.3406576638437855
1658789429351620,2.166781109330941,5.889982452124741,3.997863736934505
1658789429367584,-0.09155413138023505,6.317235065232353,3.0823224231326094
1658789429383576,-1.983672846570471,6.683451590753066,2.9602502479590385
1658789429399569,-3.997863736934505,7.354848554207592,3.0212863355459376
1658789429415562,-5.706874189364498,8.45349813076973,2.5940337224383256
1658789429431554,-5.828946364538069,10.101472495613052,2.3498893720911838
1658789429447547,-6.439307240405924,11.810482948043045,2.7161058976118966
1658789429463540,-7.11070420386045,12.726024261844714,2.5940337224383256
1658789429479532,-5.279621576256886,14.251926451514464,4.058899824521177
1658789429495525,-0.2746623941404778,16.08300907911803,6.561379415579495
1658789429511518,5.0354772259097444,17.48683909361398,8.45349813076973
1658789429527510,7.4158846417944915,17.54787518120088,8.819714656290444
1658789429543503,5.645838101777599,16.876478217746126,8.209353780422589
1658789429559496,3.1433585107195086,16.510261692225413,7.354848554207592
1658789429575488,0.213626306553806,17.059586480506596,7.17174029144735
1658789429591481,-0.2746623941404778,17.303730830853738,6.317235065232353
1658789429607473,-0.33569848172737693,14.679179064621849,4.42511635004189
1658789429623466,-2.9602502479590385,11.444266422522333,1.4343480582895154
1658789429639459,-3.997863736934505,10.223544670786623,-0.15259021896690683
1658789429655451,-4.119935912108076,11.20012207217519,0.213626306553806
1658789429671444,-2.4719615472647547,11.871519035629717,0.5188067444876197
1658789429687439,-1.3733119707026162,12.909132524605184,0.45777065690094787
1658789429703431,-1.2512397955290453,13.336385137712568,1.0681315327688026
1658789429719424,3.0212863355459376,14.557106889448278,3.570611123826893
1658789429735417,9.979400320439481,15.960936903944457,6.8665598535133086
1658789429751409,13.214312962538997,15.228503852903032,7.2938124666209205
1658789429767402,11.322194247348762,14.190890363927565,7.232776379034021
1658789429783394,7.2938124666209205,13.76363775082018,6.195162890058782
1658789429799387,3.997863736934505,15.10643167772946,5.584802014190927
1658789429815380,-0.15259021896690683,15.594720378423744,4.60822461280236
1658789429831372,-4.180971999694748,15.289539940489703,2.655069810025225
1658789429847365,-7.232776379034021,14.679179064621849,1.3122758831159445
1658789429863358,-7.476920729381163,14.92332341496899,1.8005645838102282
1658789429879350,-4.852368963149502,16.32715342946517,3.0823224231326094
1658789429895343,0.45777065690094787,17.60891126878755,4.42511635004189
1658789429911336,4.547188525215461,18.219272144655406,3.997863736934505
1658789429927328,5.462729839017356,18.036163881895163,3.3875028610666504
1658789429943321,4.242008087281647,19.256885633630873,4.303044174868319
1658789429959313,4.242008087281647,21.39314869916825,6.622415503166167
1658789429975306,4.119935912108076,22.919050888838,8.026245517662346
1658789429991299,3.6316472114137923,21.759365224688963,6.9886320286868795
1658789430007263,0.2746623941404778,20.35553521019301,5.706874189364498
1658789430023255,-3.2043945983061803,20.599679560540153,6.073090714885211
1658789430039248,-2.7161058976118966,23.346303501945386,8.941786831464015
1658789430055241,-0.3967345693140487,23.773556115052997,9.918364232852582
1658789430071233,2.5940337224383256,22.980086976424673,8.33142595559616
1658789430087226,0.3967345693140487,22.186617837796575,7.721065079728305
1658789430103219,-1.1291676203554744,22.67490653849086,8.209353780422589
1658789430119211,-0.5188067444876197,24.994277866788707,10.345616845960194
1658789430135204,-0.213626306553806,25.787747005416804,11.688410772869474
1658789430151197,0.33569848172737693,25.17738612954895,10.284580758373295
1658789430167189,-1.6784924086366573,25.665674830243233,10.223544670786623
1658789430183182,-1.6174563210497581,27.80193789578084,11.383230334935433
1658789430199175,2.3498893720911838,30.30441748683893,13.64156557564661
1658789430215167,4.42511635004189,30.243381399252257,13.824673838406852
1658789430231160,5.706874189364498,29.694056610971074,12.115663385976859
1658789430247152,2.7161058976118966,29.877164873731545,10.772869459067579
1658789430263145,-2.5940337224383256,30.914778362706784,11.383230334935433
1658789430279138,-3.997863736934505,33.23414969100463,13.214312962538997
1658789430295130,-3.3264667734797513,34.14969100480653,13.153276874952326
1658789430311123,-2.655069810025225,33.600366216525344,10.589761196307336
1658789430327087,-3.7537193865873633,33.722438391698915,9.246967269398056
1658789430343080,-2.532997634851654,35.85870145723652,10.650797283894008
1658789430359072,2.3498893720911838,38.66636148622865,14.496070801861606
1658789430375065,5.279621576256886,39.032578011749365,14.618142977035177
1658789430391058,8.148317692835917,38.910505836575794,13.275349050125897
1658789430407050,5.95101853971164,39.032578011749365,13.214312962538997
1658789430423043,2.4719615472647547,40.497444113832216,14.312962539101136
1658789430439036,0.2746623941404778,41.96231021591507,15.045395590142562
1658789430455028,-1.2512397955290453,42.32852674143578,14.251926451514464
1658789430471021,-3.2654306858930795,42.26749065384888,12.664988174258042
1658789430487013,-3.814755474174035,43.42717631799792,11.749446860456146
1658789430503006,-2.105745021744042,44.403753719386486,12.664988174258042
1658789430518999,1.3733119707026162,45.319295033188155,13.58052948805971
1658789430534991,6.195162890058782,45.99069199664291,12.298771648737329
1658789430550984,7.11070420386045,46.17380025940315,10.284580758373295
1658789430566977,6.683451590753066,46.723125047684334,11.566338597695903
1658789430582969,4.547188525215461,47.82177462424647,15.228503852903032
1658789430598962,4.364080262455218,49.408712901502895,17.48683909361398
1658789430614955,-0.09155413138023505,50.20218204013099,17.730983443961122
1658789430630947,-4.9134050507361735,51.11772335393289,17.54787518120088
1658789430646911,-2.5940337224383256,53.43709468223051,21.51522087434182
1658789430662903,2.5940337224383256,52.948805981536225,22.49179827573039
1658789430678896,5.76791027695117,51.60601205462717,19.378957808804444
1658789430694888,3.692683299000464,50.263218127717664,16.26611734187827
1658789430710880,-2.5940337224383256,51.60601205462717,16.2050812542916
1658789430726872,-2.9602502479590385,54.23056382085906,20.05035477225897
1658789430742864,-2.8381780727854675,54.535744258792874,21.637293049515392
1658789430758856,-1.1291676203554744,51.78912031738764,20.599679560540153
1658789430774849,-0.5188067444876197,49.53078507667624,20.843823910887295
1658789430790841,2.8381780727854675,48.371099412527656,22.8580148012511
1658789430806833,2.5940337224383256,46.540016784923864,21.942473487449433
1658789430822825,3.692683299000464,45.380331120775054,19.1348134584573
1658789430838817,3.814755474174035,44.7089341573203,16.26611734187827
1658789430854809,-1.8616006713969,43.73235675593173,14.373998626688035
1658789430870802,-2.9602502479590385,43.9154650186922,14.312962539101136
1658789430886794,0.3967345693140487,43.060959792477206,14.373998626688035
1658789430902786,4.9134050507361735,40.74158846417936,12.787060349431613
1658789430918778,4.730296787975931,38.60532539864175,11.261158159761862
1658789430934770,1.8616006713969,38.36118104829461,10.589761196307336
1658789430950762,-0.15259021896690683,39.76501106279079,12.359807736324
1658789430966766,-0.8239871824216607,39.64293888761722,13.214312962538997
1658789430982759,2.227817196917613,38.54428931105508,13.092240787365427
1658789430998751,-0.09155413138023505,37.26253147173247,11.566338597695903
1658789431014744,-0.33569848172737693,37.2014953841458,11.505302510109004
1658789431030737,1.1291676203554744,37.44563973449294,14.251926451514464
1658789431046729,1.6784924086366573,36.591134508277946,15.045395590142562
1658789431062722,5.157549401083315,36.04180971999676,13.519493400473038
1658789431078714,2.04470893415737,35.30937666895534,12.359807736324
1658789431094707,1.0681315327688026,34.2717631799801,11.01701380941472
1658789431110700,3.570611123826893,33.783474479285815,11.139085984588291
1658789431126692,7.11070420386045,32.562752727550105,10.467689021133765
1658789431142685,7.17174029144735,30.54856183718607,7.904173342488775
1658789431158678,3.997863736934505,29.816128786144645,7.2938124666209205
1658789431174670,3.875791561760934,29.938200961318216,7.721065079728305
1658789431190663,4.242008087281647,28.778515297169406,8.087281605249018
1658789431206656,4.180971999694748,27.130540932326085,6.134126802471883
1658789431222648,1.5564202334630863,26.153963530937517,4.9134050507361735
1658789431238641,-1.1902037079423735,26.886396581978943,6.622415503166167
1658789431254634,1.3733119707026162,27.80193789578084,9.430075532158298
1658789431270626,3.692683299000464,27.252613107499656,9.979400320439481
1658789431286590,7.2938124666209205,26.459143968871558,8.6366063935302
1658789431302582,8.209353780422589,25.848783093003703,8.819714656290444
1658789431318575,10.162508583199724,25.48256656748299,9.613183794918768
1658789431334567,9.73525597009234,24.811169604028237,9.063859006637585
1658789431350559,7.17174029144735,24.505989166094423,7.782101167315204
1658789431366551,3.570611123826893,23.773556115052997,6.256198977645454
1658789431382543,-2.166781109330941,23.83459220263967,5.828946364538069
1658789431398535,-3.3875028610666504,24.872205691615136,7.11070420386045
1658789431414528,-0.7629510948347615,25.17738612954895,7.232776379034021
1658789431430520,0.9460593575952316,24.567025253681095,6.927595941100208
1658789431446512,3.0823224231326094,24.383916990920852,7.4158846417944915
1658789431462504,4.730296787975931,25.23842221713585,8.51453421835663
1658789431478496,5.76791027695117,26.153963530937517,9.430075532158298
1658789431494488,5.706874189364498,25.909819180590375,8.392462043183059
1658789431510481,3.2043945983061803,25.29945830472252,7.904173342488775
1658789431526473,1.3122758831159445,25.60463874265656,9.063859006637585
1658789431542465,0.8850232700083325,25.60463874265656,10.467689021133765
1658789431558457,2.5940337224383256,25.60463874265656,9.918364232852582
1658789431574449,4.242008087281647,26.58121614404513,9.369039444571627
1658789431590441,3.875791561760934,26.764324406805372,8.6366063935302
1658789431606384,3.2043945983061803,26.764324406805372,9.73525597009234
1658789431622376,3.3264667734797513,26.337071793697987,10.711833371480907
1658789431638368,2.8992141603723667,26.276035706111088,10.772869459067579
1658789431654360,1.4343480582895154,27.008468757152514,11.505302510109004
1658789431670353,-0.09155413138023505,27.86297398336751,13.275349050125897
1658789431686345,1.6784924086366573,27.92401007095441,13.275349050125897
1658789431702337,1.1291676203554744,27.86297398336751,13.214312962538997
1658789431718329,4.547188525215461,28.473334859235365,12.787060349431613
1658789431734321,5.76791027695117,28.778515297169406,13.58052948805971
1658789431750313,6.805523765926637,28.229190508888223,13.58052948805971
1658789431766306,9.55214770733187,27.557793545433697,13.153276874952326
1658789431782298,11.627374685282575,27.374685282673227,12.787060349431613
1658789431798290,10.345616845960194,28.16815442130155,12.909132524605184
1658789431814282,8.758678568703772,28.778515297169406,13.58052948805971
1658789431830274,5.889982452124741,28.290226596475122,13.519493400473038
1658789431846266,2.655069810025225,27.130540932326085,12.787060349431613
1658789431862259,2.288853284504512,27.374685282673227,13.336385137712568
1658789431878251,-0.213626306553806,27.130540932326085,13.58052948805971
1658789431894243,-0.2746623941404778,27.008468757152514,13.214312962538997
1658789431910235,2.532997634851654,26.031891355763946,12.298771648737329
1658789431926239,6.805523765926637,25.48256656748299,11.444266422522333
1658789431942231,5.95101853971164,24.933241779201808,11.871519035629717
1658789431958223,5.0354772259097444,24.200808728160382,13.031204699778755
1658789431974215,5.706874189364498,23.285267414358714,13.214312962538997
1658789431990207,7.660028992141633,23.285267414358714,12.970168612191856
1658789432006199,8.697642481116873,22.67490653849086,12.23773556115043
1658789432022192,6.195162890058782,21.51522087434182,11.627374685282575
1658789432038184,4.669260700389032,20.17242694743254,11.01701380941472
1658789432054176,3.814755474174035,19.1348134584573,10.589761196307336
1658789432070168,3.7537193865873633,18.89066910811016,10.284580758373295
1658789432086160,1.6174563210497581,19.256885633630873,10.345616845960194
1658789432102152,-1.1291676203554744,19.562066071564686,10.772869459067579
1658789432118145,0.3967345693140487,19.623102159151586,11.871519035629717
1658789432134137,0.7019150072480898,18.280308232242305,11.810482948043045
1658789432150129,1.0070954451819034,17.914091706721592,11.688410772869474
1658789432166121,0.9460593575952316,18.158236057068734,12.115663385976859
1658789432182113,-0.3967345693140487,17.66994735637445,12.542915999084471
1658789432198105,0.6408789196611906,16.510261692225413,11.383230334935433
1658789432214098,3.5095750362402214,15.350576028076603,10.345616845960194
1658789432230090,5.523765926604028,14.435034714274707,9.73525597009234
1658789432246063,3.936827649347606,13.092240787365427,8.392462043183059
1658789432262055,-0.5188067444876197,11.871519035629717,7.782101167315204
1658789432278047,-2.655069810025225,11.261158159761862,7.4158846417944915
1658789432294039,-1.9226367589837992,11.261158159761862,7.11070420386045
1658789432310032,-2.227817196917613,10.955977721828049,6.9886320286868795
1658789432326024,-3.3875028610666504,10.772869459067579,7.843137254901876
1658789432342016,-2.04470893415737,11.444266422522333,9.185931181811156
1658789432358008,0.15259021896690683,11.932555123216616,10.223544670786623
1658789432374000,1.739528496223329,11.20012207217519,10.467689021133765
1658789432389992,1.5564202334630863,9.246967269398056,9.613183794918768
1658789432405985,-3.3264667734797513,6.439307240405924,8.392462043183059
1658789432421977,-6.500343327992596,3.875791561760934,6.805523765926637
1658789432437969,-7.660028992141633,1.6784924086366573,4.974441138323073
1658789432453961,-7.782101167315204,-0.9460593575952316,2.288853284504512
1658789432469953,-8.941786831464015,-3.7537193865873633,0.213626306553806
1658789432485945,-8.51453421835663,-6.561379415579495,-0.7629510948347615
1658789432501937,-9.796292057679011,-8.941786831464015,-1.4953841458761872
1658789432517930,-8.758678568703772,-10.650797283894008,-1.8616006713969
1658789432533922,-7.598992904554734,-12.176699473563758,-1.8616006713969
1658789432549914,-7.721065079728305,-14.435034714274707,-1.4953841458761872
1658789432565887,-4.486152437628789,-16.815442130159454,-1.983672846570471
1658789432581879,0.6408789196611906,-19.195849546043974,-2.7771419851987957
1658789432597871,2.8381780727854675,-21.69832913710229,-3.814755474174035
1658789432613864,-2.7161058976118966,-24.505989166094423,-6.195162890058782
1658789432629856,-9.796292057679011,-26.947432669565842,-8.087281605249018
1658789432645848,-13.336385137712568,-29.26680399786369,-9.124895094224485
1658789432661840,-15.472648203250174,-31.403067063401295,-10.528725108720437
1658789432677832,-14.190890363927565,-33.5393301289389,-13.031204699778755
1658789432693824,-12.176699473563758,-35.91973754482342,-14.435034714274707
1658789432709817,-8.6366063935302,-37.68978408484031,-15.289539940489703
1658789432725809,-3.936827649347606,-38.36118104829484,-15.594720378423744
1658789432741801,-1.8616006713969,-38.60532539864198,-15.411612115663274
1658789432757793,-1.739528496223329,-38.91050583657602,-15.228503852903032
1658789432773785,-5.3406576638437855,-39.45983062485698,-14.618142977035177
1658789432789777,-8.6366063935302,-40.558480201419115,-14.435034714274707
1658789432805770,-10.772869459067579,-41.53505760280768,-14.007782101167322
1658789432821762,-11.01701380941472,-42.26749065384911,-14.129854276340893
1658789432837754,-9.002822919050914,-42.51163500419625,-14.80125123979542
1658789432853746,-9.185931181811156,-43.54924849317172,-15.838864728770886
1658789432869738,-8.45349813076973,-44.342717631799815,-16.1440451667047
1658789432885711,-6.317235065232353,-44.647898069733856,-16.32715342946517
1658789432901703,-6.561379415579495,-45.01411459525457,-16.388189517051842
1658789432917696,-7.721065079728305,-45.38033112077528,-16.44922560463874
1658789432933688,-11.383230334935433,-46.54001678492409,-17.79201953154802
1658789432949680,-11.505302510109004,-46.906233310444804,-18.82963302052326
1658789432965672,-5.279621576256886,-46.54001678492409,-18.463416495002548
1658789432981664,-0.15259021896690683,-46.41794460975052,-17.48683909361398
1658789432997656,2.532997634851654,-47.8217746242467,-17.853055619134693
1658789433013649,4.486152437628789,-48.371099412527656,-17.730983443961122
1658789433029641,3.814755474174035,-47.94384679942027,-18.219272144655406
1658789433045633,1.983672846570471,-47.028305485618375,-18.280308232242305
1658789433061625,-1.5564202334630863,-46.84519722285813,-18.280308232242305
1658789433077617,-3.936827649347606,-47.88281071183337,-18.463416495002548
1658789433093609,-7.232776379034021,-49.591821164263365,-19.501029983978015
1658789433109602,-3.997863736934505,-49.95803768978408,-20.17242694743254
1658789433125594,-1.4953841458761872,-49.40871290150312,-19.684138246738257
1658789433141586,-1.9226367589837992,-49.53078507667669,-19.562066071564686
1658789433157578,-1.8005645838102282,-49.16456855115598,-19.317921721217544
1658789433173570,1.1291676203554744,-47.88281071183337,-18.036163881895163
1658789433189562,2.7771419851987957,-46.9672693980317,-16.08300907911803
1658789433205566,0.09155413138023505,-46.60105287251099,-14.496070801861606
1658789433221558,-2.288853284504512,-46.9672693980317,-13.76363775082018
1658789433237550,-5.76791027695117,-46.84519722285813,-13.885709925993751
1658789433253543,-6.500343327992596,-46.29587243457695,-14.435034714274707
1658789433269535,-6.8665598535133086,-45.990691996643136,-15.472648203250174
1658789433285527,-8.026245517662346,-47.150377660791946,-17.730983443961122
1658789433301519,-4.669260700389032,-48.310063324940984,-20.17242694743254
1658789433317511,-0.7629510948347615,-49.16456855115598,-21.69832913710229
1658789433333503,1.2512397955290453,-48.92042420080884,-22.919050888838
1658789433349496,-2.8381780727854675,-48.06591897459384,-22.308690012970146
1658789433365488,-3.7537193865873633,-47.63866636148623,-21.33211261158158
1658789433381480,-3.0212863355459376,-47.211413748378845,-19.80621042191183
1658789433397472,-2.8992141603723667,-46.66208896009766,-18.463416495002548
1658789433413464,-4.42511635004189,-45.62447547112242,-15.777828641183987
1658789433429456,-5.706874189364498,-45.685511558709095,-14.92332341496899
1658789433445449,-5.95101853971164,-45.44136720836195,-15.167467765316132
1658789433461441,-2.3498893720911838,-44.95307850766767,-14.862287327382319
1658789433477433,-2.9602502479590385,-44.464789806973386,-15.716792553597315
1658789433493425,-5.096513313496644,-44.342717631799815,-16.32715342946517
1658789433509417,-5.279621576256886,-43.9765011062791,-16.754406042572555
1658789433525390,-3.1433585107195086,-43.54924849317172,-17.303730830853738
1658789433541382,0.9460593575952316,-43.73235675593196,-18.158236057068734
1658789433557375,-1.0681315327688026,-44.342717631799815,-18.89066910811016
1658789433573367,-4.058899824521177,-43.85442893110553,-18.280308232242305
1658789433589359,-5.95101853971164,-42.26749065384911,-17.303730830853738
1658789433605351,-4.303044174868319,-40.497444113832444,-15.777828641183987
1658789433621343,-2.04470893415737,-40.00915541313816,-13.58052948805971
1658789433637335,-3.0212863355459376,-41.22987716487387,-13.214312962538997
1658789433653328,-4.242008087281647,-41.0467689021134,-13.885709925993751
1658789433669320,-1.4343480582895154,-38.60532539864198,-12.603952086671143
1658789433685312,0.7019150072480898,-36.713206683451745,-9.918364232852582
1658789433701304,0.7019150072480898,-37.38460364690627,-9.918364232852582
1658789433717296,-3.692683299000464,-39.15465018692316,-12.176699473563758
1658789433733288,-9.430075532158298,-40.07019150072483,-13.64156557564661
1658789433749281,-7.537956816968062,-37.3235675593196,-11.871519035629717
1658789433765273,-6.134126802471883,-36.22491798275746,-10.833905546654478
1658789433781265,-6.256198977645454,-36.34699015793103,-12.542915999084471
1658789433797257,-6.439307240405924,-36.591134508278174,-13.58052948805971
1658789433813249,-5.828946364538069,-35.55352101930271,-12.848096437018285
1658789433829241,-1.1291676203554744,-33.5393301289389,-10.528725108720437
1658789433845214,1.739528496223329,-32.19653620202962,-7.721065079728305
1658789433861207,-1.0681315327688026,-32.31860837720319,-6.805523765926637
1658789433877199,-4.9134050507361735,-31.342030975814623,-5.645838101777599
1658789433893191,-7.476920729381163,-29.449912260623933,-4.791332875562603
1658789433909183,-6.561379415579495,-27.80193789578084,-3.570611123826893
1658789433925175,-2.5940337224383256,-28.107118333714652,-3.5095750362402214
1658789433941167,-0.6408789196611906,-29.816128786144645,-5.95101853971164
1658789433957160,1.5564202334630863,-31.403067063401295,-8.941786831464015
1658789433973152,2.166781109330941,-30.792706187533213,-8.45349813076973
1658789433989144,0.5188067444876197,-30.670634012359642,-9.613183794918768
1658789434005136,-0.8239871824216607,-30.914778362706784,-10.833905546654478
1658789434021128,-0.33569848172737693,-31.952391851682478,-12.848096437018285
1658789434037120,-4.242008087281647,-33.41725795376533,-15.777828641183987
1658789434053113,-11.20012207217519,-33.29518577859176,-15.350576028076603
1658789434069105,-9.308003356984727,-30.975814450293683,-12.298771648737329
1658789434085097,-3.2654306858930795,-30.4875257495994,-8.941786831464015
1658789434101089,3.2043945983061803,-31.952391851682478,-9.430075532158298
1658789434117081,4.42511635004189,-34.57694361791414,-12.298771648737329
1658789434133073,1.0681315327688026,-35.73662928206318,-13.45845731288614
1658789434149066,-2.288853284504512,-34.94316014343485,-13.64156557564661
1658789434165069,-3.997863736934505,-33.35622186617843,-13.397421225299468
1658789434181061,-6.683451590753066,-32.745860990310575,-14.618142977035177
1658789434197054,-11.688410772869474,-33.17311360341819,-15.777828641183987
1658789434213046,-11.261158159761862,-32.99000534065772,-14.251926451514464
1658789434229038,-7.4158846417944915,-32.745860990310575,-12.23773556115043
1658789434245030,-1.9226367589837992,-32.623788815137004,-11.810482948043045
1658789434261022,2.04470893415737,-32.01342793926915,-12.481879911497572
1658789434277014,3.3264667734797513,-31.769283588922008,-12.542915999084471
1658789434293007,2.166781109330941,-31.89135576409558,-12.787060349431613
1658789434308999,0.7019150072480898,-30.914778362706784,-11.566338597695903
1658789434324991,0.3967345693140487,-28.839551384756078,-9.73525597009234
1658789434340983,1.0681315327688026,-27.98504615854108,-9.55214770733187
1658789434356975,1.1291676203554744,-27.98504615854108,-9.979400320439481
1658789434372967,4.730296787975931,-26.82536049439227,-8.209353780422589
1658789434388960,7.11070420386045,-26.153963530937517,-7.17174029144735
1658789434404952,9.002822919050914,-24.383916990920852,-5.157549401083315
1658789434420944,10.772869459067579,-24.628061341267994,-4.730296787975931
1658789434436936,9.124895094224485,-25.116350041962278,-4.364080262455218
1658789434452928,5.523765926604028,-26.153963530937517,-4.60822461280236
1658789434468920,1.8616006713969,-26.092927443350845,-4.364080262455218
1658789434484893,-3.814755474174035,-25.36049439230942,-4.119935912108076
1658789434500886,-7.537956816968062,-24.26184481574728,-5.401693751430457
1658789434516878,-5.76791027695117,-22.369726100556818,-4.730296787975931
1658789434532870,-1.6174563210497581,-21.759365224688963,-3.6316472114137923
1658789434548862,6.012054627298312,-21.942473487449433,-3.0823224231326094
1658789434564854,11.810482948043045,-22.552834363317288,-1.3733119707026162
1658789434580846,11.566338597695903,-23.102159151598244,-0.213626306553806
1658789434596839,11.383230334935433,-21.759365224688963,0.5798428320745188
1658789434612831,10.284580758373295,-20.23346303501944,1.8616006713969
1658789434628823,7.232776379034021,-20.477607385366582,1.5564202334630863
1658789434644815,5.401693751430457,-21.942473487449433,-0.213626306553806
1658789434660807,-0.2746623941404778,-24.01770046540014,-2.532997634851654
1658789434676799,-4.058899824521177,-24.07873655298681,-2.5940337224383256
1658789434692792,-4.058899824521177,-22.49179827573039,-1.6784924086366573
1658789434708784,-0.7019150072480898,-22.064545662623004,-0.8850232700083325
1658789434724776,2.166781109330941,-23.163195239185143,-2.410925459678083
1658789434740768,3.0823224231326094,-25.05531395437538,-4.180971999694748
1658789434756760,7.049668116273779,-24.750133516441565,-3.936827649347606
1658789434772752,8.51453421835663,-23.346303501945386,-1.1902037079423735
1658789434788745,8.33142595559616,-22.186617837796575,0.45777065690094787
1658789434804718,6.195162890058782,-21.51522087434182,0.15259021896690683
1658789434820710,3.814755474174035,-21.637293049515392,-0.33569848172737693
1658789434836702,1.0681315327688026,-21.759365224688963,-1.1902037079423735
1658789434852694,0.213626306553806,-21.759365224688963,-1.983672846570471
1658789434868686,0.09155413138023505,-20.35553521019301,-2.04470893415737
1658789434884678,1.6784924086366573,-19.256885633630873,-2.532997634851654
1658789434900671,3.936827649347606,-18.70756084534969,-3.0823224231326094
1658789434916663,5.096513313496644,-18.219272144655406,-3.3875028610666504
1658789434932655,3.2043945983061803,-17.48683909361398,-2.7771419851987957
1658789434948647,2.9602502479590385,-15.899900816357558,-0.8239871824216607
1658789434964639,5.2185854886702145,-14.007782101167322,1.4953841458761872
1658789434980631,8.880750743877343,-13.824673838406852,2.7161058976118966
1658789434996624,10.467689021133765,-14.92332341496899,1.3733119707026162
1658789435012616,10.955977721828049,-15.594720378423744,-0.213626306553806
1658789435028608,8.758678568703772,-14.862287327382319,-0.03051804379333589
1658789435044600,4.242008087281647,-14.251926451514464,-0.2746623941404778
1658789435060592,-1.4343480582895154,-13.702601663233281,-1.5564202334630863
1658789435076584,-3.3875028610666504,-12.970168612191856,-1.983672846570471
1658789435092577,-2.227817196917613,-12.481879911497572,-1.0681315327688026
1658789435108569,-1.9226367589837992,-13.397421225299468,-1.6174563210497581
1658789435124542,-1.983672846570471,-13.275349050125897,-1.1902037079423735
1658789435140534,0.5188067444876197,-11.810482948043045,-0.15259021896690683
1658789435156526,3.692683299000464,-10.467689021133765,0.3967345693140487
1658789435172518,6.317235065232353,-10.040436408026153,0.3967345693140487
1658789435188511,5.0354772259097444,-10.650797283894008,0.5188067444876197
1658789435204503,3.814755474174035,-10.406652933546866,0.9460593575952316
1658789435220495,4.60822461280236,-9.063859006637585,2.410925459678083
1658789435236487,5.0354772259097444,-8.148317692835917,3.1433585107195086
1658789435252479,4.180971999694748,-9.246967269398056,2.7771419851987957
1658789435268471,-1.2512397955290453,-11.322194247348762,1.739528496223329
1658789435284464,-2.8381780727854675,-12.359807736324,1.739528496223329
1658789435300456,-4.486152437628789,-11.688410772869474,1.9226367589837992
1658789435316448,-7.782101167315204,-10.955977721828049,0.7629510948347615
1658789435332440,-8.026245517662346,-10.223544670786623,-0.2746623941404778
1658789435348432,-6.500343327992596,-9.369039444571627,-0.15259021896690683
1658789435364424,-1.9226367589837992,-7.843137254901876,0.7019150072480898
1658789435380416,3.1433585107195086,-6.927595941100208,0.33569848172737693
1658789435396409,6.9886320286868795,-5.523765926604028,-0.213626306553806
1658789435412401,7.782101167315204,-3.3875028610666504,0.3967345693140487
1658789435428393,3.570611123826893,-0.213626306553806,0.7629510948347615
1658789435444366,0.15259021896690683,4.058899824521177,2.7161058976118966
1658789435460358,-0.2746623941404778,7.17174029144735,3.692683299000464
1658789435476350,0.03051804379333589,7.843137254901876,2.7161058976118966
1658789435492343,-0.213626306553806,7.782101167315204,2.9602502479590385
1658789435508335,0.15259021896690683,8.941786831464015,4.303044174868319
1658789435524327,0.7629510948347615,11.383230334935433,5.76791027695117
1658789435540319,1.6174563210497581,14.007782101167322,6.744487678339738
1658789435556311,1.0070954451819034,15.411612115663274,5.828946364538069
1658789435572303,1.0070954451819034,16.510261692225413,4.852368963149502
1658789435588296,1.1291676203554744,18.158236057068734,5.279621576256886
1658789435604288,2.3498893720911838,20.05035477225897,6.439307240405924
1658789435620280,3.3875028610666504,21.881437399862534,6.561379415579495
1658789435636272,3.2043945983061803,23.346303501945386,6.439307240405924
1658789435652264,2.8992141603723667,24.13977264057371,6.439307240405924
1658789435668256,3.1433585107195086,25.665674830243233,6.927595941100208
1658789435684249,2.532997634851654,27.252613107499656,6.805523765926637
1658789435700241,4.364080262455218,28.778515297169406,6.500343327992596
1658789435716233,5.523765926604028,30.36545357442583,5.889982452124741
1658789435732225,4.852368963149502,31.70824750133511,5.584802014190927
1658789435748217,3.814755474174035,34.2107270923932,7.4158846417944915
1658789435764221,1.5564202334630863,35.98077363241009,8.6366063935302
1658789435780213,1.0070954451819034,36.95735103379866,7.904173342488775
1658789435796205,0.7629510948347615,38.36118104829461,7.782101167315204
1658789435812197,0.7019150072480898,40.68055237659246,8.941786831464015
1658789435828189,-0.03051804379333589,42.45059891660935,10.284580758373295
1658789435844182,1.5564202334630863,44.95307850766744,11.261158159761862
1658789435860174,3.2043945983061803,46.540016784923864,12.176699473563758
1658789435876166,3.692683299000464,46.29587243457672,11.07804989700162
1658789435892158,1.8616006713969,46.23483634699005,10.955977721828049
1658789435908150,-0.03051804379333589,48.126955062180514,12.481879911497572
1658789435924142,0.213626306553806,51.667048142213844,14.92332341496899
1658789435940135,0.9460593575952316,53.43709468223051,14.007782101167322
1658789435956127,2.410925459678083,53.55916685740431,11.444266422522333
1658789435972119,-0.2746623941404778,51.78912031738764,8.087281605249018
1658789435988111,-1.8616006713969,51.5449759670405,6.622415503166167
1658789436004103,-2.5940337224383256,52.82673380636288,8.697642481116873
1658789436020095,-3.4485389486533222,54.10849164568526,10.772869459067579
1658789436036088,-9.124895094224485,54.535744258792874,10.650797283894008
1658789436052080,-15.716792553597315,55.1461051346605,12.176699473563758
1658789436068072,-13.397421225299468,56.12268253604907,16.510261692225413
1658789436084045,-3.5095750362402214,56.0616464484624,18.524452582589447
1658789436100037,5.645838101777599,54.169527733271934,17.730983443961122
1658789436116028,6.256198977645454,51.11772335393289,16.1440451667047
1658789436132020,7.049668116273779,49.408712901502895,16.44922560463874
1658789436148012,6.561379415579495,48.73731593804814,17.303730830853738
1658789436164003,7.782101167315204,48.06591897459339,16.693369954985883
1658789436179995,3.936827649347606,46.29587243457672,15.167467765316132
1658789436195987,-1.3122758831159445,43.060959792477206,13.275349050125897
1658789436211979,-4.242008087281647,41.535057602807456,11.627374685282575
1658789436227970,-5.279621576256886,40.192263675898175,10.467689021133765
1658789436243962,-5.523765926604028,39.52086671244365,10.040436408026153
1658789436259954,-3.6316472114137923,37.75082017242676,10.040436408026153
1658789436275945,0.7629510948347615,35.85870145723652,10.284580758373295
1658789436291937,2.5940337224383256,33.844510566872486,9.124895094224485
1658789436307929,-2.04470893415737,33.29518577859153,8.392462043183059
1658789436323920,-3.3264667734797513,34.45487144274034,10.162508583199724
1658789436339912,-2.8381780727854675,34.02761882963296,9.979400320439481
1658789436355904,1.0070954451819034,32.501716639963206,8.697642481116873
1658789436371895,-1.8005645838102282,29.999237048905115,5.828946364538069
1658789436387887,-7.904173342488775,29.999237048905115,4.974441138323073
1658789436403869,-8.697642481116873,33.722438391698915,9.55214770733187
1658789436419861,0.213626306553806,36.10284580758366,14.068818188753994
1658789436435854,14.435034714274707,35.73662928206295,13.397421225299468
1658789436451846,18.89066910811016,33.05104142824439,11.383230334935433
1658789436467838,16.998550392919697,30.914778362706784,9.85732814526591
1658789436483830,10.284580758373295,32.31860837720296,10.650797283894008
1658789436499822,0.7629510948347615,34.2107270923932,11.139085984588291
1658789436515814,-8.575570305943302,34.08865491721963,9.796292057679011
1658789436531807,-18.097199969481835,33.53933012893867,7.598992904554734
1658789436547799,-19.745174334325156,35.065232318608196,9.308003356984727
1658789436563791,-8.697642481116873,36.95735103379866,13.64156557564661
1658789436579783,4.669260700389032,35.98077363241009,13.214312962538997
1658789436595775,11.139085984588291,33.4172579537651,10.589761196307336
1658789436611767,7.904173342488775,33.05104142824439,9.308003356984727
1658789436627760,3.7537193865873633,35.55352101930248,11.20012207217519
1658789436643752,0.213626306553806,37.2014953841458,13.58052948805971
1658789436659744,-2.9602502479590385,35.67559319447605,12.4208438239109
1658789436675736,-8.45349813076973,33.3562218661782,9.796292057679011
1658789436691728,-14.251926451514464,33.600366216525344,10.406652933546866
1658789436707720,-14.373998626688035,35.49248493171581,13.214312962538997
1658789436723724,-7.17174029144735,37.506675822079615,15.045395590142562
1658789436739716,5.584802014190927,37.506675822079615,14.557106889448278
1658789436755708,12.298771648737329,35.248340581368666,11.749446860456146
1658789436771700,12.176699473563758,33.661402304112244,10.284580758373295
1658789436787693,9.430075532158298,35.126268406195095,12.23773556115043
1658789436803685,6.317235065232353,37.567711909666514,14.80125123979542
1658789436819677,5.523765926604028,38.78843366140222,14.679179064621849
1658789436835669,0.6408789196611906,38.17807278553437,12.298771648737329
1658789436851661,-7.965209430075447,37.811856260013656,10.528725108720437
1658789436867653,-11.261158159761862,39.94811932555103,12.664988174258042
1658789436883646,-8.148317692835917,41.65712977798103,15.594720378423744
1658789436899638,4.974441138323073,42.32852674143578,15.228503852903032
1658789436915630,14.251926451514464,41.96231021591507,13.519493400473038
1658789436931622,13.092240787365427,41.718165865567926,12.603952086671143
1658789436947614,11.993591210803288,44.098573281452445,15.350576028076603
1658789436963606,10.345616845960194,45.380331120775054,17.54787518120088
1658789436979599,8.6366063935302,45.197222858014584,17.059586480506596
1658789436995591,1.4343480582895154,44.52582589456006,16.44922560463874
1658789437011583,-3.2043945983061803,45.07515068284101,17.975127794308264
1658789437027575,-4.791332875562603,45.197222858014584,18.58548867017612
1658789437043548,-1.9226367589837992,44.64789806973363,17.66994735637445
1658789437059540,4.180971999694748,44.403753719386486,17.181658655680167
1658789437075533,8.819714656290444,44.037537193865774,18.280308232242305
1658789437091525,10.650797283894008,41.96231021591507,17.48683909361398
1658789437107517,8.33142595559616,41.22987716487364,16.388189517051842
1658789437123509,11.261158159761862,42.51163500419602,17.24269474326684
1658789437139501,10.711833371480907,42.51163500419602,18.463416495002548
1658789437155493,8.819714656290444,39.52086671244365,17.54787518120088
1658789437171486,5.584802014190927,37.01838712138533,16.02197299153113
1658789437187478,-0.9460593575952316,35.98077363241009,16.2050812542916
1658789437203470,-4.669260700389032,36.71320668345152,17.66994735637445
1658789437219462,-5.828946364538069,36.83527885862509,18.95170519569683
1658789437235454,-6.683451590753066,34.02761882963296,16.693369954985883
1658789437251446,-5.157549401083315,31.342030975814396,14.92332341496899
1658789437267439,1.8616006713969,31.52513923857464,15.899900816357558
1658789437283431,8.880750743877343,32.01342793926892,16.08300907911803
1658789437299423,14.251926451514464,30.914778362706784,13.519493400473038
1658789437315415,13.824673838406852,28.778515297169406,11.627374685282575
1658789437331407,7.965209430075447,27.61882963302037,11.261158159761862
1658789437347399,3.0823224231326094,27.74090180819394,12.481879911497572
1658789437363372,-1.983672846570471,26.886396581978943,11.871519035629717
1658789437379365,-3.3264667734797513,26.153963530937517,10.284580758373295
1658789437395357,-3.4485389486533222,25.909819180590375,11.261158159761862
1658789437411349,-3.2654306858930795,24.505989166094423,11.932555123216616
1658789437427341,-1.2512397955290453,23.041123064011572,11.383230334935433
1658789437443333,6.805523765926637,23.041123064011572,10.89494163424115
1658789437459325,9.918364232852582,22.61387045090396,9.369039444571627
1658789437475318,8.392462043183059,22.308690012970146,7.782101167315204
1658789437491310,8.087281605249018,22.49179827573039,8.148317692835917
1658789437507302,6.805523765926637,22.67490653849086,9.308003356984727
1658789437523294,3.2654306858930795,22.369726100556818,8.819714656290444
1658789437539286,-0.5188067444876197,22.430762188143717,7.843137254901876
1658789437555278,-5.645838101777599,23.102159151598244,8.33142595559616
1658789437571271,-6.561379415579495,23.773556115052997,10.101472495613052
1658789437587263,-2.3498893720911838,23.773556115052997,10.711833371480907
1658789437603255,5.645838101777599,23.651483939879427,10.955977721828049
1658789437619247,9.063859006637585,23.468375677118956,9.796292057679011
1658789437635239,8.697642481116873,24.383916990920852,9.73525597009234
1658789437651231,6.622415503166167,24.872205691615136,10.345616845960194
1658789437667224,4.974441138323073,24.383916990920852,11.383230334935433
1658789437683227,2.9602502479590385,23.041123064011572,10.589761196307336
1658789437699219,-1.0681315327688026,21.69832913710229,9.246967269398056
1658789437715211,-4.974441138323073,21.14900434882111,9.613183794918768
1658789437731204,-6.134126802471883,20.538643472953254,10.223544670786623
1658789437747196,-1.8005645838102282,19.9282825970854,10.772869459067579
1658789437763188,1.3733119707026162,18.341344319828977,10.101472495613052
1658789437779180,0.09155413138023505,16.937514305333025,8.880750743877343
1658789437795172,-1.0681315327688026,16.876478217746126,8.270389868009488
1658789437811164,0.45777065690094787,17.24269474326684,8.51453421835663
1658789437827157,5.3406576638437855,16.876478217746126,9.430075532158298
1658789437843149,8.209353780422589,15.716792553597315,8.33142595559616
1658789437859141,7.049668116273779,14.251926451514464,6.683451590753066
1658789437875133,6.439307240405924,13.946746013580423,7.232776379034021
1658789437891125,3.5095750362402214,14.190890363927565,7.598992904554734
1658789437907117,3.570611123826893,15.655756466010416,7.965209430075447
1658789437923110,3.814755474174035,16.510261692225413,8.51453421835663
1658789437939102,3.3875028610666504,16.1440451667047,8.026245517662346
1658789437955094,5.157549401083315,15.655756466010416,8.575570305943302
1658789437971086,5.0354772259097444,14.496070801861606,9.185931181811156
1658789437987078,3.7537193865873633,14.251926451514464,9.796292057679011
1658789438003021,2.7161058976118966,14.80125123979542,9.369039444571627
1658789438019013,1.1902037079423735,15.533684290836845,8.880750743877343
1658789438035004,0.5188067444876197,15.289539940489703,9.430075532158298
1658789438050996,1.3733119707026162,14.129854276340893,9.85732814526591
1658789438066988,1.5564202334630863,13.76363775082018,9.613183794918768
1658789438082979,1.8005645838102282,14.007782101167322,9.002822919050914
1658789438098971,1.1291676203554744,14.007782101167322,8.941786831464015
1658789438114963,1.5564202334630863,13.885709925993751,8.758678568703772
1658789438130954,2.7771419851987957,13.824673838406852,7.476920729381163
1658789438146946,5.0354772259097444,13.397421225299468,5.828946364538069
1658789438162938,6.683451590753066,13.031204699778755,4.119935912108076
1658789438178929,5.889982452124741,13.76363775082018,3.7537193865873633
1658789438194921,3.570611123826893,15.289539940489703,5.0354772259097444
1658789438210913,2.3498893720911838,16.2050812542916,6.561379415579495
1658789438226904,2.7161058976118966,16.815442130159454,7.17174029144735
1658789438242896,3.6316472114137923,17.36476691844041,8.51453421835663
1658789438258888,2.410925459678083,18.097199969481835,9.73525597009234
1658789438274880,1.3122758831159445,18.341344319828977,10.711833371480907
1658789438290871,-0.3967345693140487,17.975127794308264,11.07804989700162
1658789438306863,-0.09155413138023505,18.280308232242305,10.284580758373295
1658789438322845,-2.410925459678083,18.097199969481835,9.430075532158298
1658789438338837,-4.364080262455218,17.66994735637445,9.185931181811156
1658789438354828,-3.3264667734797513,17.120622568093268,9.73525597009234
1658789438370820,-0.6408789196611906,16.571297779812312,9.55214770733187
1658789438386812,2.8381780727854675,16.632333867398984,9.85732814526591
1658789438402804,2.7771419851987957,15.411612115663274,9.85732814526591
1658789438418795,2.7161058976118966,14.190890363927565,10.040436408026153
1658789438434787,3.2654306858930795,12.909132524605184,10.833905546654478
1658789438450779,1.6784924086366573,11.810482948043045,10.528725108720437
1658789438466770,-3.692683299000464,10.650797283894008,10.467689021133765
1658789438482762,-7.721065079728305,8.880750743877343,9.246967269398056
1658789438498754,-7.782101167315204,6.744487678339738,7.2938124666209205
1658789438514745,-3.0823224231326094,4.547188525215461,4.9134050507361735
1658789438530737,1.983672846570471,2.166781109330941,2.8992141603723667
1658789438546729,4.791332875562603,-0.7019150072480898,1.3122758831159445
1658789438562720,4.486152437628789,-3.692683299000464,0.45777065690094787
1658789438578712,3.3264667734797513,-6.500343327992596,-0.09155413138023505
1658789438594704,-0.3967345693140487,-9.308003356984727,-0.7629510948347615
1658789438610695,-4.303044174868319,-12.054627298390187,-2.166781109330941
1658789438626687,-11.993591210803288,-15.472648203250174,-4.547188525215461
1658789438642700,-17.54787518120088,-18.70756084534969,-7.2938124666209205
1658789438658692,-17.36476691844041,-21.45418478675515,-9.67421988250544
1658789438674683,-14.129854276340893,-23.346303501945386,-11.688410772869474
1658789438690675,-12.909132524605184,-26.214999618524416,-14.618142977035177
1658789438706667,-11.20012207217519,-28.96162355992965,-16.876478217746126
1658789438722658,-8.270389868009488,-31.219958800640825,-16.937514305333025
1658789438738650,-3.814755474174035,-32.13550011444272,-15.899900816357558
1658789438754642,0.03051804379333589,-31.830319676508907,-15.228503852903032
1658789438770633,0.03051804379333589,-32.31860837720319,-14.496070801861606
1658789438786625,-2.8992141603723667,-33.23414969100486,-14.251926451514464
1658789438802617,-4.180971999694748,-34.088654917219856,-12.970168612191856
1658789438818608,-7.2938124666209205,-35.492484931716035,-13.45845731288614
1658789438834600,-10.162508583199724,-36.835278858625315,-15.045395590142562
1658789438850592,-13.031204699778755,-37.994964522774126,-16.2050812542916
1658789438866583,-13.885709925993751,-39.337758449683406,-17.36476691844041
1658789438882575,-13.092240787365427,-40.37537193865887,-17.975127794308264
1658789438898567,-10.711833371480907,-41.35194934004744,-18.524452582589447
1658789438914559,-7.354848554207592,-42.14541847867554,-18.82963302052326
1658789438930550,-7.354848554207592,-43.48821240558482,-19.01274128328373
1658789438946542,-6.439307240405924,-44.342717631799815,-18.463416495002548
1658789438962524,-4.730296787975931,-44.58686198214696,-17.730983443961122
1658789438978516,-4.180971999694748,-44.647898069733856,-17.54787518120088
1658789438994507,-7.049668116273779,-45.19722285801481,-18.524452582589447
1658789439010499,-9.67421988250544,-45.563439383535524,-19.317921721217544
1658789439026491,-9.73525597009234,-45.563439383535524,-18.82963302052326
1658789439042482,-8.758678568703772,-45.685511558709095,-18.463416495002548
1658789439058474,-8.209353780422589,-46.05172808422981,-19.439993896391115
1658789439074466,-7.721065079728305,-46.66208896009766,-20.05035477225897
1658789439090458,-7.476920729381163,-46.9672693980317,-20.294499122606112
1658789439106449,-4.60822461280236,-46.23483634699028,-19.623102159151586
1658789439122441,0.9460593575952316,-45.44136720836195,-19.073777370870403
1658789439138433,-1.1291676203554744,-46.29587243457695,-19.623102159151586
1658789439154424,-3.7537193865873633,-46.78416113527123,-19.867246509498727
1658789439170416,-4.547188525215461,-45.62447547112242,-19.01274128328373
1658789439186408,-4.119935912108076,-45.13618677042814,-17.914091706721592
1658789439202399,-6.561379415579495,-45.13618677042814,-18.158236057068734
1658789439218391,-11.688410772869474,-45.07515068284124,-18.036163881895163
1658789439234383,-13.092240787365427,-44.8310063324941,-16.632333867398984
1658789439250374,-12.481879911497572,-44.70893415732053,-16.44922560463874
1658789439266366,-10.955977721828049,-43.91546501869243,-15.716792553597315
1658789439282348,-8.575570305943302,-42.93888761730386,-14.92332341496899
1658789439298340,-2.7771419851987957,-42.69474326695672,-14.068818188753994
1658789439314332,2.04470893415737,-43.85442893110553,-14.740215152208748
1658789439330323,3.7537193865873633,-45.19722285801481,-17.42580300602731
1658789439346315,0.9460593575952316,-45.13618677042814,-18.097199969481835
1658789439362307,-2.288853284504512,-44.220645456626244,-18.95170519569683
1658789439378298,-2.105745021744042,-43.73235675593196,-19.80621042191183
1658789439394290,-1.3122758831159445,-44.220645456626244,-19.745174334325156
1658789439410282,-2.8992141603723667,-45.685511558709095,-19.9893186846723
1658789439426273,-5.828946364538069,-46.17380025940338,-19.1348134584573
1658789439442265,-4.547188525215461,-45.31929503318838,-17.975127794308264
1658789439458257,-0.45777065690094787,-44.220645456626244,-17.54787518120088
1658789439474249,-1.0681315327688026,-44.403753719386714,-18.95170519569683
1658789439490240,-4.486152437628789,-45.13618677042814,-19.073777370870403
1658789439506232,-6.378271152819025,-44.95307850766767,-18.89066910811016
1658789439522224,-4.60822461280236,-43.61028458075839,-18.463416495002548
1658789439538215,-3.875791561760934,-42.45059891660958,-18.524452582589447
1658789439554207,-4.180971999694748,-42.14541847867554,-19.073777370870403
1658789439570199,-3.7537193865873633,-42.87785152971696,-19.562066071564686
1658789439586190,-4.303044174868319,-43.244068055237676,-20.11139085984587
1658789439602203,-5.523765926604028,-42.14541847867554,-19.501029983978015
1658789439618195,-11.01701380941472,-41.16884107728697,-18.58548867017612
1658789439634186,-15.899900816357558,-40.2532997634853,-17.914091706721592
1658789439650178,-15.411612115663274,-38.36118104829484,-16.1440451667047
1658789439666170,-7.782101167315204,-37.62874799725341,-14.190890363927565
1658789439682161,-2.532997634851654,-38.36118104829484,-13.519493400473038
1658789439698153,1.4343480582895154,-39.276722362096734,-14.373998626688035
1658789439714145,4.058899824521177,-38.42221713588174,-14.129854276340893
1658789439730136,2.8381780727854675,-37.01838712138556,-13.824673838406852
1658789439746128,1.9226367589837992,-36.04180971999699,-13.336385137712568
1658789439762120,-0.45777065690094787,-36.28595407034413,-14.068818188753994
1658789439778112,-4.791332875562603,-37.07942320897246,-15.167467765316132
1658789439794103,-7.17174029144735,-37.07942320897246,-15.228503852903032
1658789439810095,-11.505302510109004,-37.07942320897246,-16.32715342946517
1658789439826087,-11.322194247348762,-36.4080262455177,-16.388189517051842
1658789439842078,-7.232776379034021,-36.591134508278174,-16.02197299153113
1658789439858070,-1.4343480582895154,-37.20149538414603,-16.510261692225413
1658789439874062,4.058899824521177,-37.56771190966674,-16.876478217746126
1658789439890053,5.157549401083315,-37.07942320897246,-16.510261692225413
1658789439906045,4.242008087281647,-35.91973754482342,-15.289539940489703
1658789439922027,0.2746623941404778,-35.370412756542464,-15.228503852903032
1658789439938019,-6.805523765926637,-35.614557106889606,-16.754406042572555
1658789439954011,-11.20012207217519,-34.088654917219856,-14.435034714274707
1658789439970002,-7.11070420386045,-32.745860990310575,-10.284580758373295
1658789439985994,-1.983672846570471,-33.41725795376533,-9.185931181811156
1658789440001986,5.76791027695117,-34.332799267567,-10.040436408026153
1658789440017977,11.444266422522333,-35.12626840619532,-11.01701380941472
1658789440033969,7.476920729381163,-36.10284580758389,-13.153276874952326
1658789440049961,1.0070954451819034,-34.69901579308771,-13.519493400473038
1658789440065952,-4.119935912108076,-33.35622186617843,-13.58052948805971
1658789440081944,-4.42511635004189,-32.37964446478986,-13.824673838406852
1658789440097936,-3.997863736934505,-32.19653620202962,-13.519493400473038
1658789440113927,-3.814755474174035,-32.745860990310575,-13.092240787365427
1658789440129919,-2.655069810025225,-32.50171663996343,-11.20012207217519
1658789440145911,0.5798428320745188,-31.525139238574866,-10.711833371480907
1658789440161903,4.60822461280236,-30.243381399252257,-10.162508583199724
1658789440177894,2.7771419851987957,-29.816128786144645,-9.85732814526591
1658789440193886,-3.570611123826893,-29.938200961318216,-10.406652933546866
1658789440209878,-6.012054627298312,-28.717479209582507,-8.026245517662346
1658789440225869,-3.814755474174035,-27.98504615854108,-6.500343327992596
1658789440241851,-1.4953841458761872,-28.717479209582507,-6.744487678339738
1658789440257843,0.09155413138023505,-28.412298771648693,-5.096513313496644
1658789440273835,4.791332875562603,-28.717479209582507,-4.730296787975931
1658789440289826,2.532997634851654,-30.54856183718607,-7.965209430075447
1658789440305818,-0.33569848172737693,-31.036850537880355,-11.505302510109004
1658789440321810,-5.0354772259097444,-29.08369573510322,-11.505302510109004
1658789440337802,-4.547188525215461,-26.58121614404513,-8.575570305943302
1658789440353793,-2.227817196917613,-27.374685282673227,-8.392462043183059
1658789440369785,0.09155413138023505,-29.755092698557974,-9.979400320439481
1658789440385777,0.8850232700083325,-31.586175326161765,-9.979400320439481
1658789440401768,0.09155413138023505,-31.097886625467254,-7.965209430075447
1658789440417760,-4.119935912108076,-30.121309224078686,-7.843137254901876
1658789440433752,-7.2938124666209205,-28.839551384756078,-8.148317692835917
1658789440449743,-5.279621576256886,-28.412298771648693,-7.476920729381163
1658789440465735,-1.1902037079423735,-29.571984435797503,-8.575570305943302
1658789440481727,-0.09155413138023505,-31.036850537880355,-9.430075532158298
1658789440497718,0.09155413138023505,-30.4264896620125,-7.660028992141633
1658789440513710,-0.5188067444876197,-30.182345311665358,-7.2938124666209205
1658789440529702,1.0681315327688026,-29.694056610971074,-8.880750743877343
1658789440545693,4.60822461280236,-29.51094834821083,-9.491111619745197
1658789440561676,6.012054627298312,-31.158922713053926,-10.223544670786623
1658789440577667,3.6316472114137923,-31.647211413748437,-10.467689021133765
1658789440593659,2.3498893720911838,-29.755092698557974,-8.392462043183059
1658789440609651,4.486152437628789,-28.412298771648693,-6.744487678339738
1658789440625642,6.439307240405924,-29.571984435797503,-7.904173342488775
1658789440641634,4.42511635004189,-31.830319676508907,-10.833905546654478
1658789440657626,0.03051804379333589,-32.56275272755033,-11.871519035629717
1658789440673617,-0.9460593575952316,-29.816128786144645,-8.758678568703772
1658789440689609,-0.15259021896690683,-26.947432669565842,-6.256198977645454
1658789440705601,1.739528496223329,-25.909819180590375,-6.622415503166167
1658789440721593,1.983672846570471,-26.82536049439227,-8.575570305943302
1658789440737584,2.227817196917613,-26.6422522316318,-10.040436408026153
1658789440753576,4.547188525215461,-24.13977264057371,-8.209353780422589
1658789440769568,6.8665598535133086,-22.369726100556818,-6.073090714885211
1658789440785559,7.782101167315204,-21.820401312275862,-4.791332875562603
1658789440801551,5.279621576256886,-22.186617837796575,-5.401693751430457
1658789440817543,-0.7019150072480898,-21.69832913710229,-6.378271152819025
1658789440833534,-1.2512397955290453,-19.378957808804444,-5.096513313496644
1658789440849526,0.5188067444876197,-18.158236057068734,-3.3264667734797513
1658789440865518,4.119935912108076,-18.76859693293659,-3.1433585107195086
1658789440881500,8.392462043183059,-19.317921721217544,-3.1433585107195086
1658789440897492,8.51453421835663,-20.721751735713724,-5.096513313496644
1658789440913483,4.364080262455218,-21.51522087434182,-6.805523765926637
1658789440929475,-1.8005645838102282,-20.965896086060866,-6.805523765926637
1658789440945467,-3.814755474174035,-19.195849546043974,-5.0354772259097444
1658789440961458,-0.7629510948347615,-18.76859693293659,-3.570611123826893
1658789440977450,3.1433585107195086,-20.660715648126825,-5.889982452124741
1658789440993442,4.119935912108076,-22.73594262607753,-8.392462043183059
1658789441009433,4.730296787975931,-22.49179827573039,-7.904173342488775
1658789441025425,3.936827649347606,-20.538643472953254,-5.3406576638437855
1658789441041417,2.227817196917613,-19.745174334325156,-4.364080262455218
1658789441057408,1.3122758831159445,-19.9282825970854,-5.0354772259097444
1658789441073400,0.5188067444876197,-20.477607385366582,-6.195162890058782
1658789441089392,1.1902037079423735,-20.538643472953254,-6.256198977645454
1658789441105383,1.8616006713969,-20.05035477225897,-5.462729839017356
1658789441121375,4.242008087281647,-18.341344319828977,-4.364080262455218
1658789441137367,8.51453421835663,-17.975127794308264,-3.4485389486533222
1658789441153359,8.880750743877343,-18.89066910811016,-4.486152437628789
1658789441169350,5.828946364538069,-19.867246509498727,-5.828946364538069
1658789441185342,-0.09155413138023505,-18.70756084534969,-5.157549401083315
1658789441201324,-3.7537193865873633,-16.815442130159454,-2.8992141603723667
1658789441217316,-3.570611123826893,-15.960936903944457,-1.8616006713969
1658789441233307,-2.655069810025225,-16.388189517051842,-2.5940337224383256
1658789441249299,-1.9226367589837992,-16.388189517051842,-2.288853284504512
1658789441265291,0.33569848172737693,-15.655756466010416,-1.2512397955290453
1658789441281283,4.852368963149502,-14.312962539101136,1.4953841458761872
1658789441297274,8.209353780422589,-13.824673838406852,1.739528496223329
1658789441313266,8.758678568703772,-13.885709925993751,0.7019150072480898
1658789441329258,7.354848554207592,-13.397421225299468,0.45777065690094787
1658789441345249,7.11070420386045,-12.542915999084471,1.739528496223329
1658789441361241,5.2185854886702145,-12.787060349431613,1.6784924086366573
1658789441377233,5.2185854886702145,-13.214312962538997,1.3733119707026162
1658789441393224,3.1433585107195086,-13.58052948805971,1.0070954451819034
1658789441409216,-1.2512397955290453,-12.909132524605184,0.6408789196611906
1658789441425208,-3.0823224231326094,-11.07804989700162,1.6174563210497581
1658789441441199,-1.2512397955290453,-10.833905546654478,3.6316472114137923
1658789441457191,4.669260700389032,-12.176699473563758,4.669260700389032
1658789441473183,7.476920729381163,-14.190890363927565,3.2043945983061803
1658789441489174,5.76791027695117,-14.92332341496899,2.410925459678083
1658789441505166,3.692683299000464,-14.007782101167322,2.5940337224383256
1658789441521148,3.3264667734797513,-13.702601663233281,2.8992141603723667
1658789441537140,1.1291676203554744,-14.92332341496899,0.5188067444876197
1658789441553132,-0.5798428320745188,-15.10643167772946,-2.288853284504512
1658789441569123,-3.5095750362402214,-14.92332341496899,-4.180971999694748
1658789441585115,-5.706874189364498,-13.64156557564661,-3.1433585107195086
1658789441601107,-4.669260700389032,-12.054627298390187,-1.5564202334630863
1658789441617098,-3.3264667734797513,-10.528725108720437,-2.5940337224383256
1658789441633090,0.2746623941404778,-8.819714656290444,-3.0823224231326094
1658789441649082,4.547188525215461,-6.378271152819025,-2.5940337224383256
1658789441665073,7.537956816968062,-3.570611123826893,-1.1902037079423735
1658789441681065,9.246967269398056,-0.03051804379333589,1.1291676203554744
1658789441697057,9.002822919050914,3.936827649347606,3.570611123826893
1658789441713049,6.8665598535133086,6.927595941100208,4.791332875562603
1658789441729040,3.936827649347606,7.904173342488775,3.0212863355459376
1658789441745032,2.9602502479590385,9.246967269398056,2.410925459678083
1658789441761024,2.288853284504512,11.261158159761862,4.058899824521177
1658789441777015,2.04470893415737,14.496070801861606,5.645838101777599
1658789441793007,0.09155413138023505,16.693369954985883,6.378271152819025
1658789441808999,-1.739528496223329,17.975127794308264,4.9134050507361735
1658789441824990,-1.8616006713969,18.76859693293659,3.936827649347606
1658789441841003,-0.7629510948347615,20.05035477225897,5.0354772259097444
1658789441856995,0.33569848172737693,21.51522087434182,5.828946364538069
1658789441872986,1.6174563210497581,23.590447852292527,6.683451590753066
1658789441888978,1.983672846570471,24.811169604028237,6.927595941100208
1658789441904970,1.8005645838102282,25.909819180590375,6.500343327992596
1658789441920961,-2.288853284504512,26.6422522316318,6.439307240405924
1658789441936953,-5.462729839017356,27.435721370260126,6.9886320286868795
1658789441952945,-8.026245517662346,27.069504844739413,7.17174029144735
1658789441968937,-10.040436408026153,26.58121614404513,7.843137254901876
1658789441984928,-11.07804989700162,27.252613107499656,8.087281605249018
1658789442000920,-12.542915999084471,28.16815442130155,8.45349813076973
1658789442016912,-12.054627298390187,28.595407034408936,8.51453421835663
1658789442032903,-6.012054627298312,28.473334859235365,8.148317692835917
1658789442048895,0.6408789196611906,28.534370946822264,8.148317692835917
1658789442064887,5.706874189364498,28.595407034408936,10.223544670786623
1658789442080878,6.744487678339738,28.412298771648693,11.383230334935433
1658789442096870,5.76791027695117,29.26680399786369,11.566338597695903
1658789442112862,6.256198977645454,30.121309224078686,11.444266422522333
1658789442128853,5.828946364538069,29.571984435797503,11.566338597695903
1658789442144845,3.936827649347606,28.595407034408936,11.139085984588291
1658789442160827,1.1902037079423735,29.26680399786369,11.261158159761862
1658789442176819,-0.5188067444876197,31.036850537880355,12.054627298390187
1658789442192811,-2.227817196917613,30.975814450293683,12.054627298390187
1658789442208802,-2.532997634851654,29.999237048905115,12.4208438239109
1658789442224794,-2.04470893415737,29.449912260623933,12.359807736324
1658789442240786,-0.7019150072480898,30.243381399252257,13.824673838406852
1658789442256777,0.33569848172737693,30.4875257495994,13.58052948805971
1658789442272769,2.3498893720911838,30.60959792477297,12.970168612191856
1658789442288761,1.6784924086366573,30.36545357442583,12.23773556115043
1658789442304752,0.15259021896690683,30.73167009994654,12.481879911497572
1658789442320744,-0.7629510948347615,31.097886625467254,13.58052948805971
1658789442336736,1.9226367589837992,31.097886625467254,13.397421225299468
1658789442352728,4.180971999694748,29.999237048905115,11.688410772869474
1658789442368719,2.3498893720911838,29.20576791027679,9.918364232852582
1658789442384711,-0.2746623941404778,30.182345311665358,10.528725108720437
1658789442400703,-2.410925459678083,31.097886625467254,13.092240787365427
1658789442416694,-3.1433585107195086,30.243381399252257,12.787060349431613
1658789442432686,-3.875791561760934,29.571984435797503,12.4208438239109
1658789442448678,-6.439307240405924,29.694056610971074,12.359807736324
1658789442464669,-4.547188525215461,30.73167009994654,13.153276874952326
1658789442480651,-1.4343480582895154,30.60959792477297,12.115663385976859
1658789442496643,4.974441138323073,30.30441748683893,10.711833371480907
1658789442512635,6.256198977645454,29.816128786144645,8.33142595559616
1658789442528627,4.242008087281647,30.121309224078686,8.087281605249018
1658789442544618,2.288853284504512,30.670634012359642,8.941786831464015
1658789442560610,3.936827649347606,31.097886625467254,9.67421988250544
1658789442576602,4.9134050507361735,30.73167009994654,9.063859006637585
1658789442592593,1.983672846570471,30.670634012359642,9.002822919050914
1658789442608585,2.04470893415737,31.097886625467254,11.444266422522333
1658789442624577,2.532997634851654,30.4875257495994,13.214312962538997
1658789442640568,4.364080262455218,29.022659647516548,11.932555123216616
1658789442656560,1.1291676203554744,27.74090180819394,10.284580758373295
1658789442672552,-5.828946364538069,27.435721370260126,9.246967269398056
1658789442688543,-8.758678568703772,28.351262684061794,10.223544670786623
1658789442704535,-6.927595941100208,28.839551384756078,10.955977721828049
1658789442720527,-0.9460593575952316,28.473334859235365,9.063859006637585
1658789442736518,-0.33569848172737693,27.435721370260126,7.232776379034021
1658789442752510,-0.7019150072480898,27.80193789578084,7.354848554207592
1658789442768502,1.983672846570471,29.999237048905115,11.505302510109004
1658789442784494,5.3406576638437855,30.4264896620125,13.946746013580423
1658789442800506,10.284580758373295,30.121309224078686,13.64156557564661
1658789442816498,6.9886320286868795,29.571984435797503,12.298771648737329
1658789442832490,1.1902037079423735,29.938200961318216,11.444266422522333
1658789442848481,-1.4953841458761872,32.257572289616064,14.862287327382319
1658789442864473,-1.0070954451819034,32.74586099031035,15.716792553597315
1658789442880465,0.09155413138023505,32.19653620202939,14.679179064621849
1658789442896456,-4.058899824521177,30.73167009994654,12.726024261844714
1658789442912448,-5.2185854886702145,30.975814450293683,13.031204699778755
1658789442928440,-4.730296787975931,32.501716639963206,15.594720378423744
1658789442944431,-0.3967345693140487,33.17311360341796,14.92332341496899
1658789442960423,0.7019150072480898,32.379644464789635,14.373998626688035
1658789442976415,1.8616006713969,32.13550011444249,14.373998626688035
1658789442992406,3.0212863355459376,32.501716639963206,16.2050812542916
1658789443008398,2.9602502479590385,32.86793316548392,16.32715342946517
1658789443024390,3.6316472114137923,32.80689707789725,15.411612115663274
1658789443040382,1.983672846570471,32.80689707789725,13.336385137712568
1658789443056373,-0.7629510948347615,33.600366216525344,13.275349050125897
1658789443072365,1.8005645838102282,34.69901579308748,15.960936903944457
1658789443088357,4.364080262455218,34.33279926756677,16.08300907911803
1658789443104348,5.889982452124741,33.23414969100463,15.350576028076603
1658789443120330,4.669260700389032,33.17311360341796,14.679179064621849
1658789443136322,1.8005645838102282,34.08865491721963,15.045395590142562
1658789443152314,-1.983672846570471,34.57694361791391,15.289539940489703
1658789443168305,0.03051804379333589,35.30937666895534,16.02197299153113
1658789443184297,3.997863736934505,35.55352101930248,16.693369954985883
1658789443200289,3.814755474174035,35.49248493171581,16.632333867398984
1658789443216281,6.317235065232353,35.73662928206295,18.280308232242305
1658789443232272,6.073090714885211,34.33279926756677,17.60891126878755
1658789443248264,3.814755474174035,33.29518577859153,16.510261692225413
1658789443264256,0.8239871824216607,34.08865491721963,16.876478217746126
1658789443280247,-4.60822461280236,34.39383535515367,16.693369954985883
1658789443296239,-5.157549401083315,34.2717631799801,16.937514305333025
1658789443312231,-1.5564202334630863,33.17311360341796,17.181658655680167
1658789443328222,2.105745021744042,32.01342793926892,16.571297779812312
1658789443344214,2.227817196917613,31.586175326161538,16.571297779812312
1658789443360206,3.3875028610666504,30.73167009994654,16.08300907911803
1658789443376197,2.9602502479590385,30.182345311665358,15.10643167772946
1658789443392189,4.242008087281647,30.30441748683893,14.312962539101136
1658789443408181,4.058899824521177,30.60959792477297,14.557106889448278
1658789443424173,3.3264667734797513,29.08369573510322,14.862287327382319
1658789443440124,2.3498893720911838,27.74090180819394,13.336385137712568
1658789443456116,0.2746623941404778,28.107118333714652,13.64156557564661
1658789443472108,-1.3122758831159445,29.51094834821083,15.472648203250174
1658789443488099,0.213626306553806,28.900587472342977,15.777828641183987
1658789443504091,3.875791561760934,27.92401007095441,14.251926451514464
1658789443520083,9.124895094224485,27.313649195086555,12.176699473563758
1658789443536074,7.4158846417944915,27.191577019912984,9.124895094224485
1658789443552066,3.0823224231326094,28.534370946822264,9.002822919050914
1658789443568058,4.303044174868319,30.975814450293683,11.932555123216616
1658789443584049,5.76791027695117,31.219958800640825,12.787060349431613
1658789443600041,8.941786831464015,30.4875257495994,12.298771648737329
1658789443616033,6.012054627298312,29.877164873731545,13.214312962538997
1658789443632024,4.364080262455218,30.182345311665358,15.045395590142562
1658789443648016,1.5564202334630863,30.060273136491787,15.899900816357558
1658789443664008,-0.3967345693140487,29.694056610971074,15.10643167772946
1658789443679999,-2.655069810025225,29.755092698557974,15.045395590142562
1658789443695991,-2.410925459678083,30.4875257495994,16.815442130159454
1658789443711983,-2.04470893415737,29.449912260623933,16.510261692225413
1658789443727975,-1.1291676203554744,28.229190508888223,14.862287327382319
1658789443743966,2.7161058976118966,28.229190508888223,14.007782101167322
1658789443759948,3.7537193865873633,28.717479209582507,14.312962539101136
1658789443775940,6.622415503166167,28.473334859235365,14.679179064621849
1658789443791932,8.575570305943302,27.80193789578084,15.045395590142562
1658789443807923,8.392462043183059,27.069504844739413,14.80125123979542
1658789443823915,4.364080262455218,26.276035706111088,14.557106889448278
1658789443839907,0.15259021896690683,26.214999618524416,14.312962539101136
1658789443855898,0.7629510948347615,26.947432669565842,16.2050812542916
1658789443871890,3.570611123826893,25.970855268177274,15.899900816357558
1658789443887882,2.227817196917613,24.567025253681095,14.496070801861606
1658789443903874,2.105745021744042,24.567025253681095,14.373998626688035
1658789443919865,3.997863736934505,25.116350041962278,15.777828641183987
1658789443935857,6.622415503166167,24.383916990920852,14.98435950255589
1658789443951849,8.026245517662346,23.83459220263967,13.397421225299468
1658789443967840,7.965209430075447,24.13977264057371,13.214312962538997
1658789443983832,1.983672846570471,24.689097428854666,14.007782101167322
1658789443999824,-1.3122758831159445,24.811169604028237,14.557106889448278
1658789444015815,-0.6408789196611906,24.994277866788707,15.045395590142562
1658789444031807,3.3264667734797513,24.872205691615136,15.350576028076603
1658789444047799,1.8005645838102282,24.01770046540014,15.045395590142562
1658789444063790,-0.2746623941404778,23.285267414358714,14.740215152208748
1658789444079803,-0.213626306553806,23.529411764705856,15.289539940489703
1658789444095795,3.5095750362402214,24.383916990920852,15.594720378423744
1658789444111786,7.2938124666209205,24.628061341267994,15.533684290836845
1658789444127778,7.232776379034021,23.7125200274661,15.350576028076603
1658789444143770,6.561379415579495,22.308690012970146,15.411612115663274
1658789444159762,5.76791027695117,22.125581750209676,15.899900816357558
1658789444175753,7.904173342488775,22.79697871366443,15.350576028076603
1658789444191745,6.683451590753066,22.61387045090396,14.129854276340893
1658789444207737,2.410925459678083,21.51522087434182,13.153276874952326
1658789444223728,2.4719615472647547,21.33211261158158,13.702601663233281
1658789444239720,5.462729839017356,20.599679560540153,14.068818188753994
1658789444255712,6.8665598535133086,20.05035477225897,13.336385137712568
1658789444271703,5.95101853971164,19.317921721217544,13.031204699778755
1658789444287695,6.8665598535133086,20.538643472953254,13.824673838406852
1658789444303687,7.11070420386045,20.965896086060866,14.92332341496899
1658789444319678,7.232776379034021,20.35553521019301,14.129854276340893
1658789444335670,5.2185854886702145,19.562066071564686,13.824673838406852
1658789444351662,1.0070954451819034,18.82963302052326,14.312962539101136
1658789444367653,-2.410925459678083,17.914091706721592,14.129854276340893
1658789444383645,-2.288853284504512,18.58548867017612,13.64156557564661
1658789444399627,2.4719615472647547,18.89066910811016,12.970168612191856
1658789444415619,3.4485389486533222,18.158236057068734,12.176699473563758
1658789444431611,4.119935912108076,17.303730830853738,12.542915999084471
1658789444447602,6.134126802471883,17.059586480506596,13.275349050125897
1658789444463594,5.157549401083315,16.632333867398984,13.58052948805971
1658789444479586,1.4343480582895154,16.32715342946517,14.312962539101136
1658789444495577,-1.8005645838102282,15.594720378423744,15.10643167772946
1658789444511569,-0.03051804379333589,14.679179064621849,14.618142977035177
1658789444527561,1.8616006713969,12.4208438239109,13.031204699778755
1658789444543553,5.645838101777599,10.528725108720437,9.308003356984727
1658789444559544,6.012054627298312,8.33142595559616,7.2938124666209205
1658789444575536,1.6784924086366573,5.0354772259097444,5.0354772259097444
1658789444591528,-4.058899824521177,2.4719615472647547,3.6316472114137923
1658789444607519,-5.0354772259097444,1.1291676203554744,2.9602502479590385
1658789444623511,-5.584802014190927,-0.8239871824216607,2.227817196917613
1658789444639503,-4.547188525215461,-3.997863736934505,1.1291676203554744
1658789444655494,-4.058899824521177,-6.9886320286868795,-0.3967345693140487
1658789444671486,-2.04470893415737,-8.758678568703772,-1.6784924086366573
1658789444687478,-2.105745021744042,-10.589761196307336,-3.3875028610666504
1658789444703469,-3.814755474174035,-13.64156557564661,-6.439307240405924
1658789444719452,-6.012054627298312,-17.42580300602731,-9.246967269398056
1658789444735443,-7.4158846417944915,-20.721751735713724,-12.23773556115043
1658789444751435,-9.73525597009234,-23.285267414358714,-14.98435950255589
1658789444767427,-10.650797283894008,-24.628061341267994,-17.54787518120088
1658789444783418,-11.566338597695903,-25.543602655069662,-19.867246509498727
1658789444799410,-11.444266422522333,-26.276035706111088,-20.721751735713724
1658789444815402,-6.8665598535133086,-26.52018005645823,-19.867246509498727
1658789444831393,-1.8616006713969,-26.52018005645823,-17.60891126878755
1658789444847385,1.1902037079423735,-26.153963530937517,-15.716792553597315
1658789444863377,-1.3733119707026162,-26.337071793697987,-14.251926451514464
1658789444879368,-6.378271152819025,-26.39810788128466,-13.519493400473038
1658789444895360,-9.85732814526591,-25.543602655069662,-12.787060349431613
1658789444911352,-11.749446860456146,-25.42153047989609,-12.4208438239109
1658789444927343,-12.298771648737329,-26.459143968871558,-14.129854276340893
1658789444943335,-8.941786831464015,-26.764324406805372,-15.472648203250174
1658789444959327,-4.852368963149502,-26.7032883192187,-16.388189517051842
1658789444975319,-1.4953841458761872,-25.726710917830133,-16.08300907911803
1658789444991310,-1.9226367589837992,-25.17738612954895,-15.045395590142562
1658789445007302,-2.9602502479590385,-24.933241779201808,-14.129854276340893
1658789445023294,-3.692683299000464,-25.17738612954895,-13.031204699778755
1658789445039306,-2.9602502479590385,-24.811169604028237,-11.627374685282575
1658789445055298,-0.03051804379333589,-24.567025253681095,-11.383230334935433
1658789445071290,0.2746623941404778,-26.092927443350845,-12.176699473563758
1658789445087281,-0.15259021896690683,-27.80193789578084,-13.092240787365427
1658789445103273,-0.45777065690094787,-28.107118333714652,-12.054627298390187
1658789445119265,-1.8005645838102282,-28.16815442130155,-11.505302510109004
1658789445135256,-5.706874189364498,-28.656443121995835,-12.4208438239109
1658789445151248,-8.575570305943302,-29.51094834821083,-13.031204699778755
1658789445167240,-10.101472495613052,-30.60959792477297,-13.58052948805971
1658789445183231,-8.758678568703772,-31.219958800640825,-14.068818188753994
1658789445199223,-4.791332875562603,-31.097886625467254,-14.251926451514464
1658789445215215,-2.3498893720911838,-30.60959792477297,-13.946746013580423
1658789445231207,-0.09155413138023505,-30.121309224078686,-12.848096437018285
1658789445247198,0.3967345693140487,-30.30441748683893,-11.993591210803288
1658789445263190,-1.0070954451819034,-31.097886625467254,-11.383230334935433
1658789445279182,-4.119935912108076,-31.525139238574866,-11.261158159761862
1658789445295173,-6.561379415579495,-31.342030975814623,-11.749446860456146
1658789445311165,-8.33142595559616,-31.830319676508907,-12.4208438239109
1658789445327157,-8.270389868009488,-31.830319676508907,-13.275349050125897
1658789445343148,-8.758678568703772,-31.769283588922008,-13.64156557564661
1658789445359130,-8.6366063935302,-32.07446402685605,-14.068818188753994
1658789445375122,-7.4158846417944915,-32.19653620202962,-14.251926451514464
1658789445391114,-4.547188525215461,-31.708247501335336,-13.092240787365427
1658789445407106,-0.3967345693140487,-31.219958800640825,-11.932555123216616
1658789445423097,3.0823224231326094,-31.464103150988194,-11.383230334935433
1658789445439089,1.1902037079423735,-31.769283588922008,-12.298771648737329
1658789445455081,-1.9226367589837992,-31.280994888227724,-12.176699473563758
1658789445471072,-6.012054627298312,-30.60959792477297,-11.566338597695903
1658789445487064,-6.012054627298312,-30.243381399252257,-11.688410772869474
1658789445503056,-4.547188525215461,-30.853742275120112,-11.993591210803288
1658789445519047,-4.730296787975931,-31.464103150988194,-12.848096437018285
1658789445535039,-6.256198977645454,-31.952391851682478,-13.58052948805971
1658789445551031,-7.17174029144735,-32.31860837720319,-15.167467765316132
1658789445567022,-9.063859006637585,-33.11207751583129,-16.632333867398984
1658789445583014,-9.124895094224485,-32.867933165484146,-16.693369954985883
1658789445599006,-6.9886320286868795,-31.769283588922008,-15.899900816357558
1658789445614997,-1.5564202334630863,-31.525139238574866,-14.618142977035177
1658789445630989,0.3967345693140487,-32.37964446478986,-13.336385137712568
1658789445646981,-1.983672846570471,-33.051041428244616,-13.214312962538997
1658789445662973,-2.9602502479590385,-31.342030975814623,-11.383230334935433
1658789445678955,0.5798428320745188,-29.20576791027679,-9.491111619745197
1658789445694946,3.2043945983061803,-29.633020523384403,-9.246967269398056
1658789445710938,2.227817196917613,-31.708247501335336,-10.345616845960194
1658789445726930,1.4343480582895154,-32.50171663996343,-10.89494163424115
1658789445742921,-3.570611123826893,-32.867933165484146,-12.664988174258042
1658789445758913,-8.026245517662346,-32.44068055237676,-14.129854276340893
1658789445774905,-9.491111619745197,-32.01342793926915,-14.679179064621849
1658789445790897,-9.308003356984727,-32.99000534065772,-16.632333867398984
1658789445806888,-7.537956816968062,-33.23414969100486,-16.815442130159454
1658789445822880,-6.317235065232353,-33.17311360341819,-17.059586480506596
1658789445838872,-3.6316472114137923,-32.19653620202962,-15.716792553597315
1658789445854863,0.8850232700083325,-31.158922713053926,-13.336385137712568
1658789445870855,5.828946364538069,-31.708247501335336,-12.054627298390187
1658789445886847,4.242008087281647,-32.31860837720319,-11.688410772869474
1658789445902838,2.532997634851654,-31.952391851682478,-11.139085984588291
1658789445918830,-3.0212863355459376,-31.769283588922008,-10.528725108720437
1658789445934822,-6.378271152819025,-32.37964446478986,-10.345616845960194
1658789445950813,-6.439307240405924,-32.50171663996343,-11.139085984588291
1658789445966805,-3.814755474174035,-32.56275272755033,-11.810482948043045
1658789445982797,-3.3875028610666504,-33.5393301289389,-12.23773556115043
1658789445998748,-4.242008087281647,-35.24834058136889,-14.251926451514464
1658789446014740,-3.997863736934505,-36.22491798275746,-14.557106889448278
1658789446030732,-3.2654306858930795,-35.98077363241032,-14.98435950255589
1658789446046723,-6.073090714885211,-35.06523231860842,-15.411612115663274
1658789446062715,-7.537956816968062,-34.76005188067461,-15.167467765316132
1658789446078707,-6.073090714885211,-35.24834058136889,-14.92332341496899
1658789446094699,-3.2654306858930795,-36.16388189517056,-14.557106889448278
1658789446110690,-1.6784924086366573,-36.652170595864845,-14.618142977035177
1658789446126682,-0.15259021896690683,-36.4690623331046,-13.946746013580423
1658789446142674,-2.4719615472647547,-37.01838712138556,-15.167467765316132
1658789446158665,-6.561379415579495,-37.3235675593196,-17.66994735637445
1658789446174657,-7.049668116273779,-36.04180971999699,-18.036163881895163
1658789446190649,-4.791332875562603,-34.57694361791414,-16.571297779812312
1658789446206640,-3.6316472114137923,-35.614557106889606,-16.32715342946517
1658789446222632,-5.706874189364498,-36.89631494621199,-17.42580300602731
1658789446238624,-6.561379415579495,-35.98077363241032,-16.815442130159454
1658789446254615,-2.532997634851654,-34.027618829633184,-13.885709925993751
1658789446270607,3.692683299000464,-33.90554665445961,-12.054627298390187
1658789446286599,5.096513313496644,-35.91973754482342,-12.726024261844714
1658789446302590,2.655069810025225,-36.89631494621199,-13.519493400473038
1658789446318603,0.09155413138023505,-36.04180971999699,-13.702601663233281
1658789446334595,-2.227817196917613,-34.57694361791414,-13.397421225299468
1658789446350587,-5.523765926604028,-34.76005188067461,-14.679179064621849
1658789446366578,-11.322194247348762,-36.34699015793103,-17.120622568093268
1658789446382570,-15.167467765316132,-36.591134508278174,-19.01274128328373
1658789446398562,-15.838864728770886,-35.00419623102175,-19.80621042191183
1658789446414553,-11.444266422522333,-34.027618829633184,-19.195849546043974
1658789446430545,-4.60822461280236,-33.5393301289389,-17.730983443961122
1658789446446537,3.0212863355459376,-34.82108796826128,-15.777828641183987
1658789446462528,6.012054627298312,-36.04180971999699,-16.08300907911803
1658789446478520,4.119935912108076,-36.16388189517056,-17.303730830853738
1658789446494512,-1.3122758831159445,-34.51590753032747,-16.2050812542916
1658789446510503,-7.843137254901876,-32.99000534065772,-14.679179064621849
1658789446526495,-10.528725108720437,-31.769283588922008,-13.153276874952326
