Timestamp (microseconds),Gyro X (°/s),Gyro Y (°/s),Gyro Z (°/s)
1658789598049133,1.4343480582895154,-1.4343480582895154,0.33569848172737693
1658789598065131,1.5564202334630863,-1.4343480582895154,-0.03051804379333589
1658789598081129,0.09155413138023505,-1.3122758831159445,-0.15259021896690683
1658789598097127,-0.7019150072480898,-1.0681315327688026,-0.09155413138023505
1658789598113124,-0.7629510948347615,-0.8850232700083325,0.33569848172737693
1658789598129122,-1.0070954451819034,-1.0070954451819034,0.7019150072480898
1658789598145120,-0.33569848172737693,-1.4953841458761872,0.45777065690094787
1658789598161118,-0.03051804379333589,-1.9226367589837992,0.33569848172737693
1658789598177116,0.213626306553806,-1.6174563210497581,0.3967345693140487
1658789598193114,1.1902037079423735,-1.3733119707026162,-0.03051804379333589
1658789598209112,1.6174563210497581,-1.2512397955290453,-0.213626306553806
1658789598225110,2.166781109330941,-1.3733119707026162,-0.15259021896690683
1658789598241108,0.6408789196611906,-1.3733119707026162,0.03051804379333589
1658789598257105,-0.3967345693140487,-0.9460593575952316,0.5188067444876197
1658789598273103,-0.8239871824216607,-0.5798428320745188,0.33569848172737693
1658789598289101,-1.3122758831159445,-0.7019150072480898,0.3967345693140487
1658789598305099,-1.739528496223329,-1.3122758831159445,0.45777065690094787
1658789598321097,-0.3967345693140487,-1.739528496223329,0.5188067444876197
1658789598337095,2.288853284504512,-1.3733119707026162,0.8850232700083325
1658789598353093,3.814755474174035,-1.0681315327688026,1.0070954451819034
1658789598369079,2.410925459678083,-0.9460593575952316,0.8239871824216607
1658789598385077,0.2746623941404778,-0.5188067444876197,1.1902037079423735
1658789598401075,-1.2512397955290453,-0.03051804379333589,1.983672846570471
1658789598417073,-1.983672846570471,0.03051804379333589,2.3498893720911838
1658789598433071,-2.04470893415737,0.03051804379333589,2.655069810025225
1658789598449069,-1.5564202334630863,0.09155413138023505,2.4719615472647547
1658789598465067,-0.213626306553806,0.03051804379333589,2.04470893415737
1658789598481064,-0.6408789196611906,-0.03051804379333589,1.8005645838102282
1658789598497062,-0.3967345693140487,0.03051804379333589,1.8616006713969
1658789598513060,0.3967345693140487,0.213626306553806,2.166781109330941
1658789598529058,1.0070954451819034,0.2746623941404778,2.227817196917613
1658789598545056,0.9460593575952316,-0.33569848172737693,2.105745021744042
1658789598561054,0.3967345693140487,-0.9460593575952316,2.04470893415737
1658789598577052,-0.5798428320745188,-1.1902037079423735,1.9226367589837992
1658789598593050,-1.3122758831159445,-1.3733119707026162,1.5564202334630863
1658789598609048,-2.288853284504512,-1.6784924086366573,1.0681315327688026
1658789598625045,-1.4953841458761872,-2.105745021744042,0.45777065690094787
1658789598641043,0.09155413138023505,-2.227817196917613,0.8239871824216607
1658789598657041,1.3733119707026162,-2.4719615472647547,0.8239871824216607
1658789598673039,1.3733119707026162,-2.7771419851987957,0.2746623941404778
1658789598689056,0.09155413138023505,-3.2654306858930795,-0.03051804379333589
1658789598705054,-0.3967345693140487,-3.4485389486533222,-0.15259021896690683
1658789598721052,-0.6408789196611906,-3.2043945983061803,0.09155413138023505
1658789598737050,-1.2512397955290453,-2.9602502479590385,0.3967345693140487
1658789598753048,-1.6174563210497581,-2.5940337224383256,0.6408789196611906
1658789598769045,-1.739528496223329,-2.288853284504512,0.2746623941404778
1658789598785043,-1.0070954451819034,-1.6784924086366573,0.7019150072480898
1658789598801041,-0.15259021896690683,-1.0070954451819034,0.9460593575952316
1658789598817039,0.3967345693140487,-0.7019150072480898,1.1291676203554744
1658789598833037,0.7629510948347615,-0.5188067444876197,1.1902037079423735
1658789598849035,1.0070954451819034,-0.33569848172737693,1.0681315327688026
1658789598865033,1.1291676203554744,-0.2746623941404778,0.9460593575952316
1658789598881031,-0.213626306553806,-0.2746623941404778,1.1291676203554744
1658789598897029,-1.1902037079423735,-0.213626306553806,1.1902037079423735
1658789598913026,-1.739528496223329,-0.15259021896690683,1.1902037079423735
1658789598929024,-0.8850232700083325,0.09155413138023505,1.0070954451819034
1658789598945022,0.213626306553806,0.15259021896690683,0.8850232700083325
1658789598961020,1.1902037079423735,0.3967345693140487,1.1902037079423735
1658789598977018,1.9226367589837992,0.09155413138023505,1.4343480582895154
1658789598993016,1.739528496223329,-0.33569848172737693,1.0681315327688026
1658789599008880,1.8616006713969,-0.3967345693140487,1.0070954451819034
1658789599024878,1.3733119707026162,-0.7019150072480898,0.5798428320745188
1658789599040875,-0.7019150072480898,-0.9460593575952316,0.213626306553806
1658789599056872,-2.7161058976118966,-0.3967345693140487,0.5798428320745188
1658789599072870,-2.655069810025225,0.7629510948347615,0.8239871824216607
1658789599088867,-1.0070954451819034,2.04470893415737,1.5564202334630863
1658789599104865,0.7019150072480898,2.166781109330941,1.739528496223329
1658789599120862,2.7771419851987957,1.739528496223329,1.8005645838102282
1658789599136860,2.8381780727854675,1.4953841458761872,1.9226367589837992
1658789599152857,2.7771419851987957,1.1902037079423735,1.6784924086366573
1658789599168854,1.2512397955290453,1.4343480582895154,2.105745021744042
1658789599184852,1.6174563210497581,1.5564202334630863,2.166781109330941
1658789599200849,3.1433585107195086,1.3733119707026162,1.8616006713969
1658789599216847,2.655069810025225,0.33569848172737693,1.3733119707026162
1658789599232844,1.739528496223329,-0.33569848172737693,1.1902037079423735
1658789599248841,1.739528496223329,-1.0681315327688026,1.1902037079423735
1658789599264839,1.2512397955290453,-1.6174563210497581,1.2512397955290453
1658789599280836,0.2746623941404778,-2.04470893415737,0.8850232700083325
1658789599296834,-2.4719615472647547,-1.983672846570471,0.5188067444876197
1658789599312831,-3.875791561760934,-1.8616006713969,0.5188067444876197
1658789599328704,-2.8992141603723667,-1.8616006713969,0.45777065690094787
1658789599344701,-1.4343480582895154,-2.04470893415737,0.7629510948347615
1658789599360698,0.15259021896690683,-2.04470893415737,1.0681315327688026
1658789599376695,0.09155413138023505,-1.8616006713969,1.0070954451819034
1658789599392692,0.45777065690094787,-1.2512397955290453,0.9460593575952316
1658789599408689,0.33569848172737693,-0.7019150072480898,0.9460593575952316
1658789599424686,-0.213626306553806,-0.6408789196611906,1.0681315327688026
1658789599440683,-1.3122758831159445,-0.7019150072480898,1.0681315327688026
1658789599456680,-1.0070954451819034,-0.7629510948347615,1.1902037079423735
1658789599472677,-0.15259021896690683,-0.9460593575952316,1.3733119707026162
1658789599488674,0.7629510948347615,-0.8850232700083325,1.5564202334630863
1658789599504671,0.09155413138023505,-1.1291676203554744,1.4343480582895154
1658789599520668,-0.6408789196611906,-1.2512397955290453,1.3733119707026162
1658789599536665,-0.6408789196611906,-1.4343480582895154,1.4343480582895154
1658789599552662,-0.45777065690094787,-1.4953841458761872,1.4343480582895154
1658789599568658,-0.2746623941404778,-1.1902037079423735,1.9226367589837992
1658789599584655,0.5798428320745188,-1.2512397955290453,1.739528496223329
1658789599600652,1.2512397955290453,-1.6784924086366573,1.9226367589837992
1658789599616649,1.9226367589837992,-2.3498893720911838,1.4343480582895154
1658789599632646,1.1902037079423735,-2.7771419851987957,0.7019150072480898
1658789599648529,-0.7629510948347615,-2.7771419851987957,0.5798428320745188
1658789599664525,-2.8381780727854675,-2.9602502479590385,0.15259021896690683
1658789599680522,-2.7161058976118966,-2.8381780727854675,0.7019150072480898
1658789599696518,-1.5564202334630863,-2.8992141603723667,1.1291676203554744
1658789599712515,-1.6174563210497581,-2.655069810025225,1.1291676203554744
1658789599728511,0.33569848172737693,-2.227817196917613,1.1902037079423735
1658789599744507,1.739528496223329,-2.3498893720911838,0.8850232700083325
1658789599760504,2.410925459678083,-2.8381780727854675,1.0070954451819034
1658789599776500,2.4719615472647547,-3.3875028610666504,0.7629510948347615
1658789599792497,0.45777065690094787,-3.6316472114137923,0.6408789196611906
1658789599808493,-1.2512397955290453,-3.1433585107195086,0.5188067444876197
1658789599824490,-2.3498893720911838,-2.8381780727854675,0.45777065690094787
1658789599840486,-2.288853284504512,-2.410925459678083,0.8850232700083325
1658789599856483,-2.4719615472647547,-2.166781109330941,1.4953841458761872
1658789599872479,-4.058899824521177,-1.5564202334630863,1.6784924086366573
1658789599888476,-5.584802014190927,-0.5188067444876197,2.227817196917613
1658789599904472,-5.523765926604028,0.213626306553806,2.227817196917613
1658789599920468,-4.364080262455218,0.2746623941404778,1.3122758831159445
1658789599936465,-1.8005645838102282,0.09155413138023505,-0.15259021896690683
1658789599952461,-0.3967345693140487,-0.213626306553806,-1.983672846570471
1658789599968383,-0.5798428320745188,0.15259021896690683,-3.1433585107195086
1658789599984380,-2.4719615472647547,1.1902037079423735,-3.2654306858930795
1658789600000376,-3.6316472114137923,2.105745021744042,-3.5095750362402214
1658789600016373,-2.8381780727854675,2.7771419851987957,-3.0212863355459376
1658789600032369,-1.5564202334630863,2.7771419851987957,-2.3498893720911838
1658789600048366,-0.45777065690094787,2.7161058976118966,-2.04470893415737
1658789600064362,1.0681315327688026,2.288853284504512,-2.105745021744042
1658789600080359,1.8616006713969,1.4953841458761872,-2.3498893720911838
1658789600096355,2.227817196917613,0.8239871824216607,-2.532997634851654
1658789600112352,1.1291676203554744,0.2746623941404778,-2.655069810025225
1658789600128348,-1.4343480582895154,-0.45777065690094787,-2.655069810025225
1658789600144344,-2.8992141603723667,-1.6174563210497581,-2.655069810025225
1658789600160341,-2.8381780727854675,-2.410925459678083,-2.288853284504512
1658789600176337,-1.1291676203554744,-2.8381780727854675,-2.166781109330941
1658789600192334,-0.2746623941404778,-3.0823224231326094,-2.227817196917613
1658789600208330,-1.5564202334630863,-3.5095750362402214,-2.105745021744042
1658789600224327,-1.6784924086366573,-3.2654306858930795,-1.1902037079423735
1658789600240323,-0.45777065690094787,-2.9602502479590385,-0.6408789196611906
1658789600256320,1.3733119707026162,-3.0212863355459376,-0.7629510948347615
1658789600272316,1.739528496223329,-3.3875028610666504,-1.0070954451819034
1658789600288177,1.3122758831159445,-3.570611123826893,-0.5188067444876197
1658789600304173,2.227817196917613,-3.3875028610666504,0.03051804379333589
1658789600320169,2.8381780727854675,-3.0823224231326094,0.213626306553806
1658789600336165,2.7771419851987957,-2.8381780727854675,0.5798428320745188
1658789600352161,1.6174563210497581,-3.3264667734797513,0.9460593575952316
1658789600368157,-0.5188067444876197,-3.2654306858930795,1.6784924086366573
1658789600384153,-1.0681315327688026,-3.3264667734797513,1.983672846570471
1658789600400149,-0.7019150072480898,-3.1433585107195086,2.3498893720911838
1658789600416145,-1.3122758831159445,-3.3875028610666504,2.288853284504512
1658789600432141,-4.303044174868319,-3.875791561760934,2.166781109330941
1658789600448137,-4.791332875562603,-3.570611123826893,2.410925459678083
1658789600464133,-2.8992141603723667,-3.0212863355459376,2.7161058976118966
1658789600480129,0.33569848172737693,-2.288853284504512,3.0823224231326094
1658789600496125,1.739528496223329,-1.9226367589837992,2.8992141603723667
1658789600512121,2.3498893720911838,-1.9226367589837992,2.166781109330941
1658789600528117,3.0823224231326094,-2.105745021744042,2.4719615472647547
1658789600544113,4.058899824521177,-2.288853284504512,3.0212863355459376
1658789600560109,2.7771419851987957,-2.3498893720911838,3.0823224231326094
1658789600576105,-1.739528496223329,-2.532997634851654,2.532997634851654
1658789600592101,-3.814755474174035,-2.655069810025225,1.739528496223329
1658789600608032,-3.2654306858930795,-2.3498893720911838,1.8005645838102282
1658789600624027,-1.1902037079423735,-2.04470893415737,1.739528496223329
1658789600640023,-0.8239871824216607,-1.5564202334630863,1.983672846570471
1658789600656018,0.33569848172737693,-1.0681315327688026,1.8005645838102282
1658789600672014,1.3733119707026162,-0.45777065690094787,2.04470893415737
1658789600688009,2.532997634851654,-0.5798428320745188,1.8616006713969
1658789600704005,1.1291676203554744,-0.7019150072480898,2.04470893415737
1658789600720000,-1.3733119707026162,-0.8850232700083325,1.6174563210497581
1658789600735996,-2.3498893720911838,-0.6408789196611906,1.6174563210497581
1658789600751991,-1.8005645838102282,-0.2746623941404778,1.6784924086366573
1658789600767987,-0.8850232700083325,-0.213626306553806,1.6174563210497581
1658789600783982,-1.0070954451819034,-0.5798428320745188,1.4343480582895154
1658789600799978,-0.8850232700083325,-0.5188067444876197,1.5564202334630863
1658789600815973,-0.15259021896690683,-0.45777065690094787,1.6174563210497581
1658789600831969,-0.213626306553806,-0.45777065690094787,1.8005645838102282
1658789600847964,-0.9460593575952316,-0.2746623941404778,1.4343480582895154
1658789600863960,-0.213626306553806,0.09155413138023505,1.1902037079423735
1658789600879955,0.5798428320745188,-0.03051804379333589,0.8850232700083325
1658789600895951,0.8850232700083325,-0.5798428320745188,0.6408789196611906
1658789600911946,0.7629510948347615,-0.9460593575952316,0.5188067444876197
1658789600927856,0.8239871824216607,-0.7019150072480898,0.7629510948347615
1658789600943852,1.2512397955290453,-0.03051804379333589,1.2512397955290453
1658789600959847,0.6408789196611906,-0.03051804379333589,1.1291676203554744
1658789600975843,0.213626306553806,-0.5798428320745188,1.2512397955290453
1658789600991838,0.03051804379333589,-0.8850232700083325,1.4343480582895154
1658789601007834,-0.09155413138023505,-0.9460593575952316,1.3733119707026162
1658789601023829,-0.7019150072480898,-0.8850232700083325,1.2512397955290453
1658789601039825,-0.15259021896690683,-0.45777065690094787,1.3122758831159445
1658789601055820,0.3967345693140487,-0.03051804379333589,1.3733119707026162
1658789601071816,0.8239871824216607,0.7019150072480898,1.8616006713969
1658789601087811,1.983672846570471,0.8850232700083325,1.739528496223329
1658789601103807,1.5564202334630863,0.33569848172737693,1.8005645838102282
1658789601119802,0.33569848172737693,-0.15259021896690683,1.9226367589837992
1658789601135798,-0.6408789196611906,-0.3967345693140487,1.983672846570471
1658789601151793,-0.7019150072480898,-0.45777065690094787,1.8616006713969
1658789601167789,-0.5798428320745188,-0.5188067444876197,1.3733119707026162
1658789601183784,-0.5188067444876197,-0.5798428320745188,1.0070954451819034
1658789601199780,-0.8850232700083325,-0.33569848172737693,1.3122758831159445
1658789601215775,0.7019150072480898,0.15259021896690683,1.9226367589837992
1658789601231771,2.288853284504512,0.09155413138023505,2.227817196917613
1658789601247680,2.410925459678083,-0.3967345693140487,2.04470893415737
1658789601263675,1.3733119707026162,-1.1902037079423735,1.4953841458761872
1658789601279670,0.03051804379333589,-1.983672846570471,1.3122758831159445
1658789601295665,-0.3967345693140487,-2.227817196917613,1.5564202334630863
1658789601311660,-0.9460593575952316,-2.227817196917613,1.2512397955290453
1658789601327655,-1.8616006713969,-2.166781109330941,1.0681315327688026
1658789601343650,-1.5564202334630863,-1.9226367589837992,1.1291676203554744
1658789601359645,-0.45777065690094787,-1.6174563210497581,1.4953841458761872
1658789601375640,0.5798428320745188,-1.4343480582895154,1.6784924086366573
1658789601391636,0.8850232700083325,-1.739528496223329,1.3733119707026162
1658789601407631,0.9460593575952316,-1.4953841458761872,1.0681315327688026
1658789601423626,0.33569848172737693,-1.1902037079423735,1.1902037079423735
1658789601439621,0.09155413138023505,-0.6408789196611906,1.6174563210497581
1658789601455616,0.03051804379333589,-0.3967345693140487,1.8005645838102282
1658789601471611,-0.7019150072480898,-0.03051804379333589,2.227817196917613
1658789601487606,-1.0070954451819034,-0.03051804379333589,2.288853284504512
1658789601503601,-0.15259021896690683,0.09155413138023505,2.166781109330941
1658789601519596,0.8850232700083325,-0.03051804379333589,2.227817196917613
1658789601535591,0.7629510948347615,-0.15259021896690683,1.983672846570471
1658789601551586,0.33569848172737693,-0.33569848172737693,1.6784924086366573
1658789601567505,-0.213626306553806,-0.7019150072480898,1.3122758831159445
1658789601583499,-0.8850232700083325,-1.3733119707026162,1.0681315327688026
1658789601599494,-0.8850232700083325,-2.04470893415737,1.1291676203554744
1658789601615488,-0.9460593575952316,-2.227817196917613,0.7629510948347615
1658789601631483,0.09155413138023505,-2.166781109330941,0.7629510948347615
1658789601647477,0.5798428320745188,-2.532997634851654,0.5188067444876197
1658789601663472,1.0070954451819034,-2.532997634851654,0.8850232700083325
1658789601679466,1.0681315327688026,-2.288853284504512,1.3122758831159445
1658789601695461,1.2512397955290453,-1.983672846570471,1.1902037079423735
1658789601711455,1.4953841458761872,-1.9226367589837992,1.0681315327688026
1658789601727450,1.9226367589837992,-2.4719615472647547,0.9460593575952316
1658789601743445,0.6408789196611906,-3.0823224231326094,0.8850232700083325
1658789601759439,-1.1291676203554744,-2.8992141603723667,1.0681315327688026
1658789601775434,-2.288853284504512,-1.8616006713969,1.0681315327688026
1658789601791428,-1.983672846570471,-0.3967345693140487,1.5564202334630863
1658789601807423,-1.0070954451819034,0.45777065690094787,1.3733119707026162
1658789601823417,-0.03051804379333589,0.33569848172737693,1.4953841458761872
1658789601839412,1.1291676203554744,-0.09155413138023505,1.4343480582895154
1658789601855406,2.04470893415737,-0.8239871824216607,1.3122758831159445
1658789601871401,0.45777065690094787,-1.0681315327688026,1.1291676203554744
1658789601887359,-1.3122758831159445,-0.7629510948347615,0.5798428320745188
1658789601903354,-1.8005645838102282,-0.03051804379333589,0.7019150072480898
1658789601919348,-1.1291676203554744,0.2746623941404778,0.9460593575952316
1658789601935343,-0.5188067444876197,0.09155413138023505,1.1291676203554744
1658789601951337,0.2746623941404778,-0.15259021896690683,1.5564202334630863
1658789601967332,1.4953841458761872,-0.33569848172737693,1.739528496223329
1658789601983327,1.4343480582895154,-0.7019150072480898,1.6174563210497581
1658789601999321,0.2746623941404778,-1.2512397955290453,0.8239871824216607
1658789602015316,-0.9460593575952316,-1.4953841458761872,0.2746623941404778
1658789602031310,-0.7629510948347615,-1.5564202334630863,0.33569848172737693
1658789602047305,-0.213626306553806,-1.6174563210497581,0.6408789196611906
1658789602063299,-0.09155413138023505,-1.5564202334630863,1.3122758831159445
1658789602079294,-0.213626306553806,-0.9460593575952316,1.6784924086366573
1658789602095288,-0.15259021896690683,-0.33569848172737693,1.3122758831159445
1658789602111283,1.2512397955290453,-0.213626306553806,0.9460593575952316
1658789602127277,2.410925459678083,-0.7019150072480898,0.8850232700083325
1658789602143272,1.9226367589837992,-1.8005645838102282,0.15259021896690683
1658789602159267,0.8850232700083325,-2.4719615472647547,-0.03051804379333589
1658789602175261,-0.5188067444876197,-2.410925459678083,0.03051804379333589
1658789602191256,-1.2512397955290453,-1.739528496223329,0.213626306553806
1658789602207153,-1.0681315327688026,-0.9460593575952316,0.45777065690094787
1658789602223147,-0.7629510948347615,-1.0070954451819034,0.5798428320745188
1658789602239141,0.2746623941404778,-1.1291676203554744,0.8239871824216607
1658789602255135,1.0070954451819034,-1.4953841458761872,0.7019150072480898
1658789602271129,1.4343480582895154,-1.1902037079423735,0.9460593575952316
1658789602287123,1.4953841458761872,-0.8850232700083325,0.9460593575952316
1658789602303117,1.5564202334630863,-0.6408789196611906,0.7629510948347615
1658789602319111,-0.09155413138023505,-1.1291676203554744,0.5188067444876197
1658789602335106,-2.166781109330941,-1.6784924086366573,0.3967345693140487
1658789602351100,-1.983672846570471,-1.3122758831159445,1.1902037079423735
1658789602367094,-0.33569848172737693,-0.5798428320745188,1.5564202334630863
1658789602383088,0.213626306553806,-0.15259021896690683,1.2512397955290453
1658789602399082,-0.15259021896690683,-0.5188067444876197,0.7629510948347615
1658789602415076,-0.8239871824216607,-1.0070954451819034,0.5798428320745188
1658789602431070,0.15259021896690683,-1.0681315327688026,0.8850232700083325
1658789602447064,-0.3967345693140487,-0.7019150072480898,1.3122758831159445
1658789602463058,-0.7019150072480898,-0.5798428320745188,1.4953841458761872
1658789602479052,-0.8850232700083325,-1.0681315327688026,1.5564202334630863
1658789602495046,-1.0070954451819034,-1.3122758831159445,1.9226367589837992
1658789602511040,-0.7629510948347615,-1.8005645838102282,1.6784924086366573
1658789602526977,-1.0681315327688026,-1.8005645838102282,1.3733119707026162
1658789602542971,-0.5188067444876197,-1.6174563210497581,1.6784924086366573
1658789602558965,0.5798428320745188,-1.739528496223329,1.2512397955290453
1658789602574959,1.4343480582895154,-2.166781109330941,0.5188067444876197
1658789602590953,1.5564202334630863,-3.0212863355459376,0.03051804379333589
1658789602606948,0.9460593575952316,-3.814755474174035,-0.213626306553806
1658789602622942,0.15259021896690683,-3.936827649347606,-0.09155413138023505
1658789602638936,0.7019150072480898,-3.814755474174035,-0.03051804379333589
1658789602654930,0.45777065690094787,-3.936827649347606,0.09155413138023505
1658789602670924,-0.03051804379333589,-4.486152437628789,0.09155413138023505
1658789602686918,-0.5188067444876197,-4.9134050507361735,0.45777065690094787
1658789602702912,-0.5798428320745188,-5.462729839017356,0.45777065690094787
1658789602718906,-0.8850232700083325,-5.645838101777599,0.213626306553806
1658789602734900,-1.1291676203554744,-5.95101853971164,-0.2746623941404778
1658789602750894,-1.8616006713969,-6.683451590753066,-1.1902037079423735
1658789602766888,-2.532997634851654,-7.17174029144735,-1.2512397955290453
1658789602782882,-0.2746623941404778,-7.11070420386045,-1.0070954451819034
1658789602798876,2.410925459678083,-6.805523765926637,-1.1291676203554744
1658789602814870,4.852368963149502,-6.8665598535133086,-1.6174563210497581
1658789602830865,5.096513313496644,-7.17174029144735,-2.5940337224383256
1658789602846832,3.2043945983061803,-7.782101167315204,-3.0823224231326094
1658789602862826,-3.2043945983061803,-7.354848554207592,-3.0212863355459376
1658789602878820,-7.4158846417944915,-5.645838101777599,-2.04470893415737
1658789602894814,-8.758678568703772,-3.3875028610666504,-0.7019150072480898
1658789602910808,-8.026245517662346,-1.4343480582895154,0.6408789196611906
1658789602926802,-5.706874189364498,-0.213626306553806,1.739528496223329
1658789602942796,-1.6784924086366573,0.9460593575952316,2.9602502479590385
1658789602958790,2.5940337224383256,1.3122758831159445,3.0212863355459376
1658789602974784,5.279621576256886,1.6784924086366573,3.3875028610666504
1658789602990779,4.42511635004189,1.983672846570471,3.0212863355459376
1658789603006773,1.6784924086366573,2.4719615472647547,2.7161058976118966
1658789603022767,-0.8850232700083325,2.8381780727854675,2.8992141603723667
1658789603038761,-2.288853284504512,2.4719615472647547,3.1433585107195086
1658789603054755,-2.7161058976118966,1.9226367589837992,3.1433585107195086
1658789603070749,-2.105745021744042,1.4343480582895154,3.3875028610666504
1658789603086743,-0.3967345693140487,1.739528496223329,3.997863736934505
1658789603102737,1.4953841458761872,1.983672846570471,4.303044174868319
1658789603118731,3.5095750362402214,1.2512397955290453,3.692683299000464
1658789603134725,5.3406576638437855,-0.213626306553806,2.7771419851987957
1658789603150719,6.073090714885211,-2.288853284504512,1.3733119707026162
1658789603166626,4.60822461280236,-4.119935912108076,0.213626306553806
1658789603182619,1.2512397955290453,-5.706874189364498,-1.0070954451819034
1658789603198613,-2.8381780727854675,-6.744487678339738,-1.8005645838102282
1658789603214606,-5.157549401083315,-7.598992904554734,-1.9226367589837992
1658789603230600,-5.157549401083315,-8.148317692835917,-1.2512397955290453
1658789603246594,-3.4485389486533222,-8.819714656290444,-0.7629510948347615
1658789603262587,-1.4343480582895154,-9.308003356984727,-0.7019150072480898
1658789603278581,0.2746623941404778,-9.979400320439481,-1.4953841458761872
1658789603294574,-1.1291676203554744,-10.89494163424115,-2.04470893415737
1658789603310568,-4.852368963149502,-11.383230334935433,-1.983672846570471
1658789603326562,-7.476920729381163,-11.810482948043045,-1.6784924086366573
1658789603342555,-6.805523765926637,-12.4208438239109,-0.8239871824216607
1658789603358549,-5.95101853971164,-14.618142977035177,-0.8850232700083325
1658789603374542,-6.683451590753066,-17.181658655680167,-2.227817196917613
1658789603390536,-5.2185854886702145,-19.9282825970854,-4.180971999694748
1658789603406530,-3.3264667734797513,-22.73594262607753,-6.561379415579495
1658789603422523,-2.532997634851654,-25.42153047989609,-8.880750743877343
1658789603438517,-3.4485389486533222,-27.557793545433697,-10.711833371480907
1658789603454510,-2.9602502479590385,-28.656443121995835,-11.139085984588291
1658789603470504,-2.04470893415737,-29.571984435797503,-11.139085984588291
1658789603486480,-3.0823224231326094,-30.36545357442583,-10.467689021133765
1658789603502474,-4.852368963149502,-30.853742275120112,-9.979400320439481
1658789603518468,-6.195162890058782,-31.097886625467254,-8.880750743877343
1658789603534461,-7.782101167315204,-30.975814450293683,-7.354848554207592
1658789603550455,-8.026245517662346,-31.158922713053926,-6.500343327992596
1658789603566448,-9.002822919050914,-31.403067063401295,-5.706874189364498
1658789603582442,-9.308003356984727,-32.01342793926915,-5.0354772259097444
1658789603598436,-8.758678568703772,-32.50171663996343,-4.791332875562603
1658789603614429,-6.256198977645454,-33.23414969100486,-5.401693751430457
1658789603630423,-1.9226367589837992,-34.088654917219856,-5.401693751430457
1658789603646416,-0.15259021896690683,-35.91973754482342,-7.232776379034021
1658789603662410,0.2746623941404778,-37.62874799725341,-9.308003356984727
1658789603678403,0.7629510948347615,-39.03257801174959,-10.528725108720437
1658789603694397,-0.3967345693140487,-40.558480201419115,-10.955977721828049
1658789603710391,-4.60822461280236,-41.71816586556815,-11.505302510109004
1658789603726384,-9.613183794918768,-42.02334630350197,-11.627374685282575
1658789603742378,-12.115663385976859,-41.840238040741724,-11.20012207217519
1658789603758371,-15.167467765316132,-42.51163500419625,-11.01701380941472
1658789603774365,-17.60891126878755,-42.93888761730386,-11.07804989700162
1658789603790359,-14.618142977035177,-43.67132066834529,-11.383230334935433
1658789603806335,-8.758678568703772,-44.892042420081,-11.566338597695903
1658789603822329,-6.073090714885211,-46.72312504768456,-12.542915999084471
1658789603838322,-6.378271152819025,-48.310063324940984,-14.068818188753994
1658789603854316,-8.45349813076973,-49.34767681391622,-14.80125123979542
1658789603870309,-11.322194247348762,-49.04249637598241,-15.228503852903032
1658789603886303,-13.275349050125897,-48.6762798504617,-16.02197299153113
1658789603902297,-15.411612115663274,-48.18799114976741,-15.838864728770886
1658789603918290,-15.045395590142562,-48.6152437628748,-16.02197299153113
1658789603934284,-13.824673838406852,-48.98146028839551,-16.632333867398984
1658789603950277,-10.284580758373295,-47.8217746242467,-15.289539940489703
1658789603966271,-5.279621576256886,-46.17380025940338,-13.336385137712568
1658789603982265,-1.5564202334630863,-45.31929503318838,-12.176699473563758
1658789603998258,-0.5798428320745188,-45.62447547112242,-12.787060349431613
1658789604014252,1.1291676203554744,-45.685511558709095,-13.824673838406852
1658789604030245,5.462729839017356,-45.31929503318838,-14.435034714274707
1658789604046239,8.880750743877343,-47.211413748378845,-15.045395590142562
1658789604062233,5.76791027695117,-50.812542915999074,-17.730983443961122
1658789604078226,-1.3733119707026162,-53.19295033188382,-20.05035477225897
1658789604094220,-8.697642481116873,-54.29159990844596,-19.745174334325156
1658789604110213,-15.289539940489703,-55.51232166018167,-20.05035477225897
1658789604126129,-17.914091706721592,-56.73304341191738,-20.416571297779683
1658789604142122,-17.914091706721592,-56.122682536049524,-19.745174334325156
1658789604158115,-16.815442130159454,-55.51232166018167,-19.317921721217544
1658789604174108,-12.054627298390187,-54.901960784313815,-18.76859693293659
1658789604190101,-3.0823224231326094,-55.75646601052881,-18.646524757763018
1658789604206094,5.706874189364498,-57.64858472571905,-19.867246509498727
1658789604222087,9.308003356984727,-59.1744869153888,-20.538643472953254
1658789604238081,8.51453421835663,-60.21210040436404,-21.27107652399468
1658789604254074,5.0354772259097444,-60.70038910505832,-22.003509575036105
1658789604270067,1.3122758831159445,-61.310749980926175,-22.430762188143717
1658789604286060,-6.378271152819025,-61.92111085679403,-23.102159151598244
1658789604302053,-13.214312962538997,-62.714579995422355,-22.003509575036105
1658789604318046,-16.815442130159454,-64.91187914854663,-22.552834363317288
1658789604334039,-18.76859693293659,-65.33913176165402,-24.13977264057371
1658789604350032,-15.533684290836845,-64.1794460975052,-23.773556115052997
1658789604366026,-11.383230334935433,-63.63012130922402,-23.529411764705856
1658789604382019,-6.073090714885211,-64.9729152361333,-24.26184481574728
1658789604398012,-0.8239871824216607,-65.40016784924092,-24.26184481574728
1658789604414005,0.5798428320745188,-65.64431219958806,-24.872205691615136
1658789604429998,-3.1433585107195086,-64.85084306095973,-24.750133516441565
1658789604445953,-5.706874189364498,-63.38597695887688,-23.89562829022657
1658789604461946,-7.476920729381163,-62.1042191195545,-23.407339589532285
1658789604477939,-7.843137254901876,-61.79903868162046,-24.01770046540014
1658789604493932,-9.613183794918768,-61.615930418860216,-24.628061341267994
1658789604509925,-12.4208438239109,-60.82246128023189,-24.322880903333953
1658789604525919,-11.566338597695903,-58.503089951934044,-23.468375677118956
1658789604541912,-6.256198977645454,-56.61097123674381,-20.843823910887295
1658789604557905,-1.4953841458761872,-56.244754711223095,-19.378957808804444
1658789604573898,-2.166781109330941,-57.526512550545476,-20.843823910887295
1658789604589891,-8.270389868009488,-57.83169298847952,-22.186617837796575
1658789604605884,-10.589761196307336,-54.4747081712062,-19.195849546043974
1658789604621877,-7.11070420386045,-51.36186770428026,-15.10643167772946
1658789604637870,-7.537956816968062,-51.91119249256121,-16.08300907911803
1658789604653864,-10.162508583199724,-51.239795529106686,-16.937514305333025
1658789604669857,-9.73525597009234,-49.95803768978408,-16.26611734187827
1658789604685850,-5.828946364538069,-46.78416113527123,-13.76363775082018
1658789604701843,-3.0212863355459376,-44.525825894560285,-11.932555123216616
1658789604717836,0.15259021896690683,-42.57267109178315,-11.932555123216616
1658789604733829,5.584802014190927,-42.45059891660958,-10.528725108720437
1658789604749822,4.058899824521177,-44.525825894560285,-12.664988174258042
1658789604765777,3.0823224231326094,-43.9765011062791,-13.275349050125897
1658789604781770,1.5564202334630863,-40.558480201419115,-9.246967269398056
1658789604797763,-1.983672846570471,-39.76501106279102,-7.11070420386045
1658789604813757,-9.613183794918768,-40.741588464179586,-9.796292057679011
1658789604829750,-12.726024261844714,-39.64293888761745,-10.772869459067579
1658789604845743,-8.087281605249018,-36.835278858625315,-7.965209430075447
1658789604861736,-2.4719615472647547,-36.4080262455177,-6.500343327992596
1658789604877729,-0.7019150072480898,-37.994964522774126,-8.270389868009488
1658789604893722,0.45777065690094787,-38.42221713588174,-9.124895094224485
1658789604909715,3.0823224231326094,-37.50667582207984,-8.697642481116873
1658789604925708,3.997863736934505,-37.01838712138556,-8.209353780422589
1658789604941702,1.9226367589837992,-37.20149538414603,-10.467689021133765
1658789604957695,0.33569848172737693,-36.04180971999699,-10.955977721828049
1658789604973688,-3.570611123826893,-34.88212405584818,-11.810482948043045
1658789604989681,-6.500343327992596,-34.149691004806755,-11.444266422522333
1658789605005674,-10.467689021133765,-32.07446402685605,-8.941786831464015
1658789605021667,-8.941786831464015,-29.32784008545036,-5.462729839017356
1658789605037660,-2.410925459678083,-27.008468757152514,-3.2043945983061803
1658789605053653,7.232776379034021,-27.252613107499656,-2.105745021744042
1658789605069646,9.613183794918768,-31.036850537880355,-4.669260700389032
1658789605085601,8.209353780422589,-33.41725795376533,-5.462729839017356
1658789605101594,6.622415503166167,-31.525139238574866,-4.242008087281647
1658789605117587,3.692683299000464,-30.60959792477297,-4.60822461280236
1658789605133579,-2.4719615472647547,-30.30441748683893,-6.9886320286868795
1658789605149572,-5.889982452124741,-30.060273136491787,-8.392462043183059
1658789605165565,-6.317235065232353,-30.792706187533213,-8.880750743877343
1658789605181557,-6.8665598535133086,-31.89135576409558,-9.308003356984727
1658789605197550,-3.814755474174035,-30.975814450293683,-7.721065079728305
1658789605213543,2.3498893720911838,-29.14473182269012,-4.058899824521177
1658789605229535,7.354848554207592,-30.4264896620125,-4.9134050507361735
1658789605245528,9.73525597009234,-32.623788815137004,-7.476920729381163
1658789605261520,7.2938124666209205,-35.06523231860842,-9.308003356984727
1658789605277513,1.6784924086366573,-34.57694361791414,-9.430075532158298
1658789605293506,0.213626306553806,-30.975814450293683,-7.049668116273779
1658789605309498,3.2654306858930795,-27.86297398336751,-2.7771419851987957
1658789605325491,5.462729839017356,-28.04608224612798,-2.288853284504512
1658789605341484,5.645838101777599,-31.403067063401295,-5.706874189364498
1658789605357476,4.9134050507361735,-33.41725795376533,-5.76791027695117
1658789605373469,6.683451590753066,-33.051041428244616,-3.0823224231326094
1658789605389462,6.622415503166167,-32.867933165484146,-2.655069810025225
1658789605405426,2.532997634851654,-34.149691004806755,-6.134126802471883
1658789605421418,-2.4719615472647547,-33.90554665445961,-8.758678568703772
1658789605437411,-6.500343327992596,-31.830319676508907,-9.002822919050914
1658789605453404,-3.3875028610666504,-28.717479209582507,-5.645838101777599
1658789605469396,0.9460593575952316,-27.130540932326085,-3.2654306858930795
1658789605485389,8.51453421835663,-27.74090180819394,-3.936827649347606
1658789605501381,11.505302510109004,-29.755092698557974,-5.584802014190927
1658789605517374,12.359807736324,-30.73167009994654,-6.073090714885211
1658789605533367,10.833905546654478,-30.73167009994654,-6.683451590753066
1658789605549359,4.119935912108076,-28.473334859235365,-6.134126802471883
1658789605565352,1.3122758831159445,-25.17738612954895,-3.0823224231326094
1658789605581345,-1.1902037079423735,-23.529411764705856,-2.3498893720911838
1658789605597337,0.5188067444876197,-23.773556115052997,-3.4485389486533222
1658789605613330,2.166781109330941,-25.116350041962278,-3.3875028610666504
1658789605629323,0.5798428320745188,-27.313649195086555,-4.180971999694748
1658789605645315,0.8850232700083325,-27.61882963302037,-4.974441138323073
1658789605661308,0.7019150072480898,-25.909819180590375,-4.730296787975931
1658789605677301,0.213626306553806,-24.322880903333953,-4.486152437628789
1658789605693293,-3.3264667734797513,-22.79697871366443,-3.936827649347606
1658789605709286,-7.904173342488775,-20.721751735713724,-2.7161058976118966
1658789605725250,-9.491111619745197,-17.914091706721592,-1.4343480582895154
1658789605741243,-9.063859006637585,-16.388189517051842,-0.9460593575952316
1658789605757235,-8.026245517662346,-14.80125123979542,-0.5798428320745188
1658789605773228,-3.3264667734797513,-12.054627298390187,0.9460593575952316
1658789605789220,2.227817196917613,-8.33142595559616,2.227817196917613
1658789605805213,3.7537193865873633,-5.2185854886702145,3.2043945983061803
1658789605821206,6.500343327992596,-1.8616006713969,3.814755474174035
1658789605837198,7.4158846417944915,1.4953841458761872,4.303044174868319
1658789605853191,7.843137254901876,3.6316472114137923,5.096513313496644
1658789605869184,6.317235065232353,5.889982452124741,4.42511635004189
1658789605885176,4.730296787975931,9.002822919050914,3.814755474174035
1658789605901169,2.227817196917613,11.505302510109004,2.8381780727854675
1658789605917162,-0.7019150072480898,14.007782101167322,3.3875028610666504
1658789605933154,-3.2654306858930795,15.167467765316132,3.3875028610666504
1658789605949147,-4.669260700389032,16.26611734187827,2.532997634851654
1658789605965139,-4.486152437628789,18.280308232242305,2.8381780727854675
1658789605981132,-3.2043945983061803,20.599679560540153,3.0212863355459376
1658789605997125,-3.5095750362402214,21.57625696192872,2.7771419851987957
1658789606013117,-0.7629510948347615,23.163195239185143,4.42511635004189
1658789606029110,0.7019150072480898,25.23842221713585,5.584802014190927
1658789606045105,2.288853284504512,27.252613107499656,5.95101853971164
1658789606061097,3.692683299000464,28.290226596475122,5.828946364538069
1658789606077090,3.814755474174035,29.20576791027679,6.9886320286868795
1658789606093083,3.2654306858930795,28.290226596475122,7.11070420386045
1658789606109075,4.242008087281647,27.80193789578084,6.927595941100208
1658789606125068,2.4719615472647547,27.191577019912984,6.073090714885211
1658789606141060,-1.3733119707026162,26.092927443350845,4.242008087281647
1658789606157053,-3.936827649347606,25.42153047989609,3.3264667734797513
1658789606173046,-1.983672846570471,26.276035706111088,2.4719615472647547
1658789606189038,-1.1902037079423735,26.52018005645823,1.5564202334630863
1658789606205031,-1.5564202334630863,26.58121614404513,0.9460593575952316
1658789606221024,1.6784924086366573,27.130540932326085,2.166781109330941
1658789606237016,6.9886320286868795,28.16815442130155,4.669260700389032
1658789606253009,11.261158159761862,28.656443121995835,5.828946364538069
1658789606269002,11.139085984588291,28.839551384756078,6.195162890058782
1658789606284994,9.67421988250544,28.656443121995835,6.378271152819025
1658789606300987,9.369039444571627,29.755092698557974,7.843137254901876
1658789606316980,10.223544670786623,30.54856183718607,8.941786831464015
1658789606332972,8.026245517662346,28.778515297169406,8.087281605249018
1658789606348965,2.105745021744042,26.153963530937517,6.9886320286868795
1658789606364898,-2.9602502479590385,24.811169604028237,7.232776379034021
1658789606380891,-3.3264667734797513,24.872205691615136,8.33142595559616
1658789606396884,-0.7629510948347615,24.444953078507524,7.782101167315204
1658789606412876,1.8005645838102282,23.285267414358714,6.195162890058782
1658789606428869,3.2043945983061803,21.69832913710229,4.669260700389032
1658789606444862,1.9226367589837992,21.087968261234437,4.364080262455218
1658789606460854,3.1433585107195086,22.003509575036105,6.378271152819025
1658789606476847,5.706874189364498,22.8580148012511,9.430075532158298
1658789606492839,6.9886320286868795,22.61387045090396,9.124895094224485
1658789606508832,6.317235065232353,21.210040436408008,8.880750743877343
1658789606524825,4.180971999694748,20.477607385366582,9.063859006637585
1658789606540817,1.9226367589837992,20.23346303501944,9.73525597009234
1658789606556810,-0.2746623941404778,20.35553521019301,9.918364232852582
1658789606572803,-1.4343480582895154,21.210040436408008,9.918364232852582
1658789606588795,-3.2654306858930795,21.27107652399468,9.002822919050914
1658789606604788,-2.8381780727854675,21.759365224688963,9.308003356984727
1658789606620781,0.5798428320745188,22.308690012970146,11.261158159761862
1658789606636773,1.9226367589837992,21.51522087434182,10.955977721828049
1658789606652766,2.410925459678083,21.087968261234437,10.040436408026153
1658789606668758,0.3967345693140487,22.186617837796575,9.979400320439481
1658789606684723,2.532997634851654,24.26184481574728,12.115663385976859
1658789606700715,4.180971999694748,24.933241779201808,13.519493400473038
1658789606716707,3.875791561760934,24.383916990920852,12.359807736324
1658789606732699,3.5095750362402214,25.29945830472252,12.23773556115043
1658789606748691,5.462729839017356,26.764324406805372,14.373998626688035
1658789606764683,6.683451590753066,26.214999618524416,14.618142977035177
1658789606780676,6.500343327992596,25.116350041962278,15.10643167772946
1658789606796668,6.561379415579495,24.200808728160382,14.251926451514464
1658789606812660,3.4485389486533222,23.102159151598244,12.787060349431613
1658789606828652,-0.5798428320745188,21.942473487449433,11.20012207217519
1658789606844644,-1.8616006713969,21.45418478675515,10.589761196307336
1658789606860636,-3.3264667734797513,19.9282825970854,7.721065079728305
1658789606876629,-5.096513313496644,19.195849546043974,5.401693751430457
1658789606892621,-4.974441138323073,19.684138246738257,4.9134050507361735
1658789606908613,-0.213626306553806,21.210040436408008,6.622415503166167
1658789606924605,4.60822461280236,21.637293049515392,7.965209430075447
1658789606940597,8.6366063935302,21.087968261234437,7.904173342488775
1658789606956589,10.223544670786623,20.416571297779683,7.354848554207592
1658789606972581,8.880750743877343,20.477607385366582,6.683451590753066
1658789606988574,6.073090714885211,21.27107652399468,6.195162890058782
1658789607004547,3.875791561760934,22.552834363317288,6.134126802471883
1658789607020539,2.410925459678083,22.49179827573039,5.401693751430457
1658789607036531,0.213626306553806,22.125581750209676,4.486152437628789
1658789607052523,-0.7019150072480898,22.73594262607753,4.303044174868319
1658789607068515,0.03051804379333589,23.83459220263967,5.157549401083315
1658789607084508,1.3733119707026162,23.89562829022657,5.523765926604028
1658789607100500,3.936827649347606,23.83459220263967,4.852368963149502
1658789607116492,3.692683299000464,23.7125200274661,4.547188525215461
1658789607132484,1.1902037079423735,24.750133516441565,4.730296787975931
1658789607148476,0.213626306553806,26.214999618524416,5.584802014190927
1658789607164468,-0.7629510948347615,26.58121614404513,6.134126802471883
1658789607180461,-0.8850232700083325,25.909819180590375,4.852368963149502
1658789607196453,-1.3733119707026162,25.970855268177274,4.730296787975931
1658789607212445,0.7629510948347615,27.80193789578084,6.9886320286868795
1658789607228437,1.6784924086366573,28.595407034408936,8.392462043183059
1658789607244429,3.936827649347606,29.32784008545036,8.270389868009488
1658789607260421,4.974441138323073,29.08369573510322,7.11070420386045
1658789607276414,4.60822461280236,29.51094834821083,6.439307240405924
1658789607292406,6.134126802471883,30.30441748683893,7.17174029144735
1658789607308398,5.523765926604028,31.097886625467254,7.904173342488775
1658789607324371,3.570611123826893,31.342030975814396,8.087281605249018
1658789607340363,1.3122758831159445,32.19653620202939,9.246967269398056
1658789607356355,-1.0070954451819034,33.3562218661782,10.345616845960194
1658789607372347,-0.33569848172737693,35.065232318608196,11.505302510109004
1658789607388340,2.8381780727854675,36.04180971999676,12.970168612191856
1658789607404332,5.401693751430457,35.85870145723652,12.664988174258042
1658789607420324,6.195162890058782,35.79766536964962,12.23773556115043
1658789607436316,8.026245517662346,36.95735103379866,14.129854276340893
1658789607452308,8.941786831464015,37.506675822079615,14.251926451514464
1658789607468300,5.0354772259097444,37.811856260013656,12.970168612191856
1658789607484293,1.8005645838102282,38.36118104829461,13.58052948805971
1658789607500285,2.166781109330941,38.727397573815324,14.92332341496899
1658789607516277,4.303044174868319,38.54428931105508,14.496070801861606
1658789607532269,4.791332875562603,38.23910887312104,13.275349050125897
1658789607548261,4.852368963149502,38.910505836575794,13.336385137712568
1658789607564253,8.209353780422589,39.94811932555103,14.068818188753994
1658789607580246,10.223544670786623,40.070191500724604,14.251926451514464
1658789607596238,10.772869459067579,39.032578011749365,13.275349050125897
1658789607612230,5.706874189364498,37.93392843518723,11.871519035629717
1658789607628222,1.1291676203554744,38.78843366140222,12.4208438239109
1658789607644195,1.5564202334630863,40.68055237659246,15.594720378423744
1658789607660187,1.6174563210497581,39.94811932555103,14.862287327382319
1658789607676180,1.4343480582895154,38.23910887312104,13.64156557564661
1658789607692172,-0.8239871824216607,37.567711909666514,13.45845731288614
1658789607708164,-1.4953841458761872,38.36118104829461,14.557106889448278
1658789607724156,1.0070954451819034,38.849469748988895,15.960936903944457
1658789607740148,4.60822461280236,38.23910887312104,15.10643167772946
1658789607756140,4.9134050507361735,36.77424277103819,13.092240787365427
1658789607772132,3.2043945983061803,36.10284580758366,11.688410772869474
1658789607788125,3.3264667734797513,36.163881895170334,12.054627298390187
1658789607804117,3.875791561760934,36.346990157930804,12.23773556115043
1658789607820109,5.462729839017356,35.126268406195095,11.383230334935433
1658789607836101,2.04470893415737,33.722438391698915,9.613183794918768
1658789607852093,-1.8616006713969,33.600366216525344,8.6366063935302
1658789607868085,-2.166781109330941,34.88212405584795,11.261158159761862
1658789607884078,-0.3967345693140487,34.57694361791391,11.627374685282575
1658789607900070,2.8992141603723667,33.53933012893867,11.383230334935433
1658789607916062,4.60822461280236,31.64721141374821,10.162508583199724
1658789607932054,4.303044174868319,30.243381399252257,8.697642481116873
1658789607948046,5.828946364538069,30.182345311665358,9.369039444571627
1658789607964019,7.721065079728305,29.694056610971074,8.880750743877343
1658789607980012,6.195162890058782,27.80193789578084,7.17174029144735
1658789607996004,1.2512397955290453,25.665674830243233,5.828946364538069
1658789608011996,1.5564202334630863,25.17738612954895,5.76791027695117
1658789608027988,3.2043945983061803,24.444953078507524,5.3406576638437855
1658789608043980,4.730296787975931,22.73594262607753,2.8381780727854675
1658789608059972,1.8005645838102282,21.210040436408008,0.7019150072480898
1658789608075965,0.7629510948347615,21.45418478675515,0.45777065690094787
1658789608091957,2.105745021744042,22.79697871366443,1.8616006713969
1658789608107949,4.9134050507361735,22.125581750209676,1.983672846570471
1658789608123941,3.3875028610666504,20.660715648126825,1.0070954451819034
1658789608139933,2.8381780727854675,19.745174334325156,1.1902037079423735
1658789608155925,5.157549401083315,19.623102159151586,2.655069810025225
1658789608171918,3.4485389486533222,18.219272144655406,1.739528496223329
1658789608187910,2.3498893720911838,16.632333867398984,-0.3967345693140487
1658789608203902,-0.3967345693140487,15.472648203250174,-1.9226367589837992
1658789608219894,-4.242008087281647,15.533684290836845,-3.0212863355459376
1658789608235886,-5.95101853971164,16.08300907911803,-2.288853284504512
1658789608251878,-1.983672846570471,15.960936903944457,-2.227817196917613
1658789608267871,1.9226367589837992,15.350576028076603,-2.8381780727854675
1658789608283844,3.1433585107195086,14.740215152208748,-3.0212863355459376
1658789608299836,3.814755474174035,15.289539940489703,-1.6784924086366573
1658789608315828,3.5095750362402214,15.777828641183987,-0.6408789196611906
1658789608331820,3.936827649347606,15.960936903944457,-0.213626306553806
1658789608347812,1.1291676203554744,15.594720378423744,0.15259021896690683
1658789608363804,-1.5564202334630863,15.655756466010416,1.4343480582895154
1658789608379797,-1.6784924086366573,15.411612115663274,3.875791561760934
1658789608395789,-1.3733119707026162,14.92332341496899,3.4485389486533222
1658789608411781,1.739528496223329,14.679179064621849,2.410925459678083
1658789608427773,4.242008087281647,14.312962539101136,1.2512397955290453
1658789608443765,3.3264667734797513,13.58052948805971,-0.03051804379333589
1658789608459757,2.532997634851654,13.031204699778755,-0.8239871824216607
1658789608475750,0.213626306553806,13.214312962538997,-0.3967345693140487
1658789608491742,-0.45777065690094787,14.007782101167322,0.8850232700083325
1658789608507734,-0.8850232700083325,14.862287327382319,1.8616006713969
1658789608523726,-3.5095750362402214,15.777828641183987,3.6316472114137923
1658789608539718,-2.3498893720911838,17.120622568093268,7.4158846417944915
1658789608555710,0.5798428320745188,17.60891126878755,10.162508583199724
1658789608571703,1.6784924086366573,17.48683909361398,10.162508583199724
1658789608587695,4.242008087281647,17.36476691844041,10.467689021133765
1658789608603668,3.936827649347606,17.059586480506596,10.101472495613052
1658789608619660,5.645838101777599,16.388189517051842,10.040436408026153
1658789608635652,5.157549401083315,16.08300907911803,8.880750743877343
1658789608651644,5.3406576638437855,16.632333867398984,7.843137254901876
1658789608667636,2.5940337224383256,16.632333867398984,7.537956816968062
1658789608683629,-2.7161058976118966,16.26611734187827,7.721065079728305
1658789608699621,-2.9602502479590385,15.533684290836845,8.087281605249018
1658789608715613,-0.7629510948347615,15.167467765316132,7.965209430075447
1658789608731605,1.8616006713969,14.98435950255589,7.2938124666209205
1658789608747597,2.04470893415737,15.655756466010416,7.660028992141633
1658789608763589,3.570611123826893,16.44922560463874,8.6366063935302
1658789608779582,5.645838101777599,17.120622568093268,8.697642481116873
1658789608795574,7.721065079728305,17.36476691844041,8.209353780422589
1658789608811566,9.246967269398056,17.36476691844041,7.965209430075447
1658789608827558,9.55214770733187,17.60891126878755,8.45349813076973
1658789608843550,7.598992904554734,17.975127794308264,9.002822919050914
1658789608859542,4.364080262455218,18.402380407415876,8.45349813076973
1658789608875535,1.8005645838102282,19.01274128328373,8.758678568703772
1658789608891527,0.6408789196611906,19.439993896391115,9.369039444571627
1658789608907519,0.03051804379333589,19.01274128328373,9.308003356984727
1658789608923492,1.1291676203554744,18.82963302052326,9.430075532158298
1658789608939484,2.227817196917613,19.195849546043974,9.185931181811156
1658789608955476,2.410925459678083,20.17242694743254,8.758678568703772
1658789608971469,2.7771419851987957,20.904859998473967,8.209353780422589
1658789608987461,4.730296787975931,21.69832913710229,7.904173342488775
1658789609003453,9.063859006637585,22.125581750209676,8.941786831464015
1658789609019445,10.467689021133765,21.881437399862534,9.85732814526591
1658789609035437,9.308003356984727,21.33211261158158,10.040436408026153
1658789609051429,7.4158846417944915,21.27107652399468,10.162508583199724
1658789609067422,4.791332875562603,21.33211261158158,9.73525597009234
1658789609083414,4.180971999694748,21.759365224688963,9.85732814526591
1658789609099406,2.410925459678083,21.27107652399468,9.246967269398056
1658789609115398,2.5940337224383256,20.965896086060866,8.941786831464015
1658789609131390,4.42511635004189,20.782787823300396,8.148317692835917
1658789609147382,4.486152437628789,20.477607385366582,7.598992904554734
1658789609163375,5.2185854886702145,20.17242694743254,6.927595941100208
1658789609179367,4.974441138323073,19.867246509498727,6.8665598535133086
1658789609195359,2.8381780727854675,19.745174334325156,6.561379415579495
1658789609211351,1.2512397955290453,20.599679560540153,7.2938124666209205
1658789609227343,1.9226367589837992,21.27107652399468,8.697642481116873
1658789609243347,2.8992141603723667,20.17242694743254,9.063859006637585
1658789609259339,2.410925459678083,19.256885633630873,9.308003356984727
1658789609275331,2.288853284504512,19.867246509498727,9.308003356984727
1658789609291323,1.9226367589837992,20.660715648126825,8.880750743877343
1658789609307315,0.45777065690094787,20.965896086060866,8.575570305943302
1658789609323308,1.1291676203554744,20.721751735713724,8.026245517662346
1658789609339300,4.852368963149502,20.294499122606112,8.270389868009488
1658789609355292,4.669260700389032,19.501029983978015,8.209353780422589
1658789609371284,0.9460593575952316,20.35553521019301,8.45349813076973
1658789609387276,0.45777065690094787,21.942473487449433,10.650797283894008
1658789609403268,1.3733119707026162,21.27107652399468,11.444266422522333
1658789609419261,3.6316472114137923,19.256885633630873,10.772869459067579
1658789609435253,5.523765926604028,17.79201953154802,10.589761196307336
1658789609451245,4.303044174868319,16.937514305333025,10.89494163424115
1658789609467237,-0.8239871824216607,15.899900816357558,10.101472495613052
1658789609483229,-3.6316472114137923,15.472648203250174,9.979400320439481
1658789609499221,-3.7537193865873633,14.435034714274707,9.124895094224485
1658789609515214,-5.157549401083315,12.481879911497572,9.430075532158298
1658789609531206,-3.5095750362402214,10.772869459067579,9.918364232852582
1658789609547198,-1.3733119707026162,8.6366063935302,10.589761196307336
1658789609563171,2.04470893415737,6.622415503166167,10.345616845960194
1658789609579163,4.486152437628789,4.547188525215461,8.33142595559616
1658789609595154,4.669260700389032,2.227817196917613,5.584802014190927
1658789609611146,5.645838101777599,-0.6408789196611906,3.4485389486533222
1658789609627138,6.378271152819025,-4.242008087281647,2.227817196917613
1658789609643129,4.42511635004189,-8.45349813076973,0.7629510948347615
1658789609659121,1.6784924086366573,-11.932555123216616,-1.1902037079423735
1658789609675113,-3.7537193865873633,-15.533684290836845,-3.2654306858930795
1658789609691105,-8.392462043183059,-18.89066910811016,-5.3406576638437855
1658789609707096,-11.810482948043045,-21.942473487449433,-7.598992904554734
1658789609723088,-15.533684290836845,-24.322880903333953,-9.002822919050914
1658789609739080,-19.01274128328373,-26.947432669565842,-10.406652933546866
1658789609755071,-18.341344319828977,-29.26680399786369,-11.688410772869474
1658789609771063,-15.533684290836845,-30.243381399252257,-12.542915999084471
1658789609787055,-9.979400320439481,-30.853742275120112,-13.336385137712568
1658789609803046,-7.17174029144735,-32.19653620202962,-13.397421225299468
1658789609819038,-5.706874189364498,-33.72243839169914,-14.068818188753994
1658789609835030,-5.584802014190927,-35.431448844129136,-14.068818188753994
1658789609851021,-6.622415503166167,-36.774242771038416,-14.557106889448278
1658789609867013,-9.063859006637585,-37.62874799725341,-15.472648203250174
1658789609882995,-9.85732814526591,-38.48325322346841,-16.1440451667047
1658789609898987,-9.613183794918768,-39.58190280003055,-16.937514305333025
1658789609914979,-9.063859006637585,-41.41298542763411,-17.24269474326684
1658789609930970,-7.660028992141633,-42.93888761730386,-17.79201953154802
1658789609946962,-6.134126802471883,-44.037537193866,-18.219272144655406
1658789609962954,-7.17174029144735,-44.647898069733856,-18.463416495002548
1658789609978945,-7.354848554207592,-44.892042420081,-18.89066910811016
1658789609994937,-6.622415503166167,-46.29587243457695,-18.95170519569683
1658789610010929,-3.5095750362402214,-47.57763027389956,-18.70756084534969
1658789610026920,-2.04470893415737,-48.18799114976741,-18.219272144655406
1658789610042912,-3.875791561760934,-49.04249637598241,-18.280308232242305
1658789610058904,-4.547188525215461,-49.897001602197406,-18.524452582589447
1658789610074895,-6.805523765926637,-50.62943465323883,-18.402380407415876
1658789610090887,-9.063859006637585,-50.934615091172645,-19.01274128328373
1658789610106879,-10.467689021133765,-51.30083161669336,-19.562066071564686
1658789610122871,-10.101472495613052,-51.85015640497454,-19.623102159151586
1658789610138862,-7.782101167315204,-53.19295033188382,-19.501029983978015
1658789610154854,-2.8992141603723667,-52.88776989394978,-18.95170519569683
1658789610170846,-0.5798428320745188,-52.3994811932555,-18.646524757763018
1658789610186837,-4.547188525215461,-52.76569771877621,-19.501029983978015
1658789610202789,-11.566338597695903,-52.52155336842907,-19.256885633630873
1658789610218781,-10.528725108720437,-50.812542915999074,-17.181658655680167
1658789610234772,-7.904173342488775,-50.32425421530479,-15.10643167772946
1658789610250764,-5.462729839017356,-51.056687266346216,-14.862287327382319
1658789610266756,-3.570611123826893,-52.277409018081926,-15.10643167772946
1658789610282747,-2.532997634851654,-52.52155336842907,-15.655756466010416
1658789610298739,-3.7537193865873633,-52.216372930495254,-15.594720378423744
1658789610314731,-4.60822461280236,-51.117723353933116,-15.594720378423744
1658789610330722,-6.378271152819025,-51.117723353933116,-16.32715342946517
1658789610346714,-8.392462043183059,-50.995651178759545,-17.60891126878755
1658789610362706,-6.500343327992596,-50.995651178759545,-17.181658655680167
1658789610378697,-5.828946364538069,-51.30083161669336,-16.998550392919697
1658789610394689,-5.889982452124741,-52.033264667734784,-18.341344319828977
1658789610410681,-3.5095750362402214,-51.6060120546274,-18.95170519569683
1658789610426673,-2.410925459678083,-50.812542915999074,-19.256885633630873
1658789610442664,-4.42511635004189,-48.6762798504617,-18.097199969481835
1658789610458656,-3.3875028610666504,-46.05172808422981,-13.45845731288614
1658789610474648,-4.486152437628789,-45.07515068284124,-10.223544670786623
1658789610490639,-6.561379415579495,-45.807583733882666,-9.430075532158298
1658789610506631,-8.575570305943302,-46.84519722285813,-9.369039444571627
1658789610522644,-11.871519035629717,-47.45555809872599,-10.467689021133765
1658789610538635,-11.07804989700162,-46.54001678492409,-11.139085984588291
1658789610554627,-9.002822919050914,-44.892042420081,-12.115663385976859
1658789610570619,-6.683451590753066,-44.342717631799815,-13.092240787365427
1658789610586610,-8.819714656290444,-45.990691996643136,-15.716792553597315
1658789610602602,-9.063859006637585,-46.05172808422981,-16.08300907911803
1658789610618594,-4.119935912108076,-44.8310063324941,-15.655756466010416
1658789610634585,-2.5940337224383256,-43.54924849317172,-15.228503852903032
1658789610650577,-1.983672846570471,-41.71816586556815,-14.190890363927565
1658789610666569,-1.8005645838102282,-40.497444113832444,-12.481879911497572
1658789610682561,-7.232776379034021,-40.436408026245545,-11.627374685282575
1658789610698552,-9.308003356984727,-40.07019150072483,-10.467689021133765
1658789610714544,-11.566338597695903,-39.215686274509835,-9.063859006637585
1658789610730536,-11.261158159761862,-38.66636148622888,-9.124895094224485
1658789610746527,-9.185931181811156,-37.750820172426984,-10.345616845960194
1658789610762519,-2.166781109330941,-36.957351033798886,-10.345616845960194
1658789610778511,0.8850232700083325,-37.933928435187454,-11.871519035629717
1658789610794502,0.09155413138023505,-38.72739757381555,-12.664988174258042
1658789610810494,-2.8992141603723667,-39.337758449683406,-12.909132524605184
1658789610826486,-9.369039444571627,-39.15465018692316,-14.251926451514464
1658789610842468,-14.679179064621849,-36.652170595864845,-13.397421225299468
1658789610858460,-11.566338597695903,-35.67559319447628,-11.627374685282575
1658789610874451,-5.0354772259097444,-37.20149538414603,-11.627374685282575
1658789610890443,-1.6784924086366573,-40.1922636758984,-13.946746013580423
1658789610906435,0.7629510948347615,-40.98573281452673,-15.289539940489703
1658789610922426,1.3122758831159445,-38.97154192416269,-14.862287327382319
1658789610938418,-0.45777065690094787,-37.07942320897246,-15.167467765316132
1658789610954410,-2.9602502479590385,-35.55352101930271,-15.777828641183987
1658789610970401,-3.3264667734797513,-35.492484931716035,-15.10643167772946
1658789610986393,-2.288853284504512,-36.4690623331046,-12.664988174258042
1658789611002385,-1.4953841458761872,-38.23910887312127,-13.76363775082018
1658789611018376,-1.0681315327688026,-37.20149538414603,-14.190890363927565
1658789611034368,0.7019150072480898,-35.370412756542464,-13.031204699778755
1658789611050360,1.739528496223329,-35.67559319447628,-13.824673838406852
1658789611066352,0.8239871824216607,-36.713206683451745,-14.618142977035177
1658789611082343,-0.7629510948347615,-37.50667582207984,-14.557106889448278
1658789611098335,-5.279621576256886,-37.01838712138556,-13.214312962538997
1658789611114327,-7.965209430075447,-35.73662928206318,-11.261158159761862
1658789611130318,-7.049668116273779,-34.88212405584818,-9.613183794918768
1658789611146310,-4.486152437628789,-34.3938353551539,-9.124895094224485
1658789611162262,-3.0212863355459376,-35.187304493781994,-10.955977721828049
1658789611178253,-3.3875028610666504,-35.67559319447628,-12.176699473563758
1658789611194245,-3.814755474174035,-35.492484931716035,-11.07804989700162
1658789611210237,-3.3875028610666504,-34.94316014343485,-9.369039444571627
1658789611226228,0.5188067444876197,-34.21072709239343,-7.843137254901876
1658789611242220,1.8005645838102282,-34.51590753032747,-8.758678568703772
1658789611258212,-0.6408789196611906,-34.82108796826128,-10.284580758373295
1658789611274203,-1.0070954451819034,-34.088654917219856,-10.772869459067579
1658789611290195,-0.5188067444876197,-33.5393301289389,-11.01701380941472
1658789611306187,-1.6174563210497581,-32.867933165484146,-12.298771648737329
1658789611322178,-2.5940337224383256,-32.928969253071045,-11.871519035629717
1658789611338170,-1.8005645838102282,-32.01342793926915,-10.040436408026153
1658789611354162,1.1902037079423735,-30.670634012359642,-8.270389868009488
1658789611370154,5.2185854886702145,-29.938200961318216,-6.927595941100208
1658789611386145,5.3406576638437855,-29.816128786144645,-6.683451590753066
1658789611402137,3.0823224231326094,-28.778515297169406,-6.012054627298312
1658789611418129,-1.1902037079423735,-27.496757457846797,-6.195162890058782
1658789611434120,-3.0212863355459376,-26.337071793697987,-6.073090714885211
1658789611450112,-4.119935912108076,-26.39810788128466,-5.95101853971164
1658789611466104,-4.180971999694748,-26.764324406805372,-5.096513313496644
1658789611482116,-3.875791561760934,-26.58121614404513,-5.401693751430457
1658789611498108,-4.119935912108076,-25.665674830243233,-5.3406576638437855
1658789611514100,-3.0823224231326094,-25.17738612954895,-5.76791027695117
1658789611530091,-0.33569848172737693,-25.23842221713585,-6.622415503166167
1658789611546083,0.7629510948347615,-24.933241779201808,-7.049668116273779
1658789611562075,0.5798428320745188,-24.200808728160382,-6.317235065232353
1658789611578066,1.8616006713969,-22.247653925383247,-4.058899824521177
1658789611594058,3.570611123826893,-21.14900434882111,-2.4719615472647547
1658789611610050,3.3264667734797513,-21.820401312275862,-2.166781109330941
1658789611626042,0.6408789196611906,-22.430762188143717,-3.3264667734797513
1658789611642033,-1.2512397955290453,-22.064545662623004,-4.242008087281647
1658789611658025,-1.6784924086366573,-20.782787823300396,-4.547188525215461
1658789611674017,-0.03051804379333589,-19.9282825970854,-3.997863736934505
1658789611690008,1.1291676203554744,-19.9282825970854,-2.9602502479590385
1658789611706000,-1.4343480582895154,-20.660715648126825,-3.5095750362402214
1658789611721992,-4.303044174868319,-19.623102159151586,-3.875791561760934
1658789611737983,-5.95101853971164,-18.219272144655406,-2.655069810025225
1658789611753975,-5.3406576638437855,-17.42580300602731,-1.1902037079423735
1658789611769967,-2.166781109330941,-17.48683909361398,-0.7629510948347615
1658789611785958,-1.739528496223329,-19.195849546043974,-2.7161058976118966
1658789611801941,-2.4719615472647547,-19.623102159151586,-4.486152437628789
1658789611817932,-3.2043945983061803,-18.70756084534969,-5.645838101777599
1658789611833924,-0.33569848172737693,-16.754406042572555,-3.6316472114137923
1658789611849916,3.2654306858930795,-16.632333867398984,-2.4719615472647547
1658789611865907,5.76791027695117,-16.815442130159454,-3.0823224231326094
1658789611881899,6.012054627298312,-16.44922560463874,-3.570611123826893
1658789611897891,5.95101853971164,-15.777828641183987,-3.0823224231326094
1658789611913882,4.974441138323073,-16.02197299153113,-3.0212863355459376
1658789611929874,3.0823224231326094,-15.655756466010416,-3.4485389486533222
1658789611945866,-0.15259021896690683,-14.80125123979542,-3.0212863355459376
1658789611961857,-3.936827649347606,-14.068818188753994,-2.8381780727854675
1658789611977849,-4.791332875562603,-12.909132524605184,-2.166781109330941
1658789611993841,-3.3264667734797513,-12.726024261844714,-0.7629510948347615
1658789612009832,-3.3875028610666504,-13.885709925993751,-0.5188067444876197
1658789612025824,-2.04470893415737,-14.068818188753994,-1.1291676203554744
1658789612041816,-1.4343480582895154,-13.397421225299468,-0.33569848172737693
1658789612057808,-1.2512397955290453,-13.214312962538997,-0.15259021896690683
1658789612073799,0.7629510948347615,-12.481879911497572,-0.5798428320745188
1658789612089791,1.8005645838102282,-11.505302510109004,-0.9460593575952316
1658789612105783,2.5940337224383256,-11.871519035629717,-1.8005645838102282
1658789612121734,1.8005645838102282,-12.909132524605184,-1.2512397955290453
1658789612137726,2.8381780727854675,-13.64156557564661,-0.5798428320745188
1658789612153718,3.0823224231326094,-13.58052948805971,0.09155413138023505
1658789612169709,1.8616006713969,-13.153276874952326,-0.09155413138023505
1658789612185701,0.6408789196611906,-12.970168612191856,-0.9460593575952316
1658789612201693,-2.8992141603723667,-14.435034714274707,-2.04470893415737
1658789612217684,-3.5095750362402214,-14.618142977035177,-0.8239871824216607
1658789612233676,-1.6784924086366573,-14.007782101167322,0.5188067444876197
1658789612249668,-0.15259021896690683,-13.885709925993751,-0.2746623941404778
1658789612265659,-0.213626306553806,-13.275349050125897,-0.8239871824216607
1658789612281651,1.1291676203554744,-11.627374685282575,0.15259021896690683
1658789612297643,3.0823224231326094,-11.261158159761862,1.4343480582895154
1658789612313634,3.2654306858930795,-11.993591210803288,1.3122758831159445
1658789612329626,3.3875028610666504,-12.359807736324,1.6174563210497581
1658789612345618,2.7771419851987957,-11.505302510109004,3.0823224231326094
1658789612361610,3.6316472114137923,-10.467689021133765,3.814755474174035
1658789612377601,4.547188525215461,-9.918364232852582,3.570611123826893
1658789612393593,4.60822461280236,-10.772869459067579,1.3733119707026162
1658789612409585,3.6316472114137923,-11.01701380941472,1.1291676203554744
1658789612425576,2.5940337224383256,-11.444266422522333,0.6408789196611906
1658789612441558,-0.7629510948347615,-11.627374685282575,-0.09155413138023505
1658789612457550,-6.012054627298312,-11.322194247348762,0.09155413138023505
1658789612473542,-9.73525597009234,-9.185931181811156,1.0681315327688026
1658789612489534,-8.941786831464015,-7.476920729381163,3.2043945983061803
1658789612505525,-4.364080262455218,-6.195162890058782,3.936827649347606
1658789612521517,1.983672846570471,-5.279621576256886,3.1433585107195086
1658789612537509,8.6366063935302,-3.7537193865873633,3.0212863355459376
1658789612553500,13.64156557564661,-1.983672846570471,2.5940337224383256
1658789612569492,14.312962539101136,0.5188067444876197,2.105745021744042
1658789612585484,11.444266422522333,3.814755474174035,2.4719615472647547
1658789612601475,8.209353780422589,6.500343327992596,2.655069810025225
1658789612617467,4.364080262455218,8.45349813076973,1.5564202334630863
1658789612633459,-0.3967345693140487,9.430075532158298,0.5798428320745188
1658789612649450,-3.3875028610666504,11.261158159761862,0.7019150072480898
1658789612665442,-3.997863736934505,13.397421225299468,1.0681315327688026
1658789612681434,-2.655069810025225,15.716792553597315,1.983672846570471
1658789612697425,-0.33569848172737693,16.998550392919697,1.6174563210497581
1658789612713417,2.105745021744042,18.280308232242305,3.0212863355459376
1658789612729409,2.7771419851987957,18.58548867017612,3.936827649347606
1658789612745401,1.4343480582895154,19.439993896391115,4.180971999694748
1658789612761413,0.3967345693140487,20.965896086060866,4.9134050507361735
1658789612777405,-1.6174563210497581,22.125581750209676,4.058899824521177
1658789612793397,-2.227817196917613,22.186617837796575,3.5095750362402214
1658789612809388,-0.9460593575952316,22.186617837796575,3.2654306858930795
1658789612825380,1.4953841458761872,22.552834363317288,3.4485389486533222
1658789612841372,2.04470893415737,23.529411764705856,2.9602502479590385
1658789612857363,3.3264667734797513,24.689097428854666,2.532997634851654
1658789612873355,3.6316472114137923,25.17738612954895,2.166781109330941
1658789612889347,4.242008087281647,25.787747005416804,3.2654306858930795
1658789612905338,7.354848554207592,26.82536049439227,3.997863736934505
1658789612921330,9.246967269398056,27.80193789578084,4.058899824521177
1658789612937322,8.880750743877343,28.595407034408936,3.6316472114137923
1658789612953313,6.9886320286868795,29.571984435797503,4.119935912108076
1658789612969305,5.279621576256886,31.219958800640825,5.3406576638437855
1658789612985297,4.9134050507361735,32.99000534065749,6.8665598535133086
1658789613001289,3.7537193865873633,34.02761882963296,7.4158846417944915
1658789613017280,4.242008087281647,34.821087968261054,7.17174029144735
1658789613033272,5.462729839017356,35.49248493171581,6.439307240405924
1658789613049264,5.0354772259097444,36.346990157930804,6.927595941100208
1658789613065255,4.9134050507361735,37.1404592965589,7.049668116273779
1658789613081207,4.60822461280236,38.54428931105508,8.392462043183059
1658789613097199,5.157549401083315,39.76501106279079,9.55214770733187
1658789613113190,5.95101853971164,40.43640802624532,9.369039444571627
1658789613129182,4.242008087281647,40.43640802624532,9.85732814526591
1658789613145174,3.875791561760934,40.497444113832216,11.139085984588291
1658789613161165,4.058899824521177,41.535057602807456,12.848096437018285
1658789613177157,4.119935912108076,42.816815442130064,14.129854276340893
1658789613193149,2.4719615472647547,42.816815442130064,14.190890363927565
1658789613209140,-1.6174563210497581,41.7792019531546,14.190890363927565
1658789613225132,-0.213626306553806,41.10780498970007,14.068818188753994
1658789613241124,2.288853284504512,40.375371938658645,12.787060349431613
1658789613257115,0.7019150072480898,39.21568627450961,9.979400320439481
1658789613273107,-0.03051804379333589,39.032578011749365,9.918364232852582
1658789613289099,3.1433585107195086,41.04676890211317,13.092240787365427
1658789613305091,2.532997634851654,40.80262455176603,11.383230334935433
1658789613321082,0.5188067444876197,40.43640802624532,9.430075532158298
1658789613337074,0.7629510948347615,40.1312275883115,9.918364232852582
1658789613353066,5.95101853971164,39.76501106279079,12.054627298390187
1658789613369057,7.598992904554734,38.849469748988895,12.481879911497572
1658789613385049,6.317235065232353,39.33775844968318,11.566338597695903
1658789613401031,6.256198977645454,40.68055237659246,12.23773556115043
1658789613417023,4.852368963149502,41.16884107728674,13.397421225299468
1658789613433014,4.058899824521177,40.55848020141889,12.603952086671143
1658789613449006,2.8992141603723667,40.070191500724604,12.848096437018285
1658789613464998,-0.6408789196611906,39.39879453727008,13.275349050125897
1658789613480990,-1.6174563210497581,39.64293888761722,14.557106889448278
1658789613496981,-0.7019150072480898,40.070191500724604,15.045395590142562
1658789613512973,1.739528496223329,40.80262455176603,15.411612115663274
1658789613528965,3.2654306858930795,40.253299763485074,14.92332341496899
1658789613544956,6.9886320286868795,40.61951628900579,17.303730830853738
1658789613560948,8.575570305943302,39.45983062485675,16.693369954985883
1658789613576940,9.67421988250544,38.60532539864175,15.960936903944457
1658789613592931,7.4158846417944915,38.48325322346818,14.557106889448278
1658789613608923,1.0681315327688026,38.60532539864175,13.76363775082018
1658789613624915,-3.5095750362402214,38.36118104829461,14.068818188753994
1658789613640906,-1.0681315327688026,38.971541924162466,15.899900816357558
1658789613656898,3.692683299000464,37.628747997253186,15.594720378423744
1658789613672890,3.936827649347606,36.163881895170334,13.702601663233281
1658789613688881,1.4953841458761872,36.285954070343905,13.64156557564661
1658789613704873,2.410925459678083,36.89631494621176,15.716792553597315
1658789613720886,3.875791561760934,36.469062333104375,15.10643167772946
1658789613736878,3.6316472114137923,34.45487144274034,12.787060349431613
1658789613752869,5.95101853971164,33.600366216525344,12.115663385976859
1658789613768861,9.369039444571627,32.74586099031035,12.603952086671143
1658789613784853,9.430075532158298,31.280994888227497,10.772869459067579
1658789613800844,9.491111619745197,30.60959792477297,8.880750743877343
1658789613816836,6.378271152819025,31.097886625467254,8.33142595559616
1658789613832828,1.983672846570471,31.83031967650868,8.880750743877343
1658789613848819,1.8616006713969,32.257572289616064,10.467689021133765
1658789613864811,4.9134050507361735,31.52513923857464,11.993591210803288
1658789613880803,7.537956816968062,29.51094834821083,10.772869459067579
1658789613896794,5.95101853971164,28.229190508888223,10.101472495613052
1658789613912786,5.2185854886702145,28.473334859235365,9.918364232852582
1658789613928778,3.4485389486533222,29.26680399786369,9.55214770733187
1658789613944769,0.45777065690094787,29.26680399786369,7.598992904554734
1658789613960761,0.5188067444876197,29.449912260623933,7.660028992141633
1658789613976753,4.119935912108076,29.14473182269012,8.51453421835663
1658789613992745,7.537956816968062,28.16815442130155,8.087281605249018
1658789614008736,10.467689021133765,28.04608224612798,7.4158846417944915
1658789614024728,10.223544670786623,28.351262684061794,6.9886320286868795
1658789614040710,9.369039444571627,29.877164873731545,8.392462043183059
1658789614056702,8.819714656290444,30.4264896620125,9.185931181811156
1658789614072693,7.476920729381163,30.182345311665358,8.819714656290444
1658789614088685,3.3264667734797513,29.20576791027679,8.392462043183059
1658789614104677,2.532997634851654,28.534370946822264,9.430075532158298
1658789614120669,6.195162890058782,28.229190508888223,11.871519035629717
1658789614136660,7.354848554207592,27.191577019912984,11.139085984588291
1658789614152652,5.462729839017356,26.276035706111088,9.55214770733187
1658789614168644,0.33569848172737693,26.031891355763946,8.880750743877343
1658789614184635,-2.410925459678083,26.58121614404513,8.941786831464015
1658789614200627,-3.570611123826893,27.008468757152514,9.308003356984727
1658789614216619,1.983672846570471,26.52018005645823,10.040436408026153
1658789614232610,6.378271152819025,24.505989166094423,8.819714656290444
1658789614248602,6.683451590753066,23.102159151598244,6.9886320286868795
1658789614264594,3.6316472114137923,23.651483939879427,5.2185854886702145
1658789614280585,2.4719615472647547,26.214999618524416,5.584802014190927
1658789614296577,2.655069810025225,27.313649195086555,5.096513313496644
1658789614312569,4.9134050507361735,26.764324406805372,4.119935912108076
1658789614328560,4.242008087281647,25.48256656748299,3.814755474174035
1658789614344552,2.8992141603723667,25.665674830243233,4.42511635004189
1658789614360504,1.6784924086366573,26.58121614404513,6.195162890058782
1658789614376495,1.0681315327688026,27.679865720607268,6.805523765926637
1658789614392487,0.3967345693140487,28.229190508888223,7.2938124666209205
1658789614408479,-2.3498893720911838,27.61882963302037,8.087281605249018
1658789614424471,-1.6784924086366573,27.069504844739413,9.67421988250544
1658789614440462,-0.03051804379333589,26.153963530937517,10.040436408026153
1658789614456454,1.2512397955290453,26.092927443350845,9.613183794918768
1658789614472446,1.3733119707026162,26.031891355763946,8.819714656290444
1658789614488437,-0.213626306553806,25.543602655069662,7.965209430075447
1658789614504429,2.7771419851987957,24.994277866788707,8.087281605249018
1658789614520421,7.17174029144735,24.322880903333953,8.6366063935302
1658789614536412,8.026245517662346,23.407339589532285,6.9886320286868795
1658789614552404,3.1433585107195086,22.430762188143717,5.706874189364498
1658789614568396,-1.4953841458761872,22.003509575036105,5.157549401083315
1658789614584387,-3.936827649347606,22.247653925383247,5.279621576256886
1658789614600379,-0.45777065690094787,22.79697871366443,5.706874189364498
1658789614616371,3.3264667734797513,22.247653925383247,5.279621576256886
1658789614632362,3.875791561760934,21.14900434882111,4.42511635004189
1658789614648354,5.2185854886702145,21.087968261234437,5.584802014190927
1658789614664346,7.904173342488775,21.45418478675515,7.17174029144735
1658789614680359,6.500343327992596,22.064545662623004,6.012054627298312
1658789614696350,5.706874189364498,22.369726100556818,5.096513313496644
1658789614712342,4.60822461280236,22.308690012970146,5.584802014190927
1658789614728334,5.645838101777599,21.57625696192872,6.256198977645454
1658789614744325,3.814755474174035,20.294499122606112,5.828946364538069
1658789614760317,1.4953841458761872,19.80621042191183,5.462729839017356
1658789614776309,-2.166781109330941,19.9282825970854,5.0354772259097444
1658789614792300,-3.997863736934505,20.35553521019301,5.584802014190927
1658789614808292,-5.2185854886702145,20.477607385366582,4.730296787975931
1658789614824284,-4.486152437628789,20.477607385366582,4.242008087281647
1658789614840275,0.7629510948347615,21.14900434882111,4.364080262455218
1658789614856267,4.119935912108076,20.965896086060866,5.279621576256886
1658789614872259,5.0354772259097444,20.23346303501944,5.157549401083315
1658789614888250,3.570611123826893,20.11139085984587,5.401693751430457
1658789614904242,3.3875028610666504,21.026932173647538,7.17174029144735
1658789614920234,2.227817196917613,21.759365224688963,8.33142595559616
1658789614936226,0.2746623941404778,21.881437399862534,8.819714656290444
1658789614952217,-0.7019150072480898,22.003509575036105,9.246967269398056
1658789614968209,0.8850232700083325,21.820401312275862,9.85732814526591
1658789614984201,1.6784924086366573,21.69832913710229,9.979400320439481
1658789615000183,4.669260700389032,22.125581750209676,10.589761196307336
1658789615016174,4.974441138323073,22.064545662623004,10.162508583199724
1658789615032166,3.7537193865873633,21.820401312275862,9.613183794918768
1658789615048158,4.9134050507361735,22.125581750209676,11.261158159761862
1658789615064149,5.645838101777599,22.064545662623004,11.688410772869474
1658789615080141,5.3406576638437855,22.064545662623004,12.359807736324
1658789615096133,2.9602502479590385,21.637293049515392,12.176699473563758
1658789615112125,0.8239871824216607,21.51522087434182,12.603952086671143
1658789615128116,0.7019150072480898,21.45418478675515,13.275349050125897
1658789615144108,4.364080262455218,22.430762188143717,14.129854276340893
1658789615160100,8.819714656290444,22.8580148012511,14.312962539101136
1658789615176091,7.965209430075447,22.064545662623004,13.519493400473038
1658789615192083,5.645838101777599,21.759365224688963,12.848096437018285
1658789615208075,4.60822461280236,22.308690012970146,13.092240787365427
1658789615224066,3.3875028610666504,22.73594262607753,13.031204699778755
1658789615240058,1.739528496223329,22.980086976424673,12.359807736324
1658789615256050,-1.5564202334630863,23.346303501945386,12.115663385976859
1658789615272041,-2.655069810025225,23.773556115052997,13.092240787365427
1658789615288033,-0.45777065690094787,24.01770046540014,14.312962539101136
1658789615304025,1.4343480582895154,23.7125200274661,13.702601663233281
1658789615319976,4.242008087281647,24.01770046540014,14.068818188753994
1658789615335968,5.0354772259097444,24.26184481574728,15.045395590142562
1658789615351960,3.814755474174035,23.468375677118956,14.618142977035177
1658789615367951,4.058899824521177,22.8580148012511,13.58052948805971
1658789615383943,3.7537193865873633,22.003509575036105,12.848096437018285
1658789615399935,-0.5798428320745188,21.51522087434182,11.932555123216616
1658789615415927,-5.157549401083315,21.45418478675515,11.810482948043045
1658789615431918,-3.2043945983061803,21.881437399862534,12.054627298390187
1658789615447910,2.410925459678083,21.637293049515392,11.139085984588291
1658789615463902,7.4158846417944915,21.33211261158158,10.833905546654478
1658789615479893,7.598992904554734,20.660715648126825,10.467689021133765
1658789615495885,6.8665598535133086,20.416571297779683,10.528725108720437
1658789615511877,6.378271152819025,20.843823910887295,10.955977721828049
1658789615527868,6.500343327992596,21.27107652399468,10.772869459067579
1658789615543860,4.303044174868319,20.599679560540153,9.246967269398056
1658789615559852,2.288853284504512,20.294499122606112,9.430075532158298
1658789615575843,2.166781109330941,19.745174334325156,9.613183794918768
1658789615591835,4.9134050507361735,19.501029983978015,9.246967269398056
1658789615607827,7.232776379034021,20.11139085984587,8.026245517662346
1658789615623818,5.096513313496644,20.721751735713724,7.782101167315204
1658789615639801,1.8616006713969,21.637293049515392,8.270389868009488
1658789615655792,3.692683299000464,22.49179827573039,10.406652933546866
1658789615671784,4.669260700389032,22.49179827573039,11.20012207217519
1658789615687776,6.134126802471883,22.003509575036105,11.383230334935433
1658789615703767,4.119935912108076,20.538643472953254,11.749446860456146
1658789615719759,2.8992141603723667,19.1348134584573,11.505302510109004
1658789615735751,-0.6408789196611906,18.646524757763018,11.749446860456146
1658789615751742,-2.532997634851654,17.914091706721592,10.89494163424115
1658789615767734,-3.0823224231326094,16.1440451667047,9.55214770733187
1658789615783726,-2.166781109330941,13.76363775082018,7.904173342488775
1658789615799718,-1.1902037079423735,10.89494163424115,5.828946364538069
1658789615815709,0.5188067444876197,8.392462043183059,4.486152437628789
1658789615831701,2.3498893720911838,6.622415503166167,3.2654306858930795
1658789615847693,3.0823224231326094,4.486152437628789,2.04470893415737
1658789615863684,-1.5564202334630863,1.4343480582895154,0.7019150072480898
1658789615879676,-5.523765926604028,-1.983672846570471,0.03051804379333589
1658789615895668,-5.706874189364498,-3.875791561760934,0.45777065690094787
1658789615911659,-4.547188525215461,-6.500343327992596,-0.3967345693140487
1658789615927651,-4.180971999694748,-9.491111619745197,-2.288853284504512
1658789615943643,-4.058899824521177,-12.359807736324,-3.936827649347606
1658789615959655,-7.11070420386045,-14.679179064621849,-5.523765926604028
1658789615975647,-10.833905546654478,-16.876478217746126,-6.500343327992596
1658789615991639,-13.031204699778755,-19.684138246738257,-7.904173342488775
1658789616007630,-13.946746013580423,-23.224231326771815,-9.67421988250544
1658789616023622,-12.23773556115043,-26.276035706111088,-11.20012207217519
1658789616039614,-11.383230334935433,-28.595407034408936,-12.787060349431613
1658789616055606,-10.284580758373295,-30.60959792477297,-14.373998626688035
1658789616071597,-6.805523765926637,-32.623788815137004,-16.2050812542916
1658789616087589,-4.058899824521177,-33.966582742046285,-17.059586480506596
1658789616103581,-4.547188525215461,-34.63797970550104,-17.303730830853738
1658789616119572,-8.758678568703772,-34.271763179980326,-16.571297779812312
1658789616135564,-10.955977721828049,-33.11207751583129,-13.824673838406852
1658789616151556,-10.89494163424115,-32.623788815137004,-12.176699473563758
1658789616167547,-8.392462043183059,-33.5393301289389,-11.688410772869474
1658789616183539,-7.049668116273779,-35.00419623102175,-11.505302510109004
1658789616199531,-5.157549401083315,-35.98077363241032,-11.810482948043045
1658789616215522,-3.570611123826893,-36.530098420691274,-13.275349050125897
1658789616231514,-3.2043945983061803,-37.20149538414603,-15.10643167772946
1658789616247506,-6.8665598535133086,-38.42221713588174,-16.937514305333025
1658789616263497,-8.270389868009488,-38.91050583657602,-17.24269474326684
1658789616279449,-10.284580758373295,-39.88708323796459,-16.815442130159454
1658789616295441,-11.444266422522333,-40.558480201419115,-17.42580300602731
1658789616311432,-9.979400320439481,-39.94811932555126,-16.571297779812312
1658789616327424,-8.33142595559616,-39.76501106279102,-15.777828641183987
1658789616343416,-5.706874189364498,-39.88708323796459,-15.533684290836845
1658789616359408,-2.7161058976118966,-39.64293888761745,-15.228503852903032
1658789616375399,-0.9460593575952316,-40.1922636758984,-15.350576028076603
1658789616391391,-3.3875028610666504,-40.619516289006015,-15.777828641183987
1658789616407383,-4.730296787975931,-39.82604715037769,-15.10643167772946
1658789616423374,-5.2185854886702145,-39.15465018692316,-14.496070801861606
1658789616439366,-3.0823224231326094,-39.276722362096734,-13.885709925993751
1658789616455358,-4.669260700389032,-40.680552376592686,-14.496070801861606
1658789616471349,-8.392462043183059,-42.51163500419625,-15.472648203250174
1658789616487341,-11.01701380941472,-42.02334630350197,-15.228503852903032
1658789616503333,-10.711833371480907,-39.398794537270305,-13.702601663233281
1658789616519324,-10.284580758373295,-38.42221713588174,-13.336385137712568
1658789616535316,-9.185931181811156,-39.45983062485698,-12.970168612191856
1658789616551308,-6.439307240405924,-40.497444113832444,-11.627374685282575
1658789616567299,-1.8005645838102282,-40.680552376592686,-10.223544670786623
1658789616583291,-3.3875028610666504,-40.13122758831173,-10.040436408026153
1658789616599273,-6.378271152819025,-38.36118104829484,-10.833905546654478
1658789616615265,-7.11070420386045,-37.38460364690627,-11.07804989700162
1658789616631257,-7.965209430075447,-39.03257801174959,-12.23773556115043
1658789616647248,-8.941786831464015,-40.92469672693983,-13.885709925993751
1658789616663240,-10.162508583199724,-40.86366063935316,-14.80125123979542
1658789616679232,-8.026245517662346,-39.215686274509835,-14.80125123979542
1658789616695223,-4.60822461280236,-38.056000610361025,-15.045395590142562
1658789616711215,-1.2512397955290453,-38.66636148622888,-16.08300907911803
1658789616727207,-3.570611123826893,-40.558480201419115,-16.937514305333025
1658789616743198,-8.33142595559616,-40.619516289006015,-16.2050812542916
1658789616759190,-10.162508583199724,-38.056000610361025,-14.373998626688035
1658789616775182,-6.622415503166167,-35.370412756542464,-12.23773556115043
1658789616791174,-2.8992141603723667,-35.00419623102175,-12.176699473563758
1658789616807165,0.5798428320745188,-35.85870145723675,-11.993591210803288
1658789616823157,-1.9226367589837992,-37.50667582207984,-11.139085984588291
1658789616839149,-4.242008087281647,-37.872892347600555,-10.772869459067579
1658789616855140,-5.096513313496644,-37.14045929655913,-11.322194247348762
1658789616871132,-4.852368963149502,-37.14045929655913,-13.45845731288614
1658789616887124,-7.965209430075447,-38.60532539864198,-15.594720378423744
1658789616903115,-10.772869459067579,-39.520866712443876,-16.876478217746126
1658789616919128,-6.622415503166167,-39.70397497520412,-16.1440451667047
1658789616935120,-1.1902037079423735,-40.13122758831173,-16.876478217746126
1658789616951111,1.1291676203554744,-40.741588464179586,-18.219272144655406
1658789616967103,0.3967345693140487,-41.16884107728697,-18.82963302052326
1658789616983095,-1.6174563210497581,-41.0467689021134,-18.95170519569683
1658789616999086,-0.8239871824216607,-40.558480201419115,-16.388189517051842
1658789617015078,-1.8005645838102282,-41.47402151522101,-15.777828641183987
1658789617031070,-4.974441138323073,-41.59609369039458,-14.92332341496899
1658789617047062,-8.087281605249018,-40.92469672693983,-14.679179064621849
1658789617063053,-11.627374685282575,-39.58190280003055,-13.824673838406852
1658789617079045,-9.124895094224485,-39.520866712443876,-13.336385137712568
1658789617095037,-6.195162890058782,-41.47402151522101,-13.58052948805971
1658789617111028,-1.8616006713969,-42.999923704890534,-14.80125123979542
1658789617127020,0.5798428320745188,-43.244068055237676,-15.899900816357558
1658789617143012,1.6784924086366573,-42.51163500419625,-16.998550392919697
1658789617159003,-1.1291676203554744,-42.51163500419625,-17.853055619134693
1658789617174995,-6.8665598535133086,-42.93888761730386,-19.01274128328373
1658789617190987,-11.688410772869474,-42.63370717936982,-19.378957808804444
1658789617206978,-13.885709925993751,-41.41298542763411,-18.219272144655406
1658789617222970,-12.176699473563758,-41.59609369039458,-17.914091706721592
1658789617238922,-6.622415503166167,-42.02334630350197,-15.777828641183987
1658789617254913,0.5798428320745188,-42.51163500419625,-15.167467765316132
1658789617270905,2.7161058976118966,-41.962310215915295,-15.960936903944457
1658789617286897,2.3498893720911838,-40.1922636758984,-15.10643167772946
1658789617302888,2.7771419851987957,-39.093614099336264,-12.23773556115043
1658789617318880,-2.4719615472647547,-40.558480201419115,-12.726024261844714
1658789617334872,-7.17174029144735,-41.0467689021134,-13.031204699778755
1658789617350864,-9.124895094224485,-40.1922636758984,-12.4208438239109
1658789617366855,-9.67421988250544,-39.093614099336264,-11.932555123216616
1658789617382847,-6.744487678339738,-38.72739757381555,-11.627374685282575
1658789617398839,-1.3122758831159445,-38.91050583657602,-11.444266422522333
1658789617414830,2.227817196917613,-40.314335851071974,-12.787060349431613
1658789617430822,-1.6174563210497581,-41.53505760280768,-14.679179064621849
1658789617446814,-4.60822461280236,-39.58190280003055,-12.970168612191856
1658789617462805,-3.1433585107195086,-36.22491798275746,-10.040436408026153
1658789617478797,2.4719615472647547,-34.57694361791414,-7.476920729381163
1658789617494789,4.486152437628789,-36.713206683451745,-9.246967269398056
1658789617510780,2.655069810025225,-39.520866712443876,-11.993591210803288
1658789617526772,-2.227817196917613,-39.76501106279102,-11.07804989700162
1658789617542764,-8.392462043183059,-38.23910887312127,-12.664988174258042
1658789617558746,-11.688410772869474,-34.271763179980326,-11.688410772869474
1658789617574738,-10.467689021133765,-32.44068055237676,-8.392462043183059
1658789617590729,-6.317235065232353,-34.63797970550104,-8.33142595559616
1658789617606721,-3.0212863355459376,-37.81185626001388,-10.284580758373295
1658789617622713,-0.5188067444876197,-38.1170366979477,-9.063859006637585
1658789617638704,1.0070954451819034,-35.370412756542464,-6.439307240405924
1658789617654696,0.9460593575952316,-33.90554665445961,-5.523765926604028
1658789617670688,-3.2654306858930795,-34.88212405584818,-6.927595941100208
1658789617686679,-3.570611123826893,-35.12626840619532,-8.270389868009488
1658789617702671,-2.9602502479590385,-35.00419623102175,-7.660028992141633
1658789617718663,-1.983672846570471,-34.45487144274057,-8.026245517662346
1658789617734655,1.4953841458761872,-33.11207751583129,-7.354848554207592
1658789617750646,7.11070420386045,-32.31860837720319,-5.2185854886702145
1658789617766638,9.185931181811156,-34.088654917219856,-6.012054627298312
1658789617782630,2.8992141603723667,-36.4690623331046,-7.843137254901876
1658789617798621,-5.523765926604028,-36.34699015793103,-8.087281605249018
1658789617814613,-9.55214770733187,-33.11207751583129,-4.60822461280236
1658789617830605,-9.918364232852582,-32.13550011444272,-3.6316472114137923
1658789617846596,-6.805523765926637,-32.745860990310575,-4.9134050507361735
1658789617862588,-3.6316472114137923,-35.00419623102175,-7.843137254901876
1658789617878570,-1.3122758831159445,-36.713206683451745,-8.33142595559616
1658789617894562,1.1291676203554744,-36.16388189517056,-8.51453421835663
1658789617910554,2.7771419851987957,-34.149691004806755,-8.33142595559616
1658789617926545,3.7537193865873633,-32.25757228961629,-8.209353780422589
1658789617942537,3.875791561760934,-31.89135576409558,-9.55214770733187
1658789617958529,2.655069810025225,-31.769283588922008,-10.284580758373295
1658789617974520,0.5798428320745188,-31.769283588922008,-10.162508583199724
1658789617990512,-0.5798428320745188,-31.158922713053926,-9.491111619745197
1658789618006504,-1.4343480582895154,-29.26680399786369,-8.941786831464015
1658789618022495,-0.9460593575952316,-26.7032883192187,-8.6366063935302
1658789618038487,0.9460593575952316,-24.994277866788707,-8.148317692835917
1658789618054479,2.288853284504512,-24.750133516441565,-8.209353780422589
1658789618070470,3.3264667734797513,-24.872205691615136,-8.33142595559616
1658789618086462,2.9602502479590385,-24.628061341267994,-7.354848554207592
1658789618102454,-0.8850232700083325,-22.919050888838,-5.462729839017356
1658789618118445,-5.523765926604028,-21.820401312275862,-5.523765926604028
1658789618134437,-7.476920729381163,-20.477607385366582,-5.3406576638437855
1658789618150429,-3.0823224231326094,-19.745174334325156,-4.791332875562603
1658789618166421,0.8850232700083325,-20.35553521019301,-4.486152437628789
1658789618182412,5.0354772259097444,-21.33211261158158,-5.157549401083315
1658789618198394,7.049668116273779,-21.881437399862534,-6.012054627298312
1658789618214386,4.791332875562603,-22.61387045090396,-6.439307240405924
1658789618230378,0.7019150072480898,-22.430762188143717,-7.598992904554734
1658789618246369,-3.5095750362402214,-21.39314869916825,-8.392462043183059
1658789618262361,-9.063859006637585,-20.721751735713724,-8.575570305943302
1658789618278353,-11.627374685282575,-20.05035477225897,-9.491111619745197
1658789618294345,-8.697642481116873,-19.378957808804444,-8.270389868009488
1658789618310336,-3.1433585107195086,-19.439993896391115,-7.232776379034021
1658789618326328,0.8850232700083325,-19.623102159151586,-7.660028992141633
1658789618342320,4.42511635004189,-18.402380407415876,-6.805523765926637
1658789618358311,6.9886320286868795,-16.754406042572555,-4.974441138323073
1658789618374303,7.965209430075447,-15.960936903944457,-5.401693751430457
1658789618390295,7.660028992141633,-16.937514305333025,-6.073090714885211
1658789618406286,6.378271152819025,-17.79201953154802,-5.0354772259097444
1658789618422278,2.4719615472647547,-17.66994735637445,-3.936827649347606
1658789618438270,-1.2512397955290453,-17.42580300602731,-4.42511635004189
1658789618454261,-2.5940337224383256,-16.937514305333025,-4.486152437628789
1658789618470253,-1.9226367589837992,-16.754406042572555,-4.303044174868319
1658789618486245,0.15259021896690683,-16.510261692225413,-3.4485389486533222
1658789618502236,4.242008087281647,-16.2050812542916,-1.0070954451819034
1658789618518219,7.354848554207592,-16.571297779812312,-0.09155413138023505
1658789618534210,10.284580758373295,-16.388189517051842,-0.45777065690094787
1658789618550202,13.031204699778755,-15.289539940489703,-0.33569848172737693
1658789618566194,14.373998626688035,-14.740215152208748,-0.9460593575952316
1658789618582185,12.176699473563758,-14.862287327382319,-0.5188067444876197
1658789618598177,6.500343327992596,-16.02197299153113,-1.0070954451819034
1658789618614169,1.1291676203554744,-16.754406042572555,-1.8005645838102282
1658789618630160,-4.42511635004189,-16.571297779812312,0.03051804379333589
1658789618646152,-8.087281605249018,-15.228503852903032,2.04470893415737
1658789618662144,-10.467689021133765,-13.64156557564661,2.8992141603723667
1658789618678135,-12.298771648737329,-12.664988174258042,2.04470893415737
1658789618694127,-11.261158159761862,-11.627374685282575,0.5798428320745188
1658789618710119,-6.439307240405924,-10.284580758373295,0.09155413138023505
1658789618726111,-1.4343480582895154,-9.308003356984727,-0.3967345693140487
1658789618742102,2.8381780727854675,-8.148317692835917,-0.7629510948347615
1658789618758094,3.814755474174035,-6.561379415579495,-1.3122758831159445
1658789618774086,4.60822461280236,-3.0823224231326094,-0.8850232700083325
1658789618790077,2.7771419851987957,0.9460593575952316,0.03051804379333589
1658789618806069,0.5188067444876197,3.875791561760934,-0.213626306553806
1658789618822061,-1.9226367589837992,5.889982452124741,-0.3967345693140487
1658789618838043,-1.1902037079423735,7.537956816968062,0.09155413138023505
1658789618854035,-0.6408789196611906,8.45349813076973,-0.3967345693140487
1658789618870026,0.09155413138023505,9.002822919050914,-1.4953841458761872
1658789618886018,0.8239871824216607,10.772869459067579,-1.1902037079423735
1658789618902010,0.6408789196611906,12.603952086671143,0.5188067444876197
1658789618918001,0.213626306553806,14.312962539101136,0.9460593575952316
1658789618933993,-0.9460593575952316,14.435034714274707,0.7629510948347615
1658789618949985,-2.227817196917613,14.740215152208748,1.3733119707026162
1658789618965976,-1.6784924086366573,14.80125123979542,2.288853284504512
1658789618981968,1.983672846570471,15.533684290836845,3.1433585107195086
1658789618997960,3.1433585107195086,15.960936903944457,3.1433585107195086
1658789619013951,2.8381780727854675,15.777828641183987,2.105745021744042
1658789619029943,3.936827649347606,16.26611734187827,1.983672846570471
1658789619045935,2.8992141603723667,15.838864728770886,2.105745021744042
1658789619061926,0.8239871824216607,14.80125123979542,2.166781109330941
1658789619077918,-0.33569848172737693,15.045395590142562,3.0823224231326094
1658789619093910,-1.1902037079423735,16.08300907911803,3.692683299000464
1658789619109902,-1.1291676203554744,17.48683909361398,4.180971999694748
1658789619125893,1.3122758831159445,18.524452582589447,4.60822461280236
1658789619141885,4.058899824521177,19.01274128328373,5.523765926604028
1658789619157867,5.462729839017356,19.80621042191183,7.049668116273779
1658789619173859,6.8665598535133086,21.69832913710229,7.660028992141633
1658789619189850,4.669260700389032,23.102159151598244,7.965209430075447
1658789619205842,2.4719615472647547,24.505989166094423,7.354848554207592
1658789619221834,1.1291676203554744,26.031891355763946,7.843137254901876
1658789619237825,1.0070954451819034,27.252613107499656,9.063859006637585
1658789619253817,1.2512397955290453,27.557793545433697,9.369039444571627
1658789619269809,3.2043945983061803,28.656443121995835,9.796292057679011
1658789619285801,5.76791027695117,30.060273136491787,10.406652933546866
1658789619301792,7.965209430075447,32.257572289616064,11.810482948043045
1658789619317784,5.584802014190927,33.661402304112244,12.726024261844714
1658789619333776,3.2043945983061803,34.33279926756677,12.481879911497572
1658789619349767,0.8239871824216607,35.065232318608196,13.45845731288614
1658789619365759,3.2043945983061803,34.63797970550081,14.068818188753994
1658789619381751,2.3498893720911838,33.600366216525344,13.64156557564661
1658789619397742,0.3967345693140487,33.3562218661782,13.519493400473038
1658789619413734,-1.8616006713969,34.08865491721963,15.167467765316132
1658789619429726,-2.5940337224383256,34.39383535515367,15.472648203250174
1658789619445717,-1.4343480582895154,34.45487144274034,14.740215152208748
1658789619461709,0.8239871824216607,32.80689707789725,13.214312962538997
1658789619477691,3.5095750362402214,31.586175326161538,12.542915999084471
1658789619493683,6.378271152819025,31.83031967650868,12.298771648737329
1658789619509675,5.2185854886702145,32.13550011444249,12.23773556115043
1658789619525666,3.692683299000464,32.86793316548392,12.481879911497572
1658789619541658,0.213626306553806,33.96658274204606,12.848096437018285
1658789619557650,-1.1902037079423735,35.61455710688938,12.542915999084471
1658789619573641,0.7019150072480898,36.163881895170334,12.726024261844714
1658789619589633,1.8616006713969,35.49248493171581,11.993591210803288
1658789619605625,1.6784924086366573,35.248340581368666,13.092240787365427
1658789619621616,0.7629510948347615,35.37041275654224,15.10643167772946
1658789619637608,1.983672846570471,36.22491798275723,16.754406042572555
1658789619653600,3.692683299000464,36.408026245517476,14.740215152208748
1658789619669592,4.42511635004189,35.73662928206295,11.07804989700162
1658789619685583,1.6784924086366573,35.18730449378177,10.040436408026153
1658789619701575,2.532997634851654,35.43144884412891,11.261158159761862
1658789619717567,4.486152437628789,37.01838712138533,13.45845731288614
1658789619733558,6.317235065232353,36.65217059586462,12.359807736324
1658789619749550,1.4343480582895154,35.004196231021524,10.040436408026153
1658789619765542,-0.33569848172737693,34.69901579308748,9.55214770733187
1658789619781533,0.5798428320745188,35.065232318608196,11.566338597695903
1658789619797515,1.5564202334630863,34.88212405584795,11.993591210803288
1658789619813507,-0.7019150072480898,34.08865491721963,9.796292057679011
1658789619829499,-3.2043945983061803,33.661402304112244,9.613183794918768
1658789619845491,-1.0070954451819034,33.600366216525344,11.139085984588291
1658789619861482,4.119935912108076,33.783474479285815,12.054627298390187
1658789619877474,8.575570305943302,32.562752727550105,10.406652933546866
1658789619893466,6.134126802471883,31.036850537880355,9.185931181811156
1658789619909457,5.0354772259097444,29.32784008545036,9.369039444571627
1658789619925449,5.645838101777599,28.96162355992965,9.55214770733187
1658789619941441,6.683451590753066,29.633020523384403,8.026245517662346
1658789619957432,5.584802014190927,29.14473182269012,5.3406576638437855
1658789619973424,2.105745021744042,28.656443121995835,3.2654306858930795
1658789619989416,0.9460593575952316,29.022659647516548,3.692683299000464
1658789620005407,1.4343480582895154,29.449912260623933,4.60822461280236
1658789620021399,2.288853284504512,30.243381399252257,5.2185854886702145
1658789620037391,2.8992141603723667,30.36545357442583,5.706874189364498
1658789620053382,1.0681315327688026,31.586175326161538,7.660028992141633
1658789620069374,0.3967345693140487,32.501716639963206,9.85732814526591
1658789620085366,1.4953841458761872,33.05104142824439,11.505302510109004
1658789620101358,2.9602502479590385,32.562752727550105,10.89494163424115
1658789620117340,2.7771419851987957,32.562752727550105,10.406652933546866
1658789620133331,0.7629510948347615,32.86793316548392,10.467689021133765
1658789620149323,1.0681315327688026,33.23414969100463,11.810482948043045
1658789620165315,2.410925459678083,32.86793316548392,10.955977721828049
1658789620181306,3.570611123826893,32.440680552376534,9.246967269398056
1658789620197298,3.997863736934505,32.92896925307082,8.697642481116873
1658789620213290,6.500343327992596,33.29518577859153,9.613183794918768
1658789620229282,7.232776379034021,32.80689707789725,9.73525597009234
1658789620245273,8.819714656290444,33.478294041351774,9.369039444571627
1658789620261265,8.392462043183059,33.905546654459386,9.002822919050914
1658789620277257,4.730296787975931,33.3562218661782,7.965209430075447
1658789620293248,1.9226367589837992,33.23414969100463,6.683451590753066
1658789620309240,0.33569848172737693,33.844510566872486,5.95101853971164
1658789620325232,1.9226367589837992,34.88212405584795,6.683451590753066
1658789620341223,3.936827649347606,35.248340581368666,6.9886320286868795
1658789620357215,4.60822461280236,35.43144884412891,8.148317692835917
1658789620373207,5.828946364538069,35.49248493171581,9.430075532158298
1658789620389198,5.096513313496644,36.22491798275723,10.406652933546866
1658789620405190,1.3733119707026162,36.71320668345152,9.308003356984727
1658789620421182,-3.1433585107195086,37.506675822079615,9.613183794918768
1658789620437164,-2.105745021744042,38.11703669794747,11.749446860456146
1658789620453156,3.3264667734797513,37.567711909666514,12.970168612191856
1658789620469147,8.6366063935302,36.469062333104375,11.993591210803288
1658789620485139,9.491111619745197,35.61455710688938,10.101472495613052
1658789620501131,4.60822461280236,35.43144884412891,8.575570305943302
1658789620517122,1.739528496223329,36.408026245517476,9.979400320439481
1658789620533114,-0.3967345693140487,36.285954070343905,9.85732814526591
1658789620549106,4.303044174868319,35.98077363241009,9.55214770733187
1658789620565097,4.547188525215461,35.37041275654224,9.063859006637585
1658789620581089,3.4485389486533222,35.18730449378177,9.73525597009234
1658789620597081,4.730296787975931,34.57694361791391,11.261158159761862
1658789620613072,3.6316472114137923,33.11207751583106,9.979400320439481
1658789620629064,0.5798428320745188,31.70824750133511,8.209353780422589
1658789620645056,-5.76791027695117,30.975814450293683,7.232776379034021
1658789620661048,-6.9886320286868795,31.158922713053926,7.721065079728305
1658789620677039,-3.570611123826893,31.64721141374821,8.6366063935302
1658789620693031,1.9226367589837992,31.403067063401068,8.270389868009488
1658789620709023,7.721065079728305,31.097886625467254,8.148317692835917
1658789620725014,9.613183794918768,31.280994888227497,9.246967269398056
1658789620741006,8.33142595559616,32.379644464789635,11.07804989700162
1658789620756988,6.256198977645454,34.2107270923932,13.76363775082018
1658789620772980,6.805523765926637,35.30937666895534,16.815442130159454
1658789620788972,8.087281605249018,34.88212405584795,17.79201953154802
1658789620804963,5.706874189364498,32.86793316548392,16.571297779812312
1658789620820955,1.8616006713969,32.01342793926892,15.228503852903032
1658789620836947,-2.410925459678083,32.684824902723676,15.411612115663274
1658789620852938,-0.2746623941404778,35.248340581368666,16.876478217746126
1658789620868930,6.012054627298312,35.98077363241009,17.24269474326684
1658789620884922,7.11070420386045,34.2717631799801,16.26611734187827
1658789620900913,6.805523765926637,33.11207751583106,16.388189517051842
1658789620916905,9.308003356984727,32.99000534065749,19.195849546043974
1658789620932897,7.904173342488775,32.562752727550105,20.599679560540153
1658789620948888,6.8665598535133086,33.05104142824439,20.660715648126825
1658789620964880,0.45777065690094787,32.92896925307082,20.05035477225897
1658789620980872,-0.8850232700083325,32.562752727550105,20.782787823300396
1658789620996863,0.09155413138023505,30.73167009994654,20.35553521019301
1658789621012855,3.6316472114137923,28.96162355992965,18.89066910811016
1658789621028847,3.6316472114137923,28.107118333714652,17.48683909361398
1658789621044839,3.814755474174035,28.656443121995835,18.097199969481835
1658789621060830,5.523765926604028,28.534370946822264,18.463416495002548
1658789621076782,8.392462043183059,27.74090180819394,17.914091706721592
1658789621092773,11.810482948043045,27.008468757152514,17.66994735637445
1658789621108764,11.810482948043045,26.7032883192187,17.853055619134693
1658789621124755,10.467689021133765,26.459143968871558,17.79201953154802
1658789621140747,7.232776379034021,26.764324406805372,16.754406042572555
1658789621156738,4.42511635004189,26.337071793697987,15.899900816357558
1658789621172729,0.3967345693140487,25.848783093003703,15.716792553597315
1658789621188720,-3.3264667734797513,24.26184481574728,14.618142977035177
1658789621204712,-4.852368963149502,23.285267414358714,14.007782101167322
1658789621220703,-2.7161058976118966,22.79697871366443,13.885709925993751
1658789621236694,0.9460593575952316,22.552834363317288,13.824673838406852
1658789621252685,3.997863736934505,21.759365224688963,13.153276874952326
1658789621268676,5.645838101777599,21.637293049515392,12.909132524605184
1658789621284668,6.500343327992596,21.759365224688963,12.664988174258042
1658789621300659,9.002822919050914,21.51522087434182,12.359807736324
1658789621316650,9.55214770733187,21.27107652399468,11.810482948043045
1658789621332641,9.308003356984727,20.843823910887295,11.261158159761862
1658789621348632,5.523765926604028,20.23346303501944,10.284580758373295
1658789621364624,3.3875028610666504,19.9893186846723,9.918364232852582
1658789621380615,3.2654306858930795,19.1348134584573,9.73525597009234
1658789621396637,3.2654306858930795,18.463416495002548,8.819714656290444
1658789621412628,5.645838101777599,18.70756084534969,8.51453421835663
1658789621428620,5.157549401083315,18.463416495002548,8.148317692835917
1658789621444612,1.1291676203554744,17.975127794308264,7.537956816968062
1658789621460603,-0.8850232700083325,18.158236057068734,7.537956816968062
1658789621476595,0.03051804379333589,18.219272144655406,7.782101167315204
1658789621492587,2.7161058976118966,18.219272144655406,8.148317692835917
1658789621508578,1.8005645838102282,17.730983443961122,8.758678568703772
1658789621524570,2.8992141603723667,17.975127794308264,9.73525597009234
1658789621540562,3.570611123826893,18.158236057068734,10.162508583199724
1658789621556553,3.814755474174035,17.66994735637445,9.73525597009234
1658789621572545,2.532997634851654,17.24269474326684,9.491111619745197
1658789621588537,0.5188067444876197,17.059586480506596,9.73525597009234
1658789621604529,-1.4953841458761872,16.937514305333025,9.124895094224485
1658789621620520,0.5188067444876197,18.158236057068734,8.758678568703772
1658789621636512,4.669260700389032,17.853055619134693,7.660028992141633
1658789621652504,5.76791027695117,16.754406042572555,7.660028992141633
1658789621668495,5.76791027695117,16.02197299153113,8.575570305943302
1658789621684487,7.232776379034021,16.2050812542916,10.833905546654478
1658789621700479,5.462729839017356,16.388189517051842,10.833905546654478
1658789621716461,5.2185854886702145,16.44922560463874,10.467689021133765
1658789621732452,2.105745021744042,15.167467765316132,9.369039444571627
1658789621748444,-0.5188067444876197,14.007782101167322,8.148317692835917
1658789621764436,-1.5564202334630863,14.007782101167322,8.33142595559616
1658789621780428,0.03051804379333589,14.740215152208748,7.965209430075447
1658789621796419,2.532997634851654,16.08300907911803,7.4158846417944915
1658789621812411,2.8992141603723667,16.510261692225413,6.561379415579495
1658789621828403,4.058899824521177,17.66994735637445,7.476920729381163
1658789621844394,6.317235065232353,18.646524757763018,8.941786831464015
1658789621860386,7.049668116273779,18.82963302052326,9.246967269398056
1658789621876378,5.889982452124741,18.89066910811016,8.941786831464015
1658789621892369,3.692683299000464,19.317921721217544,8.819714656290444
1658789621908361,0.9460593575952316,20.11139085984587,9.67421988250544
1658789621924353,-0.8239871824216607,20.35553521019301,9.369039444571627
1658789621940344,-0.9460593575952316,20.599679560540153,7.965209430075447
1658789621956336,0.7019150072480898,20.538643472953254,7.537956816968062
1658789621972328,-0.213626306553806,20.599679560540153,7.965209430075447
1658789621988319,-1.4343480582895154,20.35553521019301,9.124895094224485
1658789622004311,-1.9226367589837992,18.58548867017612,10.101472495613052
1658789622020303,-3.7537193865873633,17.303730830853738,9.308003356984727
1658789622036255,-3.2043945983061803,16.571297779812312,8.819714656290444
1658789622052246,-3.997863736934505,14.129854276340893,7.537956816968062
1658789622068237,-4.974441138323073,10.528725108720437,5.279621576256886
1658789622084228,-6.256198977645454,6.927595941100208,3.3264667734797513
1658789622100219,-4.60822461280236,4.242008087281647,2.532997634851654
1658789622116211,-4.486152437628789,1.0070954451819034,1.3733119707026162
1658789622132202,-5.523765926604028,-2.532997634851654,-0.5188067444876197
1658789622148193,-5.76791027695117,-6.073090714885211,-2.5940337224383256
1658789622164184,-4.547188525215461,-9.67421988250544,-3.997863736934505
1658789622180175,-4.303044174868319,-13.275349050125897,-5.706874189364498
1658789622196167,-5.0354772259097444,-17.24269474326684,-8.087281605249018
1658789622212158,-5.523765926604028,-20.965896086060866,-10.406652933546866
1658789622228149,-5.157549401083315,-23.7125200274661,-12.909132524605184
1658789622244140,-5.95101853971164,-25.909819180590375,-15.10643167772946
1658789622260131,-9.430075532158298,-28.595407034408936,-17.120622568093268
1658789622276123,-12.23773556115043,-31.830319676508907,-18.82963302052326
1658789622292114,-12.23773556115043,-33.844510566872714,-19.439993896391115
1658789622308105,-10.040436408026153,-34.51590753032747,-19.745174334325156
1658789622324096,-10.284580758373295,-34.51590753032747,-19.9893186846723
1658789622340088,-10.711833371480907,-34.82108796826128,-20.416571297779683
1658789622356109,-8.758678568703772,-34.94316014343485,-19.623102159151586
1658789622372101,-4.547188525215461,-34.271763179980326,-18.82963302052326
1658789622388093,-5.584802014190927,-34.69901579308771,-17.730983443961122
1658789622404084,-10.223544670786623,-34.94316014343485,-16.632333867398984
1658789622420076,-11.688410772869474,-34.82108796826128,-15.838864728770886
1658789622436068,-8.45349813076973,-34.45487144274057,-15.838864728770886
1658789622452059,-6.256198977645454,-35.492484931716035,-16.754406042572555
1658789622468051,-9.67421988250544,-37.20149538414603,-18.341344319828977
1658789622484043,-12.787060349431613,-37.994964522774126,-17.853055619134693
1658789622500034,-12.603952086671143,-38.056000610361025,-16.2050812542916
1658789622516026,-12.23773556115043,-39.093614099336264,-16.02197299153113
1658789622532018,-14.92332341496899,-41.47402151522101,-16.754406042572555
1658789622548009,-15.533684290836845,-42.69474326695672,-17.730983443961122
1658789622564001,-14.190890363927565,-42.32852674143601,-18.58548867017612
1658789622579993,-10.528725108720437,-42.38956282902268,-20.477607385366582
1658789622595985,-8.819714656290444,-44.037537193866,-22.67490653849086
1658789622611976,-4.669260700389032,-45.38033112077528,-23.285267414358714
1658789622627968,-2.166781109330941,-45.44136720836195,-22.430762188143717
1658789622643960,-1.1291676203554744,-44.525825894560285,-20.904859998473967
1658789622659951,-4.547188525215461,-44.220645456626244,-19.9282825970854
1658789622675933,-8.819714656290444,-44.342717631799815,-18.463416495002548
1658789622691925,-10.528725108720437,-43.427176317998146,-16.2050812542916
1658789622707917,-9.308003356984727,-43.244068055237676,-15.716792553597315
1658789622723909,-8.45349813076973,-43.67132066834529,-15.838864728770886
1658789622739900,-8.026245517662346,-44.342717631799815,-17.24269474326684
1658789622755892,-4.669260700389032,-43.73235675593196,-16.44922560463874
1658789622771884,-3.0823224231326094,-44.342717631799815,-16.632333867398984
1658789622787875,-7.4158846417944915,-45.746547646295994,-18.341344319828977
1658789622803867,-12.359807736324,-46.72312504768456,-19.745174334325156
1658789622819859,-17.24269474326684,-46.84519722285813,-20.294499122606112
1658789622835850,-18.158236057068734,-46.66208896009766,-20.23346303501944
1658789622851842,-14.862287327382319,-46.60105287251099,-21.026932173647538
1658789622867834,-11.07804989700162,-46.54001678492409,-22.430762188143717
1658789622883825,-6.378271152819025,-46.72312504768456,-22.8580148012511
1658789622899817,-0.9460593575952316,-45.868619821469565,-21.637293049515392
1658789622915809,2.166781109330941,-44.76997024490743,-20.416571297779683
1658789622931800,3.692683299000464,-44.15960936903957,-18.70756084534969
1658789622947792,-1.8005645838102282,-43.9765011062791,-17.42580300602731
1658789622963784,-9.55214770733187,-43.61028458075839,-16.08300907911803
1658789622979776,-11.688410772869474,-42.75577935454339,-14.373998626688035
1658789622995727,-7.17174029144735,-42.084382391088866,-14.007782101167322
1658789623011718,-1.6784924086366573,-42.75577935454339,-15.777828641183987
1658789623027710,-3.6316472114137923,-44.8310063324941,-18.82963302052326
1658789623043701,-7.843137254901876,-45.44136720836195,-20.294499122606112
1658789623059692,-7.843137254901876,-44.28168154421314,-20.477607385366582
1658789623075683,-2.410925459678083,-43.91546501869243,-20.843823910887295
1658789623091674,1.4343480582895154,-46.11276417181671,-23.224231326771815
1658789623107666,-0.5798428320745188,-48.126955062180514,-25.543602655069662
1658789623123657,-3.814755474174035,-47.333485923552416,-24.811169604028237
1658789623139648,-4.486152437628789,-44.342717631799815,-22.980086976424673
1658789623155639,-3.7537193865873633,-42.02334630350197,-20.721751735713724
1658789623171630,-2.532997634851654,-40.741588464179586,-18.280308232242305
1658789623187622,-2.532997634851654,-40.80262455176626,-15.594720378423744
1658789623203613,-3.570611123826893,-41.29091325246054,-13.275349050125897
1658789623219604,-4.119935912108076,-41.1078049897003,-11.688410772869474
1658789623235595,-2.9602502479590385,-39.88708323796459,-10.223544670786623
1658789623251587,-1.5564202334630863,-39.520866712443876,-10.162508583199724
1658789623267578,-5.645838101777599,-41.22987716487387,-12.359807736324
1658789623283569,-8.575570305943302,-43.244068055237676,-15.167467765316132
1658789623299560,-10.040436408026153,-43.9765011062791,-17.42580300602731
1658789623315551,-5.401693751430457,-42.75577935454339,-17.36476691844041
1658789623331543,-0.8850232700083325,-42.999923704890534,-18.524452582589447
1658789623347534,-0.45777065690094787,-45.25825894560171,-22.247653925383247
1658789623363525,-2.410925459678083,-47.333485923552416,-24.26184481574728
1658789623379516,-4.9134050507361735,-47.150377660791946,-23.7125200274661
1658789623395507,-3.6316472114137923,-44.28168154421314,-21.33211261158158
1658789623411499,-0.8239871824216607,-43.121995880064105,-19.501029983978015
1658789623427490,-1.0681315327688026,-44.403753719386714,-20.416571297779683
1658789623443481,0.15259021896690683,-46.35690852216385,-20.965896086060866
1658789623459472,1.4953841458761872,-46.72312504768456,-20.904859998473967
1658789623475463,3.0823224231326094,-45.01411459525457,-19.439993896391115
1658789623491455,4.669260700389032,-43.36614023041125,-18.280308232242305
1658789623507446,5.157549401083315,-43.91546501869243,-19.256885633630873
1658789623523437,2.9602502479590385,-45.25825894560171,-20.843823910887295
1658789623539428,1.8005645838102282,-45.44136720836195,-21.210040436408008
1658789623555420,6.134126802471883,-43.9765011062791,-18.524452582589447
1658789623571411,2.3498893720911838,-45.685511558709095,-19.1348134584573
1658789623587402,-3.997863736934505,-46.9672693980317,-20.965896086060866
1658789623603393,-7.17174029144735,-45.563439383535524,-19.9282825970854
1658789623619384,-3.3875028610666504,-42.93888761730386,-17.975127794308264
1658789623635406,-3.6316472114137923,-42.38956282902268,-18.097199969481835
1658789623651398,-0.5188067444876197,-40.680552376592686,-17.303730830853738
1658789623667389,7.476920729381163,-39.276722362096734,-13.092240787365427
1658789623683381,7.354848554207592,-40.619516289006015,-14.373998626688035
1658789623699373,0.9460593575952316,-41.71816586556815,-15.533684290836845
1658789623715365,-3.0823224231326094,-39.82604715037769,-13.031204699778755
1658789623731356,-5.706874189364498,-39.03257801174959,-11.871519035629717
1658789623747348,-8.880750743877343,-39.093614099336264,-14.068818188753994
1658789623763340,-6.9886320286868795,-36.957351033798886,-13.58052948805971
1658789623779331,-4.180971999694748,-35.24834058136889,-11.932555123216616
1658789623795323,-0.5188067444876197,-34.94316014343485,-11.01701380941472
1658789623811315,6.378271152819025,-34.63797970550104,-8.45349813076973
1658789623827306,12.970168612191856,-34.94316014343485,-7.598992904554734
1658789623843298,15.594720378423744,-35.73662928206318,-8.209353780422589
1658789623859290,7.843137254901876,-36.28595407034413,-8.819714656290444
1658789623875281,0.03051804379333589,-34.088654917219856,-5.889982452124741
1658789623891273,-5.706874189364498,-32.44068055237676,-3.7537193865873633
1658789623907265,-5.401693751430457,-31.342030975814623,-2.105745021744042
1658789623923256,-1.739528496223329,-32.37964446478986,-2.7161058976118966
1658789623939248,-0.7629510948347615,-34.57694361791414,-5.279621576256886
