Timestamp (microseconds),Gyro X (°/s),Gyro Y (°/s),Gyro Z (°/s)
1658789595169555,0.8850232700083325,0.09155413138023505,-0.9460593575952316
1658789595185555,0.03051804379333589,-0.45777065690094787,-1.6174563210497581
1658789595201555,0.15259021896690683,-0.2746623941404778,-1.8005645838102282
1658789595217555,0.7629510948347615,-0.03051804379333589,-1.3733119707026162
1658789595233554,1.3122758831159445,0.45777065690094787,-1.0681315327688026
1658789595249554,0.6408789196611906,0.5188067444876197,-1.0681315327688026
1658789595265554,-0.8239871824216607,0.09155413138023505,-1.6784924086366573
1658789595281554,-0.6408789196611906,-0.15259021896690683,-1.739528496223329
1658789595297554,0.09155413138023505,0.2746623941404778,-1.1291676203554744
1658789595313553,-0.33569848172737693,0.5798428320745188,-1.3122758831159445
1658789595329553,-1.1902037079423735,0.5798428320745188,-2.166781109330941
1658789595345553,0.33569848172737693,0.6408789196611906,-1.8005645838102282
1658789595361553,3.0823224231326094,0.8239871824216607,-0.9460593575952316
1658789595377553,3.936827649347606,0.7629510948347615,-1.1291676203554744
1658789595393552,2.288853284504512,1.0070954451819034,-1.4953841458761872
1658789595409552,-0.213626306553806,0.7629510948347615,-1.8616006713969
1658789595425552,0.03051804379333589,0.5798428320745188,-1.8616006713969
1658789595441552,0.2746623941404778,0.2746623941404778,-1.4953841458761872
1658789595457552,0.6408789196611906,0.213626306553806,-1.5564202334630863
1658789595473551,0.8850232700083325,0.2746623941404778,-1.4343480582895154
1658789595489563,0.45777065690094787,0.6408789196611906,-1.4343480582895154
1658789595505562,-0.6408789196611906,0.33569848172737693,-2.105745021744042
1658789595521562,-0.45777065690094787,-0.03051804379333589,-2.04470893415737
1658789595537562,0.7019150072480898,0.03051804379333589,-1.6784924086366573
1658789595553562,1.4953841458761872,0.03051804379333589,-1.5564202334630863
1658789595569562,0.8239871824216607,-0.03051804379333589,-1.8005645838102282
1658789595585561,0.5188067444876197,-0.09155413138023505,-2.166781109330941
1658789595601561,0.9460593575952316,0.2746623941404778,-1.5564202334630863
1658789595617561,-0.03051804379333589,0.2746623941404778,-1.5564202334630863
1658789595633561,-1.1902037079423735,0.09155413138023505,-1.9226367589837992
1658789595649561,-1.983672846570471,-0.2746623941404778,-2.04470893415737
1658789595665560,-0.213626306553806,-0.09155413138023505,-1.983672846570471
1658789595681560,1.739528496223329,0.2746623941404778,-1.6784924086366573
1658789595697560,1.3122758831159445,0.213626306553806,-1.2512397955290453
1658789595713560,1.3122758831159445,0.45777065690094787,-1.0681315327688026
1658789595729560,0.9460593575952316,0.7629510948347615,-0.8239871824216607
1658789595745559,0.45777065690094787,0.6408789196611906,-0.5798428320745188
1658789595761559,1.2512397955290453,0.45777065690094787,-0.8239871824216607
1658789595777559,1.2512397955290453,0.33569848172737693,-1.0681315327688026
1658789595793559,1.1902037079423735,-0.15259021896690683,-0.3967345693140487
1658789595809570,3.2654306858930795,-0.03051804379333589,0.8239871824216607
1658789595825570,4.364080262455218,0.09155413138023505,1.739528496223329
1658789595841570,2.5940337224383256,-1.0070954451819034,2.166781109330941
1658789595857569,2.8381780727854675,-1.6174563210497581,2.227817196917613
1658789595873569,2.227817196917613,-1.3122758831159445,2.227817196917613
1658789595889569,-0.09155413138023505,-0.8239871824216607,1.8005645838102282
1658789595905569,-1.9226367589837992,-0.33569848172737693,1.4343480582895154
1658789595921568,0.8850232700083325,0.213626306553806,0.7019150072480898
1658789595937568,2.105745021744042,0.8239871824216607,-0.33569848172737693
1658789595953568,-0.5188067444876197,1.0681315327688026,-0.45777065690094787
1658789595969568,-2.227817196917613,1.1291676203554744,-1.0681315327688026
1658789595985568,-0.09155413138023505,1.1902037079423735,-0.7629510948347615
1658789596001567,0.7629510948347615,0.8239871824216607,-0.33569848172737693
1658789596017567,0.3967345693140487,0.33569848172737693,-0.2746623941404778
1658789596033567,1.3122758831159445,-0.09155413138023505,-0.3967345693140487
1658789596049567,2.9602502479590385,0.15259021896690683,-0.6408789196611906
1658789596065567,1.4953841458761872,0.6408789196611906,-1.2512397955290453
1658789596081566,-0.5798428320745188,1.0070954451819034,-2.105745021744042
1658789596097566,-1.2512397955290453,0.8239871824216607,-2.288853284504512
1658789596113566,0.2746623941404778,0.8850232700083325,-2.227817196917613
1658789596129547,-0.213626306553806,0.6408789196611906,-2.166781109330941
1658789596145547,-0.6408789196611906,0.45777065690094787,-2.288853284504512
1658789596161546,0.3967345693140487,0.7629510948347615,-2.410925459678083
1658789596177546,-0.213626306553806,1.0070954451819034,-2.410925459678083
1658789596193546,-1.6174563210497581,1.3733119707026162,-3.0823224231326094
1658789596209546,-0.6408789196611906,1.983672846570471,-3.3264667734797513
1658789596225546,1.3733119707026162,1.739528496223329,-3.4485389486533222
1658789596241545,1.983672846570471,1.8616006713969,-3.4485389486533222
1658789596257545,0.6408789196611906,1.739528496223329,-3.2043945983061803
1658789596273545,0.09155413138023505,1.3122758831159445,-3.1433585107195086
1658789596289545,0.8850232700083325,1.5564202334630863,-2.410925459678083
1658789596305544,0.8850232700083325,1.3733119707026162,-2.410925459678083
1658789596321544,-0.6408789196611906,0.8850232700083325,-2.7161058976118966
1658789596337544,-1.0681315327688026,0.7629510948347615,-2.227817196917613
1658789596353544,-0.7629510948347615,1.1902037079423735,-1.8005645838102282
1658789596369544,-1.9226367589837992,1.1902037079423735,-2.288853284504512
1658789596385543,-1.6174563210497581,0.7019150072480898,-2.227817196917613
1658789596401543,1.4343480582895154,0.8850232700083325,-1.8005645838102282
1658789596417543,1.4953841458761872,0.5188067444876197,-1.4953841458761872
1658789596433543,0.15259021896690683,0.15259021896690683,-0.8850232700083325
1658789596449524,0.213626306553806,-0.09155413138023505,-0.3967345693140487
1658789596465523,1.5564202334630863,0.33569848172737693,-0.15259021896690683
1658789596481523,0.2746623941404778,-0.03051804379333589,-0.8239871824216607
1658789596497523,-1.4953841458761872,-0.45777065690094787,-1.5564202334630863
1658789596513523,-1.3122758831159445,-0.2746623941404778,-1.739528496223329
1658789596529523,-0.8850232700083325,-0.09155413138023505,-2.105745021744042
1658789596545522,0.5188067444876197,0.3967345693140487,-2.288853284504512
1658789596561522,2.227817196917613,0.45777065690094787,-2.532997634851654
1658789596577522,1.4343480582895154,0.213626306553806,-2.105745021744042
1658789596593522,0.33569848172737693,-0.15259021896690683,-1.983672846570471
1658789596609521,0.09155413138023505,-0.15259021896690683,-1.9226367589837992
1658789596625521,0.5798428320745188,-0.09155413138023505,-1.3733119707026162
1658789596641521,1.1902037079423735,0.15259021896690683,-1.3733119707026162
1658789596657521,-0.8850232700083325,0.6408789196611906,-1.9226367589837992
1658789596673521,-3.2043945983061803,0.7019150072480898,-3.0212863355459376
1658789596689520,-2.410925459678083,1.5564202334630863,-2.4719615472647547
1658789596705520,0.8239871824216607,1.5564202334630863,-1.1902037079423735
1658789596721520,1.8616006713969,1.4343480582895154,-1.4953841458761872
1658789596737520,-0.8239871824216607,1.3122758831159445,-1.8616006713969
1658789596753520,-2.5940337224383256,0.7629510948347615,-1.3122758831159445
1658789596769531,-1.1902037079423735,0.8850232700083325,-0.45777065690094787
1658789596785531,1.2512397955290453,1.6174563210497581,0.03051804379333589
1658789596801530,0.03051804379333589,1.4953841458761872,-0.8850232700083325
1658789596817530,-0.3967345693140487,1.3122758831159445,-1.6784924086366573
1658789596833530,0.45777065690094787,1.6174563210497581,-0.8239871824216607
1658789596849530,2.166781109330941,2.105745021744042,-0.09155413138023505
1658789596865530,1.2512397955290453,2.288853284504512,-0.5798428320745188
1658789596881529,-0.8239871824216607,1.983672846570471,-0.8239871824216607
1658789596897529,-1.8005645838102282,1.8616006713969,-1.0681315327688026
1658789596913529,-0.03051804379333589,1.6174563210497581,-0.9460593575952316
1658789596929529,-0.33569848172737693,2.105745021744042,-0.45777065690094787
1658789596945529,-2.227817196917613,2.227817196917613,-1.0070954451819034
1658789596961528,-2.227817196917613,2.166781109330941,-1.2512397955290453
1658789596977528,-0.7629510948347615,1.5564202334630863,-1.2512397955290453
1658789596993528,1.739528496223329,1.4343480582895154,-1.3733119707026162
1658789597009528,0.5798428320745188,1.6174563210497581,-1.1291676203554744
1658789597025528,-1.2512397955290453,1.1291676203554744,-1.0070954451819034
1658789597041527,0.3967345693140487,1.1291676203554744,-0.6408789196611906
1658789597057527,0.7629510948347615,0.7019150072480898,-0.03051804379333589
1658789597073527,-0.3967345693140487,0.5188067444876197,-0.15259021896690683
1658789597089508,0.03051804379333589,0.8239871824216607,-0.8850232700083325
1658789597105507,0.2746623941404778,1.0070954451819034,-1.0070954451819034
1658789597121507,-0.15259021896690683,0.5188067444876197,-1.3122758831159445
1658789597137507,0.213626306553806,0.5798428320745188,-1.1902037079423735
1658789597153507,0.7629510948347615,0.9460593575952316,-0.8239871824216607
1658789597169507,0.15259021896690683,0.33569848172737693,-1.5564202334630863
1658789597185506,1.0070954451819034,0.213626306553806,-1.739528496223329
1658789597201506,0.5798428320745188,0.15259021896690683,-1.4953841458761872
1658789597217506,-0.213626306553806,0.15259021896690683,-1.2512397955290453
1658789597233506,0.3967345693140487,0.45777065690094787,-1.1902037079423735
1658789597249506,-0.2746623941404778,0.2746623941404778,-1.4953841458761872
1658789597265505,-2.105745021744042,0.03051804379333589,-1.9226367589837992
1658789597281505,-2.04470893415737,-0.213626306553806,-2.166781109330941
1658789597297505,0.9460593575952316,-0.09155413138023505,-1.9226367589837992
1658789597313505,1.983672846570471,0.2746623941404778,-1.3733119707026162
1658789597329505,0.5188067444876197,-0.09155413138023505,-1.4343480582895154
1658789597345504,-0.6408789196611906,-0.5798428320745188,-1.3733119707026162
1658789597361504,1.0681315327688026,-0.5188067444876197,-0.7019150072480898
1658789597377504,2.7161058976118966,0.03051804379333589,-0.33569848172737693
1658789597393504,1.2512397955290453,0.3967345693140487,-1.1291676203554744
1658789597409515,-1.4953841458761872,0.15259021896690683,-1.983672846570471
1658789597425515,-1.5564202334630863,-0.03051804379333589,-1.3122758831159445
1658789597441515,1.3733119707026162,0.213626306553806,-0.2746623941404778
1658789597457514,1.739528496223329,0.15259021896690683,-0.33569848172737693
1658789597473514,-0.45777065690094787,-0.33569848172737693,-0.8239871824216607
1658789597489514,-0.09155413138023505,-0.3967345693140487,-1.2512397955290453
1658789597505514,1.6174563210497581,0.45777065690094787,-1.6174563210497581
1658789597521514,2.410925459678083,1.1291676203554744,-1.3122758831159445
1658789597537513,-0.03051804379333589,0.8850232700083325,-0.8850232700083325
1658789597553513,-1.983672846570471,0.45777065690094787,-1.2512397955290453
1658789597569513,-1.4343480582895154,-0.33569848172737693,-1.739528496223329
1658789597585513,1.4343480582895154,-0.3967345693140487,-1.6174563210497581
1658789597601513,2.8992141603723667,0.3967345693140487,-1.3733119707026162
1658789597617512,0.213626306553806,1.1902037079423735,-1.4343480582895154
1658789597633512,-0.213626306553806,1.0681315327688026,-2.166781109330941
1658789597649512,1.9226367589837992,1.0070954451819034,-2.166781109330941
1658789597665512,2.655069810025225,0.8850232700083325,-1.983672846570471
1658789597681512,0.15259021896690683,1.3122758831159445,-2.4719615472647547
1658789597697511,-2.04470893415737,0.5188067444876197,-2.9602502479590385
1658789597713511,0.15259021896690683,0.33569848172737693,-2.227817196917613
1658789597729492,2.4719615472647547,0.15259021896690683,-1.4953841458761872
1658789597745492,1.739528496223329,0.15259021896690683,-1.2512397955290453
1658789597761491,0.15259021896690683,0.2746623941404778,-1.983672846570471
1658789597777491,0.09155413138023505,0.2746623941404778,-3.0823224231326094
1658789597793491,0.9460593575952316,0.3967345693140487,-2.4719615472647547
1658789597809491,-0.2746623941404778,0.45777065690094787,-1.8616006713969
1658789597825491,-0.5798428320745188,1.1902037079423735,-1.3733119707026162
1658789597841490,0.09155413138023505,1.739528496223329,-1.3122758831159445
1658789597857490,-0.03051804379333589,1.3122758831159445,-1.8616006713969
1658789597873490,0.2746623941404778,0.7629510948347615,-2.105745021744042
1658789597889490,-0.6408789196611906,0.3967345693140487,-1.739528496223329
1658789597905490,0.8850232700083325,0.213626306553806,-1.8616006713969
1658789597921489,2.8381780727854675,0.7629510948347615,-1.9226367589837992
1658789597937489,2.5940337224383256,0.8850232700083325,-1.6784924086366573
1658789597953489,1.2512397955290453,0.8850232700083325,-1.4343480582895154
1658789597969489,0.3967345693140487,0.5798428320745188,-1.983672846570471
1658789597985489,-0.15259021896690683,0.3967345693140487,-2.5940337224383256
1658789598001488,-1.3122758831159445,0.5798428320745188,-2.227817196917613
1658789598017488,-0.2746623941404778,0.6408789196611906,-1.739528496223329
1658789598033488,0.6408789196611906,0.3967345693140487,-1.3733119707026162
1658789598049499,1.6784924086366573,-0.15259021896690683,-0.7019150072480898
1658789598065499,1.9226367589837992,-0.3967345693140487,-0.213626306553806
1658789598081499,0.45777065690094787,-0.03051804379333589,0.03051804379333589
1658789598097499,-0.45777065690094787,0.03051804379333589,-0.33569848172737693
1658789598113498,-0.03051804379333589,-0.15259021896690683,-1.0070954451819034
1658789598129498,0.8239871824216607,-0.213626306553806,-1.4953841458761872
1658789598145498,-0.213626306553806,-0.09155413138023505,-1.0070954451819034
1658789598161498,-0.213626306553806,0.2746623941404778,-0.03051804379333589
1658789598177497,1.1902037079423735,0.5798428320745188,0.15259021896690683
1658789598193497,1.1902037079423735,-0.03051804379333589,0.15259021896690683
1658789598209497,2.5940337224383256,-0.5798428320745188,0.03051804379333589
1658789598225497,2.8381780727854675,-0.213626306553806,-0.03051804379333589
1658789598241497,1.4953841458761872,0.33569848172737693,0.3967345693140487
1658789598257496,0.7629510948347615,0.3967345693140487,0.33569848172737693
1658789598273496,0.9460593575952316,-0.09155413138023505,-0.15259021896690683
1658789598289496,1.1291676203554744,-0.15259021896690683,-1.1902037079423735
1658789598305496,-1.1902037079423735,-0.03051804379333589,-1.6174563210497581
1658789598321496,-1.2512397955290453,0.3967345693140487,-1.1902037079423735
1658789598337495,0.9460593575952316,0.2746623941404778,-1.1291676203554744
1658789598353495,3.0823224231326094,0.213626306553806,-1.0681315327688026
1658789598369476,2.288853284504512,0.33569848172737693,-1.4953841458761872
1658789598385476,0.15259021896690683,0.8239871824216607,-1.739528496223329
1658789598401476,-0.5188067444876197,1.0681315327688026,-2.532997634851654
1658789598417475,0.09155413138023505,1.4343480582895154,-3.1433585107195086
1658789598433475,-0.8239871824216607,1.2512397955290453,-2.9602502479590385
1658789598449475,-0.7629510948347615,1.2512397955290453,-2.7161058976118966
1658789598465475,0.09155413138023505,1.1291676203554744,-2.5940337224383256
1658789598481475,0.09155413138023505,1.0070954451819034,-2.7161058976118966
1658789598497474,0.45777065690094787,1.0070954451819034,-2.410925459678083
1658789598513474,1.0681315327688026,1.0070954451819034,-2.105745021744042
1658789598529474,1.2512397955290453,1.3122758831159445,-1.9226367589837992
1658789598545474,0.5188067444876197,1.2512397955290453,-2.532997634851654
1658789598561473,0.5798428320745188,1.2512397955290453,-2.105745021744042
1658789598577473,0.2746623941404778,1.4953841458761872,-1.2512397955290453
1658789598593473,-0.09155413138023505,1.2512397955290453,-1.3733119707026162
1658789598609473,-1.4953841458761872,1.1291676203554744,-0.8239871824216607
1658789598625473,-1.0681315327688026,1.0070954451819034,-0.213626306553806
1658789598641472,0.03051804379333589,0.5188067444876197,0.09155413138023505
1658789598657472,1.6784924086366573,0.2746623941404778,0.2746623941404778
1658789598673472,1.2512397955290453,0.45777065690094787,0.5798428320745188
1658789598689483,0.09155413138023505,0.7629510948347615,0.3967345693140487
1658789598705483,-0.7629510948347615,0.8239871824216607,0.7019150072480898
1658789598721483,0.2746623941404778,0.5798428320745188,0.8850232700083325
1658789598737483,0.5798428320745188,0.3967345693140487,0.7019150072480898
1658789598753482,-0.9460593575952316,0.45777065690094787,0.6408789196611906
1658789598769482,-1.2512397955290453,0.8239871824216607,-0.213626306553806
1658789598785482,-0.45777065690094787,0.5188067444876197,-1.3733119707026162
1658789598801482,0.8239871824216607,0.5798428320745188,-1.1902037079423735
1658789598817482,0.8850232700083325,0.45777065690094787,-1.0681315327688026
1658789598833481,0.9460593575952316,0.5798428320745188,-1.3733119707026162
1658789598849481,0.33569848172737693,0.45777065690094787,-1.4953841458761872
1658789598865481,0.7629510948347615,-0.03051804379333589,-1.983672846570471
1658789598881481,1.3122758831159445,0.33569848172737693,-2.166781109330941
1658789598897481,-0.213626306553806,0.45777065690094787,-2.04470893415737
1658789598913480,-1.4343480582895154,0.213626306553806,-2.04470893415737
1658789598929480,0.03051804379333589,0.15259021896690683,-1.739528496223329
1658789598945480,1.3122758831159445,0.213626306553806,-1.8616006713969
1658789598961480,1.6174563210497581,0.213626306553806,-2.3498893720911838
1658789598977480,0.8239871824216607,0.15259021896690683,-2.410925459678083
1658789598993479,1.1902037079423735,0.15259021896690683,-1.9226367589837992
1658789599009460,2.105745021744042,-0.03051804379333589,-1.1291676203554744
1658789599025460,2.5940337224383256,-0.09155413138023505,-0.8239871824216607
1658789599041460,1.6784924086366573,-0.09155413138023505,-1.8005645838102282
1658789599057459,-0.33569848172737693,-0.09155413138023505,-2.532997634851654
1658789599073459,-1.6784924086366573,-0.3967345693140487,-3.1433585107195086
1658789599089459,-1.4343480582895154,-0.5188067444876197,-3.814755474174035
1658789599105459,0.8239871824216607,-0.09155413138023505,-3.4485389486533222
1658789599121459,3.0212863355459376,0.2746623941404778,-3.5095750362402214
1658789599137458,3.692683299000464,0.33569848172737693,-3.7537193865873633
1658789599153458,2.227817196917613,0.2746623941404778,-3.4485389486533222
1658789599169458,-0.213626306553806,0.5798428320745188,-3.7537193865873633
1658789599185458,0.15259021896690683,0.7019150072480898,-3.2043945983061803
1658789599201458,2.7161058976118966,0.33569848172737693,-2.227817196917613
1658789599217457,4.242008087281647,0.3967345693140487,-2.166781109330941
1658789599233457,1.8005645838102282,0.45777065690094787,-2.105745021744042
1658789599249457,-1.6174563210497581,0.45777065690094787,-1.8616006713969
1658789599265457,0.03051804379333589,0.7019150072480898,-1.2512397955290453
1658789599281457,1.4953841458761872,1.1291676203554744,0.09155413138023505
1658789599297456,-1.5564202334630863,0.8850232700083325,0.03051804379333589
1658789599313456,-3.6316472114137923,0.15259021896690683,-1.3733119707026162
1658789599329467,-2.288853284504512,0.03051804379333589,-1.3122758831159445
1658789599345467,1.0070954451819034,0.8850232700083325,-0.213626306553806
1658789599361467,0.6408789196611906,1.5564202334630863,0.33569848172737693
1658789599377467,0.09155413138023505,0.8850232700083325,-0.7629510948347615
1658789599393467,-0.33569848172737693,0.33569848172737693,-0.9460593575952316
1658789599409466,0.45777065690094787,0.09155413138023505,-0.8850232700083325
1658789599425466,1.0070954451819034,0.6408789196611906,-1.3122758831159445
1658789599441466,0.45777065690094787,0.7629510948347615,-1.983672846570471
1658789599457466,-1.1902037079423735,0.6408789196611906,-1.739528496223329
1658789599473466,0.45777065690094787,0.7019150072480898,-1.0681315327688026
1658789599489465,1.3733119707026162,1.0681315327688026,-0.5798428320745188
1658789599505465,0.7629510948347615,1.1902037079423735,-1.0681315327688026
1658789599521465,0.15259021896690683,1.1291676203554744,-1.8616006713969
1658789599537465,-0.45777065690094787,0.9460593575952316,-1.3733119707026162
1658789599553465,0.09155413138023505,1.3122758831159445,-0.45777065690094787
1658789599569464,0.7629510948347615,1.4343480582895154,-0.45777065690094787
1658789599585464,1.0681315327688026,1.6784924086366573,-1.1291676203554744
1658789599601464,0.7019150072480898,1.4343480582895154,-1.0070954451819034
1658789599617464,1.8005645838102282,1.1902037079423735,-0.09155413138023505
1658789599633463,1.5564202334630863,1.2512397955290453,0.7629510948347615
1658789599649444,-0.45777065690094787,0.7629510948347615,0.15259021896690683
1658789599665444,-2.532997634851654,1.0070954451819034,-0.213626306553806
1658789599681444,-1.0070954451819034,0.7629510948347615,0.15259021896690683
1658789599697444,0.7629510948347615,1.3122758831159445,1.0681315327688026
1658789599713443,-0.3967345693140487,1.4343480582895154,0.8850232700083325
1658789599729443,-1.5564202334630863,1.1902037079423735,-0.213626306553806
1658789599745443,0.7019150072480898,1.1291676203554744,-0.5188067444876197
1658789599761443,3.2043945983061803,1.3122758831159445,0.5188067444876197
1658789599777443,2.227817196917613,1.1902037079423735,1.5564202334630863
1658789599793442,0.5188067444876197,0.8239871824216607,1.1902037079423735
1658789599809442,-0.7019150072480898,0.9460593575952316,0.7629510948347615
1658789599825442,-0.8850232700083325,1.1291676203554744,0.15259021896690683
1658789599841442,-1.3122758831159445,1.3733119707026162,-0.213626306553806
1658789599857442,-3.2043945983061803,1.4343480582895154,-0.33569848172737693
1658789599873441,-3.814755474174035,1.6174563210497581,-1.1902037079423735
1658789599889441,-5.279621576256886,1.6174563210497581,-3.0823224231326094
1658789599905441,-6.134126802471883,0.9460593575952316,-3.5095750362402214
1658789599921441,-2.288853284504512,0.15259021896690683,-2.4719615472647547
1658789599937440,1.4343480582895154,-1.3733119707026162,-1.4953841458761872
1658789599953440,3.4485389486533222,-2.7161058976118966,-0.213626306553806
1658789599969452,1.5564202334630863,-3.0823224231326094,-0.2746623941404778
1658789599985451,-4.119935912108076,-3.936827649347606,-2.166781109330941
1658789600001451,-6.622415503166167,-4.730296787975931,-3.0212863355459376
1658789600017451,-2.4719615472647547,-5.0354772259097444,-2.8992141603723667
1658789600033451,4.730296787975931,-3.997863736934505,-2.105745021744042
1658789600049450,4.242008087281647,-3.4485389486533222,-1.8005645838102282
1658789600065450,-0.7629510948347615,-3.7537193865873633,-2.288853284504512
1658789600081450,-2.04470893415737,-3.570611123826893,-2.105745021744042
1658789600097450,1.1291676203554744,-3.1433585107195086,-0.9460593575952316
1658789600113450,2.227817196917613,-3.1433585107195086,-0.45777065690094787
1658789600129449,1.0681315327688026,-3.2043945983061803,-0.15259021896690683
1658789600145449,-2.5940337224383256,-2.5940337224383256,0.5798428320745188
1658789600161449,-2.4719615472647547,-2.288853284504512,1.0681315327688026
1658789600177449,0.5188067444876197,-1.6174563210497581,1.739528496223329
1658789600193449,1.6174563210497581,-1.3122758831159445,2.105745021744042
1658789600209448,-0.03051804379333589,-0.2746623941404778,1.8005645838102282
1658789600225448,-3.2043945983061803,-0.33569848172737693,1.2512397955290453
1658789600241448,-1.6174563210497581,-0.7019150072480898,1.3122758831159445
1658789600257448,3.1433585107195086,-0.7019150072480898,2.04470893415737
1658789600273448,4.242008087281647,0.33569848172737693,2.532997634851654
1658789600289428,1.0070954451819034,0.7019150072480898,1.6174563210497581
1658789600305428,-0.5188067444876197,0.45777065690094787,0.9460593575952316
1658789600321428,1.6174563210497581,0.33569848172737693,1.1291676203554744
1658789600337428,4.242008087281647,1.2512397955290453,1.9226367589837992
1658789600353428,2.7161058976118966,2.166781109330941,1.4343480582895154
1658789600369427,0.15259021896690683,2.288853284504512,0.45777065690094787
1658789600385427,-1.3733119707026162,2.227817196917613,0.09155413138023505
1658789600401427,-0.8850232700083325,1.983672846570471,0.15259021896690683
1658789600417427,-0.09155413138023505,2.9602502479590385,0.6408789196611906
1658789600433426,-4.669260700389032,3.570611123826893,-0.15259021896690683
1658789600449426,-7.354848554207592,2.655069810025225,-1.1902037079423735
1658789600465426,-1.4953841458761872,2.4719615472647547,-0.7629510948347615
1658789600481426,4.9134050507361735,2.9602502479590385,0.3967345693140487
1658789600497426,3.570611123826893,3.1433585107195086,0.6408789196611906
1658789600513425,-0.5188067444876197,2.410925459678083,-0.8850232700083325
1658789600529425,0.3967345693140487,2.410925459678083,-1.4953841458761872
1658789600545425,4.119935912108076,2.4719615472647547,-0.3967345693140487
1658789600561425,3.997863736934505,2.8381780727854675,0.5188067444876197
1658789600577425,-0.09155413138023505,2.7161058976118966,-0.15259021896690683
1658789600593424,-4.547188525215461,2.04470893415737,-0.8850232700083325
1658789600609436,-2.105745021744042,1.4953841458761872,-1.1902037079423735
1658789600625435,2.5940337224383256,1.6784924086366573,-0.6408789196611906
1658789600641435,0.5188067444876197,1.5564202334630863,-0.8239871824216607
1658789600657435,-2.8992141603723667,0.9460593575952316,-1.9226367589837992
1658789600673435,0.3967345693140487,1.0070954451819034,-1.6174563210497581
1658789600689435,4.9134050507361735,1.6174563210497581,-1.1291676203554744
1658789600705434,1.9226367589837992,1.4953841458761872,-1.8005645838102282
1658789600721434,-1.4953841458761872,1.0070954451819034,-2.410925459678083
1658789600737434,-2.288853284504512,0.45777065690094787,-2.288853284504512
1658789600753434,1.0681315327688026,0.5798428320745188,-1.4953841458761872
1658789600769434,1.6174563210497581,1.1902037079423735,-0.9460593575952316
1658789600785433,-1.2512397955290453,0.9460593575952316,-1.9226367589837992
1658789600801433,-2.04470893415737,0.6408789196611906,-3.1433585107195086
1658789600817433,0.2746623941404778,0.6408789196611906,-2.5940337224383256
1658789600833433,1.0070954451819034,0.8239871824216607,-1.6784924086366573
1658789600849433,0.03051804379333589,1.0681315327688026,-1.3122758831159445
1658789600865432,-0.5798428320745188,0.2746623941404778,-1.983672846570471
1658789600881432,0.7019150072480898,-0.15259021896690683,-2.3498893720911838
1658789600897432,1.9226367589837992,-0.15259021896690683,-2.04470893415737
1658789600913432,-0.3967345693140487,0.33569848172737693,-1.1291676203554744
1658789600929412,-0.5798428320745188,0.213626306553806,-1.739528496223329
1658789600945412,-0.45777065690094787,0.03051804379333589,-2.3498893720911838
1658789600961412,-0.09155413138023505,0.213626306553806,-2.227817196917613
1658789600977412,1.4953841458761872,0.7019150072480898,-1.739528496223329
1658789600993412,1.8616006713969,0.7629510948347615,-1.4953841458761872
1658789601009411,0.5188067444876197,0.45777065690094787,-1.739528496223329
1658789601025411,-0.7019150072480898,0.33569848172737693,-2.04470893415737
1658789601041411,0.7629510948347615,0.7019150072480898,-1.4343480582895154
1658789601057411,2.532997634851654,0.9460593575952316,-1.6784924086366573
1658789601073411,2.105745021744042,0.5188067444876197,-2.655069810025225
1658789601089410,1.0070954451819034,0.03051804379333589,-3.2043945983061803
1658789601105410,1.0681315327688026,0.5188067444876197,-2.5940337224383256
1658789601121410,0.5798428320745188,1.3733119707026162,-2.288853284504512
1658789601137410,0.33569848172737693,1.0681315327688026,-2.3498893720911838
1658789601153410,0.5798428320745188,0.7629510948347615,-1.8005645838102282
1658789601169409,0.8850232700083325,0.5188067444876197,-1.4343480582895154
1658789601185409,0.213626306553806,0.8239871824216607,-1.4953841458761872
1658789601201409,-0.09155413138023505,0.8850232700083325,-2.410925459678083
1658789601217409,1.2512397955290453,0.8850232700083325,-2.410925459678083
1658789601233409,3.692683299000464,0.7629510948347615,-1.6174563210497581
1658789601249420,3.875791561760934,1.2512397955290453,-0.8239871824216607
1658789601265420,-0.09155413138023505,1.4343480582895154,-1.1902037079423735
1658789601281419,-0.3967345693140487,1.4343480582895154,-1.5564202334630863
1658789601297419,1.1902037079423735,1.3122758831159445,-0.9460593575952316
1658789601313419,0.03051804379333589,0.8850232700083325,-0.03051804379333589
1658789601329419,-0.7019150072480898,0.8850232700083325,0.15259021896690683
1658789601345419,0.09155413138023505,1.3733119707026162,-0.33569848172737693
1658789601361418,0.09155413138023505,1.1902037079423735,-1.3733119707026162
1658789601377418,1.0681315327688026,1.1291676203554744,-1.4953841458761872
1658789601393418,0.09155413138023505,0.9460593575952316,-1.1291676203554744
1658789601409418,0.15259021896690683,0.8850232700083325,-0.8239871824216607
1658789601425418,0.8850232700083325,1.1291676203554744,-1.0070954451819034
1658789601441417,1.5564202334630863,0.8850232700083325,-1.3733119707026162
1658789601457417,2.410925459678083,1.0070954451819034,-1.1902037079423735
1658789601473417,0.45777065690094787,1.4343480582895154,-1.739528496223329
1658789601489417,-1.3733119707026162,1.4343480582895154,-3.3875028610666504
1658789601505416,-0.8850232700083325,1.3122758831159445,-3.0823224231326094
1658789601521416,0.8850232700083325,1.2512397955290453,-2.105745021744042
1658789601537416,1.6174563210497581,1.1902037079423735,-1.4343480582895154
1658789601553416,0.213626306553806,0.7019150072480898,-1.4953841458761872
1658789601569397,-0.45777065690094787,0.5798428320745188,-1.983672846570471
1658789601585396,1.1902037079423735,1.0681315327688026,-0.9460593575952316
1658789601601396,0.6408789196611906,1.1291676203554744,-0.2746623941404778
1658789601617396,0.45777065690094787,0.8239871824216607,-0.03051804379333589
1658789601633396,-0.45777065690094787,0.3967345693140487,-0.15259021896690683
1658789601649396,0.2746623941404778,0.3967345693140487,-0.213626306553806
1658789601665395,2.4719615472647547,1.1902037079423735,0.09155413138023505
1658789601681395,1.6174563210497581,1.1902037079423735,-0.15259021896690683
1658789601697395,0.213626306553806,0.8850232700083325,-0.15259021896690683
1658789601713395,0.7629510948347615,0.7629510948347615,0.09155413138023505
1658789601729395,2.7161058976118966,1.1291676203554744,0.213626306553806
1658789601745394,2.9602502479590385,1.4343480582895154,0.15259021896690683
1658789601761394,-0.03051804379333589,1.1902037079423735,-0.33569848172737693
1658789601777394,-2.9602502479590385,0.7629510948347615,-1.1291676203554744
1658789601793394,-1.8005645838102282,0.5798428320745188,-1.8005645838102282
1658789601809394,-0.03051804379333589,0.9460593575952316,-1.8616006713969
1658789601825393,0.5188067444876197,0.5188067444876197,-2.4719615472647547
1658789601841393,1.3733119707026162,0.3967345693140487,-2.288853284504512
1658789601857393,1.2512397955290453,0.45777065690094787,-1.3733119707026162
1658789601873393,1.0070954451819034,0.7019150072480898,-1.1902037079423735
1658789601889404,-0.3967345693140487,0.5188067444876197,-1.5564202334630863
1658789601905404,-1.1902037079423735,-0.09155413138023505,-1.9226367589837992
1658789601921404,0.7629510948347615,0.213626306553806,-1.5564202334630863
1658789601937403,0.2746623941404778,0.33569848172737693,-2.227817196917613
1658789601953403,0.3967345693140487,0.45777065690094787,-2.7771419851987957
1658789601969403,0.7019150072480898,1.0070954451819034,-1.9226367589837992
1658789601985403,1.5564202334630863,0.5798428320745188,-1.5564202334630863
1658789602001402,1.0681315327688026,0.45777065690094787,-0.8239871824216607
1658789602017402,-0.5798428320745188,0.15259021896690683,-0.45777065690094787
1658789602033402,-0.213626306553806,0.213626306553806,-0.9460593575952316
1658789602049402,1.5564202334630863,0.5798428320745188,-0.8239871824216607
1658789602065402,1.9226367589837992,1.0070954451819034,-0.7019150072480898
1658789602081401,-0.15259021896690683,0.8850232700083325,-1.2512397955290453
1658789602097401,0.09155413138023505,0.45777065690094787,-1.739528496223329
1658789602113401,1.1902037079423735,0.5188067444876197,-1.4343480582895154
1658789602129401,2.166781109330941,0.213626306553806,-0.7629510948347615
1658789602145401,2.105745021744042,0.09155413138023505,-0.3967345693140487
1658789602161400,0.33569848172737693,-0.15259021896690683,-0.03051804379333589
1658789602177400,0.03051804379333589,0.03051804379333589,0.15259021896690683
1658789602193400,0.03051804379333589,0.2746623941404778,-0.09155413138023505
1658789602209381,-0.5188067444876197,0.2746623941404778,-0.45777065690094787
1658789602225381,1.0070954451819034,0.09155413138023505,-1.3733119707026162
1658789602241380,1.4953841458761872,0.09155413138023505,-1.4953841458761872
1658789602257380,0.33569848172737693,0.213626306553806,-1.1291676203554744
1658789602273380,0.213626306553806,0.5188067444876197,-0.8239871824216607
1658789602289380,2.8381780727854675,0.8239871824216607,-0.5798428320745188
1658789602305379,2.655069810025225,0.213626306553806,-0.7019150072480898
1658789602321379,0.9460593575952316,0.03051804379333589,-1.3733119707026162
1658789602337379,-1.3733119707026162,0.6408789196611906,-1.4343480582895154
1658789602353379,-1.3733119707026162,0.45777065690094787,-1.8005645838102282
1658789602369379,1.0681315327688026,0.5188067444876197,-1.5564202334630863
1658789602385378,1.1291676203554744,0.5188067444876197,-1.1902037079423735
1658789602401378,-0.09155413138023505,0.45777065690094787,-1.6174563210497581
1658789602417378,0.7629510948347615,0.33569848172737693,-1.983672846570471
1658789602433378,0.5798428320745188,0.33569848172737693,-1.1902037079423735
1658789602449378,0.03051804379333589,0.7019150072480898,-0.9460593575952316
1658789602465377,0.09155413138023505,1.0681315327688026,-1.3733119707026162
1658789602481377,0.213626306553806,1.5564202334630863,-1.3733119707026162
1658789602497377,0.9460593575952316,1.739528496223329,-1.8616006713969
1658789602513377,-0.03051804379333589,1.4953841458761872,-1.0070954451819034
1658789602529388,-0.6408789196611906,1.3122758831159445,-0.7019150072480898
1658789602545388,0.7019150072480898,1.4343480582895154,-1.0681315327688026
1658789602561388,1.1291676203554744,1.5564202334630863,0.15259021896690683
1658789602577387,1.0681315327688026,0.5798428320745188,0.15259021896690683
1658789602593387,2.532997634851654,0.45777065690094787,0.9460593575952316
1658789602609387,1.6174563210497581,0.5188067444876197,2.105745021744042
1658789602625387,0.7019150072480898,0.5798428320745188,1.983672846570471
1658789602641387,1.1902037079423735,1.0681315327688026,1.9226367589837992
1658789602657386,1.3122758831159445,1.1291676203554744,2.04470893415737
1658789602673386,-0.8850232700083325,1.6174563210497581,2.7161058976118966
1658789602689386,-2.166781109330941,1.3733119707026162,2.410925459678083
1658789602705386,0.3967345693140487,1.8616006713969,2.8992141603723667
1658789602721386,0.45777065690094787,1.6784924086366573,3.2654306858930795
1658789602737385,-0.5798428320745188,0.8239871824216607,3.814755474174035
1658789602753385,-2.166781109330941,1.2512397955290453,5.2185854886702145
1658789602769385,-2.7161058976118966,1.3122758831159445,4.730296787975931
1658789602785385,0.45777065690094787,1.1291676203554744,4.180971999694748
1658789602801385,2.4719615472647547,0.45777065690094787,5.0354772259097444
1658789602817384,2.166781109330941,-0.5188067444876197,5.3406576638437855
1658789602833384,3.3264667734797513,-0.2746623941404778,6.195162890058782
1658789602849395,1.983672846570471,0.03051804379333589,5.76791027695117
1658789602865395,-0.7629510948347615,0.213626306553806,3.6316472114137923
1658789602881395,-4.852368963149502,-0.03051804379333589,1.983672846570471
1658789602897395,-5.706874189364498,-0.45777065690094787,0.7019150072480898
1658789602913395,-1.739528496223329,0.5188067444876197,-0.45777065690094787
1658789602929394,-1.5564202334630863,1.3733119707026162,-2.532997634851654
1658789602945394,-0.7629510948347615,1.4343480582895154,-3.936827649347606
1658789602961394,2.410925459678083,1.4953841458761872,-4.364080262455218
1658789602977394,3.0823224231326094,1.5564202334630863,-3.997863736934505
1658789602993394,1.5564202334630863,1.3733119707026162,-3.875791561760934
1658789603009393,0.33569848172737693,0.8239871824216607,-4.242008087281647
1658789603025393,1.1902037079423735,0.8850232700083325,-4.60822461280236
1658789603041393,0.7019150072480898,1.1291676203554744,-4.852368963149502
1658789603057393,-0.9460593575952316,1.5564202334630863,-4.547188525215461
1658789603073392,-0.5798428320745188,2.288853284504512,-3.936827649347606
1658789603089392,1.3733119707026162,2.655069810025225,-3.6316472114137923
1658789603105392,1.8616006713969,2.4719615472647547,-4.119935912108076
1658789603121392,0.09155413138023505,2.105745021744042,-3.7537193865873633
1658789603137392,1.3733119707026162,1.9226367589837992,-1.739528496223329
1658789603153391,3.7537193865873633,1.8005645838102282,0.7629510948347615
1658789603169372,3.570611123826893,1.0070954451819034,2.4719615472647547
1658789603185372,0.7629510948347615,0.5798428320745188,3.936827649347606
1658789603201372,-0.7629510948347615,0.8850232700083325,5.3406576638437855
1658789603217372,-3.0823224231326094,1.4343480582895154,5.706874189364498
1658789603233371,-3.814755474174035,1.983672846570471,6.012054627298312
1658789603249371,-4.364080262455218,2.5940337224383256,6.500343327992596
1658789603265371,-2.532997634851654,2.04470893415737,6.927595941100208
1658789603281371,0.5798428320745188,2.532997634851654,9.002822919050914
1658789603297371,-1.1902037079423735,2.8992141603723667,9.979400320439481
1658789603313370,-5.523765926604028,3.4485389486533222,9.918364232852582
1658789603329370,-8.819714656290444,3.692683299000464,9.67421988250544
1658789603345370,-6.683451590753066,4.791332875562603,11.261158159761862
1658789603361370,-4.60822461280236,6.195162890058782,13.824673838406852
1658789603377370,-5.706874189364498,5.3406576638437855,15.350576028076603
1658789603393369,-4.730296787975931,3.875791561760934,18.036163881895163
1658789603409369,-4.486152437628789,2.4719615472647547,21.942473487449433
1658789603425369,-5.2185854886702145,1.6174563210497581,24.933241779201808
1658789603441369,-4.42511635004189,1.739528496223329,27.008468757152514
1658789603457368,-2.7161058976118966,2.04470893415737,28.107118333714652
1658789603473368,-3.3264667734797513,2.655069810025225,28.778515297169406
1658789603489380,-5.523765926604028,3.570611123826893,29.51094834821083
1658789603505379,-8.819714656290444,4.547188525215461,29.694056610971074
1658789603521379,-9.613183794918768,5.2185854886702145,28.778515297169406
1658789603537379,-8.148317692835917,6.317235065232353,27.86297398336751
1658789603553379,-8.819714656290444,7.598992904554734,28.351262684061794
1658789603569378,-10.589761196307336,9.491111619745197,28.96162355992965
1658789603585378,-12.909132524605184,10.528725108720437,28.534370946822264
1658789603601378,-12.970168612191856,10.589761196307336,28.839551384756078
1658789603617378,-7.11070420386045,10.833905546654478,29.755092698557974
1658789603633378,-1.4343480582895154,10.955977721828049,31.95239185168225
1658789603649377,-2.227817196917613,10.589761196307336,34.76005188067438
1658789603665377,-3.936827649347606,9.308003356984727,35.85870145723652
1658789603681377,-4.486152437628789,8.575570305943302,37.07942320897223
1658789603697377,-4.791332875562603,8.148317692835917,39.154650186922936
1658789603713377,-5.157549401083315,8.941786831464015,40.74158846417936
1658789603729376,-6.683451590753066,9.124895094224485,40.253299763485074
1658789603745376,-11.01701380941472,9.796292057679011,40.314335851071746
1658789603761376,-16.2050812542916,10.528725108720437,40.375371938658645
1658789603777376,-18.70756084534969,10.101472495613052,39.82604715037746
1658789603793376,-14.068818188753994,9.85732814526591,40.55848020141889
1658789603809356,-10.040436408026153,9.979400320439481,42.99992370489031
1658789603825356,-11.20012207217519,9.73525597009234,44.64789806973363
1658789603841356,-13.76363775082018,9.67421988250544,45.197222858014584
1658789603857356,-15.045395590142562,9.55214770733187,45.92965590905601
1658789603873355,-12.23773556115043,8.819714656290444,47.02830548561815
1658789603889355,-9.796292057679011,8.941786831464015,47.45555809872576
1658789603905355,-13.885709925993751,9.185931181811156,47.02830548561815
1658789603921355,-20.782787823300396,9.246967269398056,46.723125047684334
1658789603937355,-20.660715648126825,8.941786831464015,46.540016784923864
1658789603953354,-13.58052948805971,8.026245517662346,45.25825894560148
1658789603969354,-6.378271152819025,9.55214770733187,45.441367208361726
1658789603985354,-6.8665598535133086,10.223544670786623,44.95307850766744
1658789604001354,-6.134126802471883,11.139085984588291,43.976501106278874
1658789604017354,-2.8992141603723667,9.918364232852582,44.64789806973363
1658789604033353,3.1433585107195086,8.45349813076973,47.57763027389933
1658789604049353,3.0212863355459376,7.660028992141633,50.20218204013099
1658789604065353,-2.105745021744042,7.598992904554734,52.3384451056686
1658789604081353,-4.791332875562603,7.843137254901876,53.62020294499098
1658789604097353,-4.852368963149502,8.880750743877343,54.169527733271934
1658789604113352,-10.284580758373295,10.833905546654478,54.4747081712062
1658789604129364,-16.937514305333025,11.810482948043045,54.23056382085906
1658789604145363,-16.754406042572555,11.261158159761862,55.2681773098343
1658789604161363,-8.880750743877343,11.871519035629717,56.67200732433048
1658789604177363,-7.4158846417944915,11.749446860456146,56.30579079880954
1658789604193363,-8.819714656290444,11.383230334935433,55.634393835354786
1658789604209363,-4.547188525215461,10.955977721828049,56.91615167467762
1658789604225362,-0.7629510948347615,11.07804989700162,60.02899214160334
1658789604241362,-5.828946364538069,11.07804989700162,61.06660563057903
1658789604257362,-11.932555123216616,9.369039444571627,60.27313649195048
1658789604273362,-7.660028992141633,8.148317692835917,62.0431830319676
1658789604289362,-7.049668116273779,10.284580758373295,64.85084306095996
1658789604305361,-14.435034714274707,11.688410772869474,63.44701304646378
1658789604321361,-22.79697871366443,13.214312962538997,61.67696650644666
1658789604337361,-20.599679560540153,12.359807736324,62.348363469901415
1658789604353361,-14.007782101167322,10.772869459067579,64.36255436026568
1658789604369361,-18.70756084534969,10.650797283894008,64.54566262302615
1658789604385360,-26.459143968871558,9.246967269398056,62.77561608300948
1658789604401360,-22.980086976424673,8.270389868009488,62.0431830319676
1658789604417360,-12.664988174258042,8.880750743877343,64.11841000991853
1658789604433360,-11.627374685282575,9.85732814526591,65.03395132372043
1658789604449340,-19.256885633630873,9.124895094224485,61.982146944380474
1658789604465340,-20.477607385366582,7.049668116273779,58.93034256504143
1658789604481340,-19.1348134584573,6.378271152819025,59.60173952849618
1658789604497340,-19.562066071564686,7.660028992141633,60.82246128023189
1658789604513340,-18.280308232242305,8.575570305943302,61.24971389333905
1658789604529339,-15.533684290836845,8.819714656290444,59.1134508278019
1658789604545339,-14.190890363927565,7.904173342488775,55.573357747768114
1658789604561339,-16.998550392919697,7.782101167315204,53.80331120775145
1658789604577339,-25.116350041962278,6.439307240405924,52.82673380636288
1658789604593339,-24.750133516441565,6.805523765926637,52.88776989394955
1658789604609338,-18.341344319828977,7.904173342488775,51.850156404974314
1658789604625338,-12.909132524605184,8.45349813076973,48.85938811322194
1658789604641338,-21.39314869916825,8.880750743877343,47.39452201113886
1658789604657338,-25.726710917830133,7.843137254901876,46.35690852216362
1658789604673338,-19.01274128328373,8.33142595559616,46.05172808422958
1658789604689337,-7.904173342488775,8.148317692835917,43.8544289311053
1658789604705337,-3.936827649347606,8.026245517662346,41.90127412832817
1658789604721337,-7.904173342488775,8.087281605249018,40.314335851071746
1658789604737337,-15.228503852903032,7.17174029144735,38.910505836575794
1658789604753337,-8.087281605249018,8.697642481116873,40.43640802624532
1658789604769348,2.655069810025225,10.650797283894008,43.18303196765078
1658789604785348,3.7537193865873633,11.444266422522333,42.32852674143578
1658789604801347,-5.584802014190927,9.67421988250544,37.628747997253186
1658789604817347,-19.378957808804444,8.941786831464015,34.63797970550081
1658789604833347,-18.89066910811016,8.819714656290444,34.14969100480653
1658789604849347,-7.17174029144735,9.185931181811156,34.821087968261054
1658789604865347,-6.927595941100208,9.55214770733187,34.2717631799801
1658789604881346,-11.749446860456146,9.369039444571627,32.74586099031035
1658789604897346,-9.73525597009234,9.063859006637585,33.905546654459386
1658789604913346,0.5188067444876197,9.308003356984727,35.61455710688938
1658789604929346,3.2043945983061803,10.101472495613052,36.22491798275723
1658789604945346,-4.547188525215461,8.51453421835663,34.33279926756677
1658789604961345,-11.139085984588291,4.9134050507361735,32.562752727550105
1658789604977345,-9.613183794918768,4.364080262455218,32.501716639963206
1658789604993345,-7.782101167315204,6.134126802471883,32.07446402685582
1658789605009345,-7.904173342488775,8.697642481116873,30.243381399252257
1658789605025344,-7.660028992141633,8.575570305943302,26.58121614404513
1658789605041344,-6.439307240405924,6.927595941100208,23.95666437781324
1658789605057344,-5.706874189364498,6.317235065232353,23.041123064011572
1658789605073344,-4.180971999694748,8.51453421835663,25.116350041962278
1658789605089325,-1.1902037079423735,11.627374685282575,28.534370946822264
1658789605105324,2.7161058976118966,10.528725108720437,29.755092698557974
1658789605121324,1.9226367589837992,8.270389868009488,29.51094834821083
1658789605137324,-5.76791027695117,7.660028992141633,28.656443121995835
1658789605153324,-12.909132524605184,4.42511635004189,26.276035706111088
1658789605169324,-13.824673838406852,3.814755474174035,26.764324406805372
1658789605185323,-7.476920729381163,7.537956816968062,29.633020523384403
1658789605201323,-5.584802014190927,9.124895094224485,29.51094834821083
1658789605217323,-1.3122758831159445,7.965209430075447,27.61882963302037
1658789605233323,0.45777065690094787,7.049668116273779,27.069504844739413
1658789605249323,-3.692683299000464,6.500343327992596,28.290226596475122
1658789605265322,-3.814755474174035,6.744487678339738,30.975814450293683
1658789605281322,2.410925459678083,10.223544670786623,33.53933012893867
1658789605297322,2.532997634851654,10.345616845960194,30.975814450293683
1658789605313322,0.3967345693140487,7.2938124666209205,25.787747005416804
1658789605329321,-4.42511635004189,6.561379415579495,23.95666437781324
1658789605345321,-6.378271152819025,8.209353780422589,25.909819180590375
1658789605361321,-2.8992141603723667,12.054627298390187,29.20576791027679
1658789605377321,6.256198977645454,12.970168612191856,30.54856183718607
1658789605393321,6.073090714885211,11.383230334935433,30.975814450293683
1658789605409332,-1.0681315327688026,8.880750743877343,30.54856183718607
1658789605425332,-6.134126802471883,9.002822919050914,30.853742275120112
1658789605441331,-7.17174029144735,9.124895094224485,28.717479209582507
1658789605457331,-4.547188525215461,8.270389868009488,25.665674830243233
1658789605473331,-1.4343480582895154,7.354848554207592,23.95666437781324
1658789605489331,-2.410925459678083,6.439307240405924,24.567025253681095
1658789605505331,-0.9460593575952316,7.049668116273779,26.337071793697987
1658789605521330,8.087281605249018,7.904173342488775,28.839551384756078
1658789605537330,11.444266422522333,10.467689021133765,30.60959792477297
1658789605553330,8.087281605249018,10.711833371480907,27.679865720607268
1658789605569330,2.288853284504512,7.904173342488775,22.919050888838
1658789605585330,1.1291676203554744,6.378271152819025,21.026932173647538
1658789605601329,0.15259021896690683,6.744487678339738,21.45418478675515
1658789605617329,-1.3122758831159445,8.148317692835917,22.369726100556818
1658789605633329,-4.852368963149502,9.308003356984727,23.102159151598244
1658789605649329,-4.364080262455218,7.660028992141633,23.041123064011572
1658789605665329,3.3875028610666504,6.134126802471883,22.125581750209676
1658789605681328,8.880750743877343,6.805523765926637,22.125581750209676
1658789605697328,-0.7019150072480898,8.819714656290444,20.416571297779683
1658789605713328,-9.124895094224485,7.232776379034021,15.899900816357558
1658789605729309,-10.040436408026153,5.401693751430457,12.542915999084471
1658789605745309,-8.148317692835917,5.2185854886702145,9.67421988250544
1658789605761308,-8.026245517662346,5.2185854886702145,8.392462043183059
1658789605777308,-4.730296787975931,5.2185854886702145,7.17174029144735
1658789605793308,0.15259021896690683,6.073090714885211,4.974441138323073
1658789605809308,6.378271152819025,5.95101853971164,1.3733119707026162
1658789605825307,8.33142595559616,4.058899824521177,-1.983672846570471
1658789605841307,4.852368963149502,1.6174563210497581,-4.730296787975931
1658789605857307,3.814755474174035,-0.03051804379333589,-6.744487678339738
1658789605873307,8.392462043183059,-0.33569848172737693,-7.843137254901876
1658789605889307,10.955977721828049,-2.3498893720911838,-9.73525597009234
1658789605905306,7.721065079728305,-4.547188525215461,-12.481879911497572
1658789605921306,3.7537193865873633,-6.256198977645454,-14.862287327382319
1658789605937306,2.166781109330941,-5.889982452124741,-15.838864728770886
1658789605953306,0.8239871824216607,-5.76791027695117,-16.754406042572555
1658789605969306,1.9226367589837992,-7.660028992141633,-18.341344319828977
1658789605985305,4.42511635004189,-8.6366063935302,-19.80621042191183
1658789606001305,3.936827649347606,-8.941786831464015,-22.125581750209676
1658789606017305,7.17174029144735,-8.45349813076973,-23.102159151598244
1658789606033305,10.711833371480907,-7.843137254901876,-24.07873655298681
1658789606049316,9.613183794918768,-9.613183794918768,-26.58121614404513
1658789606065316,7.4158846417944915,-10.040436408026153,-28.412298771648693
1658789606081316,6.317235065232353,-9.308003356984727,-28.778515297169406
1658789606097315,10.772869459067579,-7.843137254901876,-27.98504615854108
1658789606113315,15.838864728770886,-7.660028992141633,-25.848783093003703
1658789606129315,13.092240787365427,-8.270389868009488,-24.26184481574728
1658789606145315,8.148317692835917,-8.941786831464015,-24.13977264057371
1658789606161315,8.33142595559616,-10.528725108720437,-24.444953078507524
1658789606177314,9.308003356984727,-11.932555123216616,-24.26184481574728
1658789606193314,6.500343327992596,-12.848096437018285,-24.444953078507524
1658789606209314,1.3733119707026162,-12.848096437018285,-25.787747005416804
1658789606225314,1.1902037079423735,-12.848096437018285,-27.374685282673227
1658789606241314,9.85732814526591,-11.505302510109004,-27.679865720607268
1658789606257313,16.388189517051842,-10.040436408026153,-26.886396581978943
1658789606273313,17.36476691844041,-8.819714656290444,-26.6422522316318
1658789606289313,18.097199969481835,-7.782101167315204,-26.886396581978943
1658789606305313,17.79201953154802,-7.904173342488775,-27.374685282673227
1658789606321313,17.059586480506596,-9.002822919050914,-28.290226596475122
1658789606337312,14.190890363927565,-8.33142595559616,-27.61882963302037
1658789606353312,9.73525597009234,-7.049668116273779,-26.092927443350845
1658789606369293,5.401693751430457,-6.561379415579495,-25.60463874265656
1658789606385293,8.209353780422589,-5.95101853971164,-24.505989166094423
1658789606401292,10.406652933546866,-6.012054627298312,-23.651483939879427
1658789606417292,8.026245517662346,-6.9886320286868795,-23.346303501945386
1658789606433292,5.401693751430457,-7.965209430075447,-22.79697871366443
1658789606449292,4.058899824521177,-7.17174029144735,-22.49179827573039
1658789606465292,3.5095750362402214,-6.622415503166167,-23.89562829022657
1658789606481291,7.660028992141633,-5.645838101777599,-24.689097428854666
1658789606497291,9.55214770733187,-4.60822461280236,-24.200808728160382
1658789606513291,9.185931181811156,-3.6316472114137923,-23.529411764705856
1658789606529291,7.782101167315204,-2.288853284504512,-22.73594262607753
1658789606545291,4.60822461280236,-2.5940337224383256,-23.163195239185143
1658789606561290,5.889982452124741,-2.7771419851987957,-23.83459220263967
1658789606577290,8.209353780422589,-3.0823224231326094,-23.590447852292527
1658789606593290,7.232776379034021,-2.227817196917613,-23.102159151598244
1658789606609290,5.279621576256886,-2.532997634851654,-24.200808728160382
1658789606625290,4.119935912108076,-3.2654306858930795,-25.36049439230942
1658789606641289,7.2938124666209205,-3.0823224231326094,-25.23842221713585
1658789606657289,10.040436408026153,-1.739528496223329,-23.7125200274661
1658789606673289,11.261158159761862,-1.1902037079423735,-23.529411764705856
1658789606689300,9.613183794918768,-2.166781109330941,-26.6422522316318
1658789606705300,8.51453421835663,-2.8381780727854675,-29.022659647516548
1658789606721300,10.772869459067579,-1.8616006713969,-28.412298771648693
1658789606737300,11.01701380941472,-1.3122758831159445,-27.61882963302037
1658789606753299,10.528725108720437,-1.0070954451819034,-27.557793545433697
1658789606769299,9.796292057679011,-0.45777065690094787,-29.14473182269012
1658789606785299,12.23773556115043,-0.8239871824216607,-29.694056610971074
1658789606801299,17.60891126878755,-0.45777065690094787,-26.764324406805372
1658789606817299,14.557106889448278,-0.03051804379333589,-24.01770046540014
1658789606833298,8.33142595559616,-1.0681315327688026,-24.505989166094423
1658789606849298,5.0354772259097444,-3.3875028610666504,-24.872205691615136
1658789606865298,4.303044174868319,-5.0354772259097444,-23.468375677118956
1658789606881298,3.7537193865873633,-5.157549401083315,-20.965896086060866
1658789606897297,3.0823224231326094,-5.401693751430457,-20.294499122606112
1658789606913297,3.2043945983061803,-6.073090714885211,-22.552834363317288
1658789606929297,7.4158846417944915,-6.012054627298312,-24.505989166094423
1658789606945297,10.284580758373295,-5.645838101777599,-23.7125200274661
1658789606961297,14.862287327382319,-4.669260700389032,-20.965896086060866
1658789606977296,16.1440451667047,-4.303044174868319,-19.439993896391115
1658789606993296,12.054627298390187,-5.584802014190927,-21.087968261234437
1658789607009277,7.843137254901876,-7.965209430075447,-23.89562829022657
1658789607025277,8.087281605249018,-8.45349813076973,-23.7125200274661
1658789607041277,11.261158159761862,-7.354848554207592,-21.39314869916825
1658789607057276,11.932555123216616,-7.049668116273779,-20.599679560540153
1658789607073276,7.232776379034021,-7.843137254901876,-23.285267414358714
1658789607089276,5.279621576256886,-8.880750743877343,-25.60463874265656
1658789607105276,7.660028992141633,-9.430075532158298,-24.872205691615136
1658789607121276,11.810482948043045,-8.6366063935302,-22.73594262607753
1658789607137275,8.758678568703772,-8.392462043183059,-22.980086976424673
1658789607153275,3.0823224231326094,-9.979400320439481,-26.764324406805372
1658789607169275,3.0212863355459376,-10.955977721828049,-29.08369573510322
1658789607185275,7.049668116273779,-9.979400320439481,-27.069504844739413
1658789607201274,9.369039444571627,-8.148317692835917,-25.29945830472252
1658789607217274,7.965209430075447,-8.392462043183059,-27.252613107499656
1658789607233274,6.256198977645454,-8.880750743877343,-30.4875257495994
1658789607249274,8.45349813076973,-10.528725108720437,-30.73167009994654
1658789607265274,11.505302510109004,-10.101472495613052,-28.717479209582507
1658789607281273,13.397421225299468,-9.67421988250544,-28.290226596475122
1658789607297273,10.650797283894008,-10.955977721828049,-30.121309224078686
1658789607313273,8.6366063935302,-11.261158159761862,-31.89135576409558
1658789607329284,7.354848554207592,-9.979400320439481,-32.44068055237676
1658789607345284,11.139085984588291,-8.758678568703772,-32.6848249027239
1658789607361284,12.4208438239109,-8.026245517662346,-33.35622186617843
1658789607377284,9.124895094224485,-9.124895094224485,-36.16388189517056
1658789607393283,9.491111619745197,-10.040436408026153,-38.42221713588174
1658789607409283,12.909132524605184,-9.185931181811156,-36.957351033798886
1658789607425283,12.909132524605184,-7.598992904554734,-36.4690623331046
1658789607441283,12.481879911497572,-8.270389868009488,-39.093614099336264
1658789607457283,15.411612115663274,-9.491111619745197,-39.520866712443876
1658789607473282,15.960936903944457,-9.185931181811156,-37.62874799725341
1658789607489282,11.871519035629717,-7.598992904554734,-38.056000610361025
1658789607505282,10.101472495613052,-8.209353780422589,-40.92469672693983
1658789607521282,12.481879911497572,-9.796292057679011,-40.92469672693983
1658789607537282,16.510261692225413,-9.430075532158298,-39.093614099336264
1658789607553281,17.42580300602731,-9.185931181811156,-38.30014496070817
1658789607569281,13.519493400473038,-10.284580758373295,-39.94811932555126
1658789607585281,10.711833371480907,-11.139085984588291,-41.779201953154825
1658789607601281,12.359807736324,-11.01701380941472,-41.1078049897003
1658789607617281,16.26611734187827,-9.063859006637585,-37.872892347600555
1658789607633280,15.594720378423744,-8.45349813076973,-38.056000610361025
1658789607649292,9.613183794918768,-9.85732814526591,-41.35194934004744
1658789607665291,6.744487678339738,-10.711833371480907,-43.48821240558482
1658789607681291,10.711833371480907,-9.246967269398056,-41.840238040741724
1658789607697291,13.64156557564661,-6.683451590753066,-38.97154192416269
1658789607713291,9.430075532158298,-7.2938124666209205,-39.94811932555126
1658789607729291,6.561379415579495,-9.002822919050914,-42.14541847867554
1658789607745290,12.603952086671143,-9.124895094224485,-41.22987716487387
1658789607761290,18.097199969481835,-7.2938124666209205,-37.20149538414603
1658789607777290,15.045395590142562,-8.33142595559616,-35.67559319447628
1658789607793290,10.162508583199724,-9.918364232852582,-36.713206683451745
1658789607809290,11.139085984588291,-10.589761196307336,-37.933928435187454
1658789607825289,13.64156557564661,-10.589761196307336,-36.89631494621199
1658789607841289,12.542915999084471,-9.67421988250544,-33.051041428244616
1658789607857289,7.904173342488775,-9.002822919050914,-32.6848249027239
1658789607873289,6.256198977645454,-9.430075532158298,-36.16388189517056
1658789607889289,8.697642481116873,-8.941786831464015,-36.774242771038416
1658789607905288,11.444266422522333,-9.063859006637585,-35.187304493781994
1658789607921288,13.397421225299468,-8.758678568703772,-31.952391851682478
1658789607937288,10.89494163424115,-8.575570305943302,-29.877164873731545
1658789607953288,7.782101167315204,-9.55214770733187,-30.975814450293683
1658789607969268,10.345616845960194,-10.162508583199724,-30.36545357442583
1658789607985268,10.528725108720437,-8.941786831464015,-27.252613107499656
1658789608001268,9.185931181811156,-8.51453421835663,-25.05531395437538
1658789608017268,7.049668116273779,-9.246967269398056,-24.628061341267994
1658789608033268,8.45349813076973,-10.467689021133765,-24.811169604028237
1658789608049267,9.185931181811156,-10.528725108720437,-22.247653925383247
1658789608065267,8.880750743877343,-10.406652933546866,-19.195849546043974
1658789608081267,6.256198977645454,-10.650797283894008,-18.341344319828977
1658789608097267,6.012054627298312,-11.932555123216616,-21.087968261234437
1658789608113267,8.209353780422589,-11.444266422522333,-21.39314869916825
1658789608129266,9.73525597009234,-9.796292057679011,-18.58548867017612
1658789608145266,8.51453421835663,-8.697642481116873,-16.937514305333025
1658789608161266,4.730296787975931,-9.430075532158298,-18.341344319828977
1658789608177266,4.119935912108076,-10.223544670786623,-18.76859693293659
1658789608193266,6.012054627298312,-10.040436408026153,-16.510261692225413
1658789608209265,4.42511635004189,-10.589761196307336,-13.031204699778755
1658789608225265,0.33569848172737693,-10.650797283894008,-12.664988174258042
1658789608241265,-3.0212863355459376,-11.627374685282575,-15.533684290836845
1658789608257265,2.410925459678083,-12.23773556115043,-15.777828641183987
1658789608273265,8.148317692835917,-10.772869459067579,-13.275349050125897
1658789608289276,6.805523765926637,-9.491111619745197,-11.993591210803288
1658789608305276,3.2043945983061803,-10.040436408026153,-13.76363775082018
1658789608321275,3.936827649347606,-9.918364232852582,-15.228503852903032
1658789608337275,6.622415503166167,-9.67421988250544,-15.167467765316132
1658789608353275,6.805523765926637,-8.148317692835917,-13.824673838406852
1658789608369275,1.8005645838102282,-6.683451590753066,-14.80125123979542
1658789608385275,0.8850232700083325,-6.195162890058782,-17.853055619134693
1658789608401274,3.3264667734797513,-6.378271152819025,-17.48683909361398
1658789608417274,6.805523765926637,-6.8665598535133086,-14.98435950255589
1658789608433274,7.843137254901876,-7.660028992141633,-12.848096437018285
1658789608449274,5.76791027695117,-8.392462043183059,-12.787060349431613
1658789608465273,1.6784924086366573,-8.392462043183059,-12.787060349431613
1658789608481273,1.4953841458761872,-7.721065079728305,-13.824673838406852
1658789608497273,3.875791561760934,-7.598992904554734,-15.228503852903032
1658789608513273,5.95101853971164,-7.354848554207592,-15.411612115663274
1658789608529273,4.242008087281647,-4.486152437628789,-15.899900816357558
1658789608545272,3.0823224231326094,-2.8381780727854675,-19.9282825970854
1658789608561272,3.0823224231326094,-1.8616006713969,-21.942473487449433
1658789608577272,7.11070420386045,-1.6174563210497581,-22.186617837796575
1658789608593272,9.55214770733187,-1.739528496223329,-20.843823910887295
1658789608609253,8.697642481116873,-1.739528496223329,-20.599679560540153
1658789608625252,3.997863736934505,-2.3498893720911838,-20.721751735713724
1658789608641252,4.180971999694748,-3.1433585107195086,-19.9282825970854
1658789608657252,8.758678568703772,-3.814755474174035,-18.463416495002548
1658789608673252,9.369039444571627,-2.532997634851654,-17.60891126878755
1658789608689252,2.227817196917613,-2.655069810025225,-19.195849546043974
1658789608705251,-0.2746623941404778,-3.1433585107195086,-20.477607385366582
1658789608721251,4.547188525215461,-2.8381780727854675,-19.073777370870403
1658789608737251,7.843137254901876,-2.166781109330941,-17.181658655680167
1658789608753251,5.95101853971164,-2.7771419851987957,-18.219272144655406
1658789608769250,6.073090714885211,-3.4485389486533222,-20.11139085984587
1658789608785250,8.697642481116873,-3.875791561760934,-19.9282825970854
1658789608801250,10.345616845960194,-3.570611123826893,-19.684138246738257
1658789608817250,9.063859006637585,-3.570611123826893,-19.9893186846723
1658789608833250,8.087281605249018,-3.7537193865873633,-20.965896086060866
1658789608849249,8.148317692835917,-3.570611123826893,-21.45418478675515
1658789608865249,6.683451590753066,-3.814755474174035,-21.27107652399468
1658789608881249,7.4158846417944915,-3.692683299000464,-21.33211261158158
1658789608897249,7.17174029144735,-3.4485389486533222,-21.820401312275862
1658789608913249,4.119935912108076,-3.2654306858930795,-22.308690012970146
1658789608929260,2.3498893720911838,-3.570611123826893,-23.468375677118956
1658789608945260,6.317235065232353,-3.2654306858930795,-23.590447852292527
1658789608961259,8.51453421835663,-4.852368963149502,-23.407339589532285
1658789608977259,9.430075532158298,-5.706874189364498,-23.285267414358714
1658789608993259,8.880750743877343,-5.523765926604028,-22.61387045090396
1658789609009259,9.796292057679011,-4.730296787975931,-23.529411764705856
1658789609025259,11.07804989700162,-3.814755474174035,-24.933241779201808
1658789609041258,12.664988174258042,-4.242008087281647,-24.872205691615136
1658789609057258,14.98435950255589,-4.058899824521177,-23.7125200274661
1658789609073258,13.153276874952326,-3.692683299000464,-22.919050888838
1658789609089258,6.8665598535133086,-4.180971999694748,-23.7125200274661
1658789609105258,6.561379415579495,-4.60822461280236,-24.872205691615136
1658789609121257,10.89494163424115,-4.60822461280236,-23.590447852292527
1658789609137257,13.64156557564661,-4.242008087281647,-21.759365224688963
1658789609153257,10.650797283894008,-5.462729839017356,-21.51522087434182
1658789609169257,6.256198977645454,-6.378271152819025,-22.67490653849086
1658789609185257,6.439307240405924,-6.317235065232353,-22.308690012970146
1658789609201256,9.246967269398056,-5.3406576638437855,-21.637293049515392
1658789609217256,9.430075532158298,-5.3406576638437855,-22.064545662623004
1658789609233256,6.439307240405924,-5.096513313496644,-23.95666437781324
1658789609249237,0.8850232700083325,-4.486152437628789,-24.200808728160382
1658789609265236,3.4485389486533222,-3.814755474174035,-24.567025253681095
1658789609281236,11.383230334935433,-4.180971999694748,-23.529411764705856
1658789609297236,14.068818188753994,-4.42511635004189,-23.285267414358714
1658789609313236,10.711833371480907,-5.2185854886702145,-23.89562829022657
1658789609329236,4.180971999694748,-4.9134050507361735,-23.529411764705856
1658789609345235,3.3264667734797513,-5.279621576256886,-23.89562829022657
1658789609361235,11.505302510109004,-3.814755474174035,-23.285267414358714
1658789609377235,15.960936903944457,-2.7771419851987957,-21.881437399862534
1658789609393235,10.89494163424115,-3.0212863355459376,-23.529411764705856
1658789609409235,3.875791561760934,-2.8381780727854675,-25.17738612954895
1658789609425234,5.828946364538069,-2.105745021744042,-24.383916990920852
1658789609441234,15.594720378423744,-0.8239871824216607,-21.942473487449433
1658789609457234,16.1440451667047,0.33569848172737693,-19.867246509498727
1658789609473234,5.401693751430457,-0.8239871824216607,-20.23346303501944
1658789609489234,1.5564202334630863,-1.3733119707026162,-19.9893186846723
1658789609505233,4.242008087281647,-0.3967345693140487,-17.853055619134693
1658789609521233,6.012054627298312,1.739528496223329,-16.2050812542916
1658789609537233,0.8239871824216607,3.5095750362402214,-14.496070801861606
1658789609553233,1.0681315327688026,4.547188525215461,-14.068818188753994
1658789609569275,7.2938124666209205,4.730296787975931,-11.566338597695903
1658789609585274,9.124895094224485,3.936827649347606,-7.2938124666209205
1658789609601274,5.584802014190927,3.814755474174035,-3.570611123826893
1658789609617274,0.7629510948347615,3.814755474174035,-0.15259021896690683
1658789609633274,-0.03051804379333589,4.058899824521177,2.655069810025225
1658789609649273,3.936827649347606,4.486152437628789,6.073090714885211
1658789609665273,2.166781109330941,5.0354772259097444,10.833905546654478
1658789609681273,-7.721065079728305,5.279621576256886,13.885709925993751
1658789609697273,-16.26611734187827,4.9134050507361735,16.26611734187827
1658789609713273,-15.411612115663274,5.096513313496644,19.684138246738257
1658789609729272,-12.909132524605184,5.889982452124741,22.79697871366443
1658789609745272,-17.853055619134693,6.378271152819025,24.811169604028237
1658789609761272,-21.820401312275862,5.645838101777599,25.848783093003703
1658789609777272,-18.524452582589447,5.523765926604028,28.778515297169406
1658789609793272,-14.80125123979542,5.889982452124741,30.914778362706784
1658789609809271,-13.824673838406852,6.134126802471883,31.95239185168225
1658789609825271,-14.679179064621849,6.805523765926637,33.661402304112244
1658789609841271,-13.275349050125897,7.4158846417944915,34.63797970550081
1658789609857271,-11.810482948043045,7.843137254901876,36.591134508277946
1658789609873271,-11.627374685282575,6.927595941100208,38.42221713588151
1658789609889251,-14.007782101167322,7.476920729381163,39.76501106279079
1658789609905251,-16.693369954985883,8.087281605249018,40.74158846417936
1658789609921251,-17.181658655680167,8.575570305943302,41.16884107728674
1658789609937251,-13.885709925993751,8.819714656290444,42.938887617303635
1658789609953251,-11.139085984588291,8.819714656290444,45.13618677042791
1658789609969250,-12.970168612191856,8.941786831464015,46.23483634699005
1658789609985250,-17.36476691844041,9.002822919050914,45.74654764629577
1658789610001250,-16.754406042572555,9.124895094224485,45.380331120775054
1658789610017250,-10.528725108720437,10.345616845960194,48.004882887006715
1658789610033249,-10.162508583199724,12.176699473563758,49.591821164263365
1658789610049249,-16.02197299153113,11.749446860456146,48.31006332494053
1658789610065249,-18.036163881895163,11.20012207217519,48.371099412527656
1658789610081249,-12.481879911497572,12.4208438239109,50.446326390478134
1658789610097249,-9.73525597009234,13.153276874952326,52.15533684290813
1658789610113248,-15.716792553597315,12.542915999084471,51.850156404974314
1658789610129248,-20.965896086060866,11.810482948043045,50.32425421530479
1658789610145248,-17.60891126878755,12.664988174258042,50.75150682841195
1658789610161248,-12.4208438239109,13.336385137712568,52.094300755321456
1658789610177248,-11.07804989700162,13.336385137712568,52.52155336842907
1658789610193247,-16.815442130159454,13.397421225299468,51.23979552910623
1658789610209259,-18.341344319828977,13.519493400473038,50.20218204013099
1658789610225258,-13.76363775082018,14.618142977035177,50.08010986495765
1658789610241258,-9.55214770733187,16.08300907911803,49.408712901502895
1658789610257258,-15.411612115663274,15.960936903944457,48.79835202563481
1658789610273258,-20.294499122606112,14.862287327382319,48.187991149767186
1658789610289258,-14.80125123979542,14.740215152208748,49.10353246356908
1658789610305257,-8.758678568703772,16.1440451667047,50.507362478064806
1658789610321257,-12.4208438239109,15.655756466010416,50.01907377737052
1658789610337257,-20.477607385366582,13.031204699778755,48.67627985046147
1658789610353257,-19.9893186846723,12.542915999084471,48.92042420080861
1658789610369257,-14.496070801861606,13.275349050125897,49.53078507667624
1658789610385256,-12.176699473563758,13.519493400473038,49.65285725185004
1658789610401256,-15.228503852903032,12.4208438239109,49.77492942702338
1658789610417256,-14.80125123979542,10.284580758373295,49.89700160219718
1658789610433256,-12.4208438239109,12.176699473563758,51.36186770428003
1658789610449256,-14.007782101167322,13.58052948805971,49.042496375981955
1658789610465255,-14.373998626688035,13.64156557564661,43.67132066834506
1658789610481255,-14.557106889448278,14.373998626688035,41.16884107728674
1658789610497255,-16.1440451667047,15.960936903944457,40.9246967269396
1658789610513255,-17.730983443961122,16.632333867398984,41.596093690394355
1658789610529235,-14.679179064621849,16.1440451667047,41.535057602807456
1658789610545235,-10.528725108720437,14.557106889448278,43.30510414282435
1658789610561235,-11.139085984588291,13.275349050125897,43.976501106278874
1658789610577235,-21.026932173647538,11.993591210803288,42.57267109178292
1658789610593235,-28.595407034408936,9.55214770733187,40.192263675898175
1658789610609234,-19.623102159151586,8.026245517662346,40.9246967269396
1658789610625234,-4.791332875562603,9.67421988250544,44.281681544212915
1658789610641234,-4.974441138323073,11.688410772869474,44.46478980697316
1658789610657234,-15.10643167772946,10.284580758373295,40.1312275883115
1658789610673234,-19.1348134584573,8.941786831464015,36.10284580758366
1658789610689233,-12.970168612191856,10.223544670786623,35.85870145723652
1658789610705233,-11.932555123216616,13.031204699778755,37.44563973449294
1658789610721233,-14.435034714274707,13.702601663233281,35.91973754482319
1658789610737233,-16.937514305333025,11.688410772869474,33.600366216525344
1658789610753233,-12.298771648737329,9.796292057679011,33.722438391698915
1658789610769232,-5.706874189364498,9.796292057679011,36.163881895170334
1658789610785232,-9.55214770733187,10.955977721828049,38.0560006103608
1658789610801232,-16.2050812542916,8.697642481116873,35.73662928206295
1658789610817232,-12.359807736324,7.660028992141633,35.37041275654224
1658789610833232,-5.462729839017356,9.796292057679011,38.42221713588151
1658789610849243,-7.598992904554734,10.833905546654478,38.727397573815324
1658789610865243,-15.472648203250174,8.575570305943302,34.63797970550081
1658789610881242,-20.965896086060866,6.744487678339738,31.89135576409535
1658789610897242,-12.481879911497572,7.354848554207592,34.69901579308748
1658789610913242,-1.8616006713969,10.345616845960194,40.192263675898175
1658789610929242,-1.2512397955290453,9.002822919050914,40.497444113832216
1658789610945242,-6.744487678339738,5.95101853971164,37.93392843518723
1658789610961241,-13.64156557564661,5.523765926604028,35.91973754482319
1658789610977241,-15.411612115663274,6.134126802471883,32.80689707789725
1658789610993241,-11.322194247348762,6.9886320286868795,32.684824902723676
1658789611009241,-4.303044174868319,8.392462043183059,36.346990157930804
1658789611025241,-2.410925459678083,9.369039444571627,38.78843366140222
1658789611041240,-5.523765926604028,7.660028992141633,36.83527885862509
1658789611057240,-12.848096437018285,5.828946364538069,34.02761882963296
1658789611073240,-14.129854276340893,4.974441138323073,33.05104142824439
1658789611089240,-7.904173342488775,7.476920729381163,34.69901579308748
1658789611105239,-9.369039444571627,9.918364232852582,35.79766536964962
1658789611121239,-15.289539940489703,9.308003356984727,32.684824902723676
1658789611137239,-17.975127794308264,7.721065079728305,29.571984435797503
1658789611153239,-12.542915999084471,7.17174029144735,29.633020523384403
1658789611169250,-5.401693751430457,9.613183794918768,33.478294041351774
1658789611185250,-10.89494163424115,10.040436408026153,34.88212405584795
1658789611201250,-15.899900816357558,9.063859006637585,32.07446402685582
1658789611217249,-12.298771648737329,9.430075532158298,29.877164873731545
1658789611233249,-6.439307240405924,9.124895094224485,29.633020523384403
1658789611249249,-2.5940337224383256,9.85732814526591,31.586175326161538
1658789611265249,-5.3406576638437855,10.101472495613052,32.99000534065749
1658789611281249,-10.223544670786623,8.087281605249018,32.13550011444249
1658789611297248,-11.322194247348762,5.462729839017356,31.097886625467254
1658789611313248,-11.07804989700162,5.706874189364498,30.4264896620125
1658789611329248,-9.85732814526591,6.9886320286868795,29.633020523384403
1658789611345248,-9.124895094224485,8.209353780422589,29.14473182269012
1658789611361248,-8.697642481116873,7.598992904554734,26.947432669565842
1658789611377247,-6.073090714885211,7.2938124666209205,25.726710917830133
1658789611393247,-1.8616006713969,8.270389868009488,26.092927443350845
1658789611409247,-1.739528496223329,9.613183794918768,26.7032883192187
1658789611425247,-5.157549401083315,8.880750743877343,25.665674830243233
1658789611441247,-11.20012207217519,7.2938124666209205,22.67490653849086
1658789611457246,-12.481879911497572,7.17174029144735,20.782787823300396
1658789611473246,-8.575570305943302,8.148317692835917,21.69832913710229
1658789611489227,-5.0354772259097444,9.063859006637585,24.01770046540014
1658789611505227,-4.9134050507361735,8.087281605249018,24.13977264057371
1658789611521227,-5.401693751430457,6.622415503166167,23.041123064011572
1658789611537226,-7.598992904554734,5.706874189364498,22.125581750209676
1658789611553226,-8.33142595559616,5.706874189364498,21.39314869916825
1658789611569226,-4.119935912108076,7.537956816968062,19.867246509498727
1658789611585226,-1.4343480582895154,6.9886320286868795,19.439993896391115
1658789611601225,-1.8616006713969,6.561379415579495,18.646524757763018
1658789611617225,-2.288853284504512,7.843137254901876,18.158236057068734
1658789611633225,-0.5188067444876197,8.758678568703772,19.501029983978015
1658789611649225,-0.09155413138023505,8.087281605249018,19.867246509498727
1658789611665225,-1.2512397955290453,6.561379415579495,18.402380407415876
1658789611681224,-3.875791561760934,5.828946364538069,16.26611734187827
1658789611697224,-8.6366063935302,5.584802014190927,15.777828641183987
1658789611713224,-9.369039444571627,7.049668116273779,16.815442130159454
1658789611729224,-6.927595941100208,6.683451590753066,16.44922560463874
1658789611745224,-2.4719615472647547,7.354848554207592,15.167467765316132
1658789611761223,-2.105745021744042,6.9886320286868795,13.76363775082018
1658789611777223,-7.232776379034021,5.95101853971164,13.45845731288614
1658789611793223,-6.500343327992596,5.645838101777599,14.92332341496899
1658789611809234,-2.8381780727854675,6.439307240405924,17.79201953154802
1658789611825234,-3.0212863355459376,5.95101853971164,17.24269474326684
1658789611841234,-3.0212863355459376,4.730296787975931,14.190890363927565
1658789611857234,-2.04470893415737,3.6316472114137923,12.909132524605184
1658789611873233,-0.03051804379333589,4.303044174868319,13.824673838406852
1658789611889233,0.15259021896690683,4.60822461280236,14.129854276340893
1658789611905233,1.983672846570471,4.303044174868319,13.702601663233281
1658789611921233,1.8005645838102282,4.119935912108076,13.336385137712568
1658789611937233,-1.5564202334630863,3.997863736934505,13.092240787365427
1658789611953232,-1.9226367589837992,4.669260700389032,13.031204699778755
1658789611969232,-4.242008087281647,4.974441138323073,12.176699473563758
1658789611985232,-6.622415503166167,3.7537193865873633,9.73525597009234
1658789612001232,-4.974441138323073,4.180971999694748,8.45349813076973
1658789612017232,-1.4953841458761872,5.76791027695117,9.979400320439481
1658789612033231,-1.3122758831159445,6.317235065232353,11.383230334935433
1658789612049231,-1.0681315327688026,5.828946364538069,10.833905546654478
1658789612065231,0.45777065690094787,5.279621576256886,10.223544670786623
1658789612081231,3.0212863355459376,4.791332875562603,10.467689021133765
1658789612097231,1.4953841458761872,4.180971999694748,9.73525597009234
1658789612113230,-2.9602502479590385,3.997863736934505,8.697642481116873
1658789612129211,-3.3875028610666504,4.303044174868319,8.880750743877343
1658789612145211,4.119935912108076,6.073090714885211,10.406652933546866
1658789612161211,8.33142595559616,7.17174029144735,11.932555123216616
1658789612177210,3.692683299000464,5.95101853971164,11.871519035629717
1658789612193210,-2.9602502479590385,4.9134050507361735,10.711833371480907
1658789612209210,-6.683451590753066,6.012054627298312,9.246967269398056
1658789612225210,-3.570611123826893,6.317235065232353,9.124895094224485
1658789612241210,0.33569848172737693,5.279621576256886,10.162508583199724
1658789612257209,1.983672846570471,5.645838101777599,11.444266422522333
1658789612273209,0.3967345693140487,7.17174029144735,10.650797283894008
1658789612289209,-1.3733119707026162,6.317235065232353,7.721065079728305
1658789612305209,0.2746623941404778,5.584802014190927,6.134126802471883
1658789612321209,1.8005645838102282,6.256198977645454,7.537956816968062
1658789612337208,3.3875028610666504,7.721065079728305,8.6366063935302
1658789612353208,4.60822461280236,8.392462043183059,8.392462043183059
1658789612369208,4.364080262455218,7.965209430075447,6.805523765926637
1658789612385208,3.7537193865873633,6.744487678339738,5.889982452124741
1658789612401208,2.7771419851987957,6.012054627298312,6.317235065232353
1658789612417207,2.9602502479590385,5.2185854886702145,7.2938124666209205
1658789612433207,-0.33569848172737693,4.974441138323073,7.782101167315204
1658789612449218,-4.180971999694748,4.547188525215461,7.11070420386045
1658789612465218,-4.730296787975931,5.584802014190927,6.378271152819025
1658789612481218,-3.997863736934505,5.584802014190927,4.42511635004189
1658789612497218,-2.4719615472647547,5.3406576638437855,2.288853284504512
1658789612513218,0.3967345693140487,4.9134050507361735,0.7629510948347615
1658789612529217,6.134126802471883,4.486152437628789,0.7629510948347615
1658789612545217,8.880750743877343,3.1433585107195086,0.213626306553806
1658789612561217,7.049668116273779,0.5798428320745188,-1.1902037079423735
1658789612577217,5.76791027695117,-0.6408789196611906,-3.692683299000464
1658789612593217,7.721065079728305,-2.288853284504512,-6.500343327992596
1658789612609216,8.819714656290444,-4.486152437628789,-8.087281605249018
1658789612625216,5.76791027695117,-5.462729839017356,-8.941786831464015
1658789612641216,2.7771419851987957,-5.645838101777599,-9.430075532158298
1658789612657216,2.7161058976118966,-6.195162890058782,-11.01701380941472
1658789612673215,3.5095750362402214,-7.049668116273779,-13.336385137712568
1658789612689215,3.692683299000464,-7.843137254901876,-15.533684290836845
1658789612705215,2.8992141603723667,-9.185931181811156,-17.42580300602731
1658789612721215,3.7537193865873633,-9.613183794918768,-18.097199969481835
1658789612737215,4.486152437628789,-7.598992904554734,-18.89066910811016
1658789612753214,6.744487678339738,-6.805523765926637,-19.378957808804444
1658789612769195,8.209353780422589,-7.904173342488775,-20.17242694743254
1658789612785195,4.547188525215461,-9.73525597009234,-20.904859998473967
1658789612801195,-0.45777065690094787,-11.505302510109004,-21.942473487449433
1658789612817195,4.119935912108076,-10.89494163424115,-22.247653925383247
1658789612833194,10.040436408026153,-9.918364232852582,-21.51522087434182
1658789612849194,10.223544670786623,-11.566338597695903,-21.637293049515392
1658789612865194,8.392462043183059,-12.909132524605184,-22.61387045090396
1658789612881194,7.476920729381163,-12.726024261844714,-23.529411764705856
1658789612897194,9.491111619745197,-12.298771648737329,-24.13977264057371
1658789612913193,12.4208438239109,-12.481879911497572,-24.628061341267994
1658789612929193,12.481879911497572,-12.787060349431613,-25.665674830243233
1658789612945193,11.566338597695903,-13.275349050125897,-27.069504844739413
1658789612961193,11.139085984588291,-13.76363775082018,-28.229190508888223
1658789612977193,13.58052948805971,-13.519493400473038,-29.449912260623933
1658789612993192,12.726024261844714,-13.275349050125897,-30.54856183718607
1658789613009192,11.993591210803288,-13.214312962538997,-32.37964446478986
1658789613025192,13.702601663233281,-13.946746013580423,-33.60036621652557
1658789613041192,14.92332341496899,-14.435034714274707,-34.088654917219856
1658789613057191,13.702601663233281,-15.045395590142562,-34.45487144274057
1658789613073191,10.101472495613052,-14.496070801861606,-35.67559319447628
1658789613089203,11.139085984588291,-14.92332341496899,-37.44563973449317
1658789613105202,16.2050812542916,-14.618142977035177,-37.38460364690627
1658789613121202,18.219272144655406,-13.64156557564661,-37.56771190966674
1658789613137202,17.914091706721592,-12.115663385976859,-37.872892347600555
1658789613153202,14.129854276340893,-11.07804989700162,-39.276722362096734
1658789613169201,12.603952086671143,-11.505302510109004,-42.084382391088866
1658789613185201,19.80621042191183,-11.322194247348762,-43.121995880064105
1658789613201201,23.041123064011572,-9.063859006637585,-41.16884107728697
1658789613217201,16.388189517051842,-9.185931181811156,-40.92469672693983
1658789613233201,10.833905546654478,-11.932555123216616,-41.35194934004744
1658789613249200,13.275349050125897,-13.519493400473038,-39.82604715037769
1658789613265200,12.176699473563758,-11.932555123216616,-38.54428931105531
1658789613281200,11.20012207217519,-12.115663385976859,-40.13122758831173
1658789613297200,10.955977721828049,-13.702601663233281,-41.0467689021134
1658789613313200,10.772869459067579,-15.411612115663274,-40.741588464179586
1658789613329199,6.622415503166167,-14.373998626688035,-39.64293888761745
1658789613345199,7.476920729381163,-13.76363775082018,-40.37537193865887
1658789613361199,12.787060349431613,-12.848096437018285,-40.2532997634853
1658789613377199,17.853055619134693,-12.23773556115043,-38.97154192416269
1658789613393199,17.79201953154802,-11.322194247348762,-37.933928435187454
1658789613409179,14.496070801861606,-12.4208438239109,-39.94811932555126
1658789613425179,11.566338597695903,-13.336385137712568,-42.084382391088866
1658789613441179,11.383230334935433,-13.519493400473038,-42.02334630350197
1658789613457179,14.80125123979542,-10.833905546654478,-40.00915541313816
1658789613473178,12.298771648737329,-9.308003356984727,-39.215686274509835
1658789613489178,7.660028992141633,-10.528725108720437,-41.657129777981254
1658789613505178,9.124895094224485,-12.23773556115043,-42.93888761730386
1658789613521178,13.275349050125897,-9.67421988250544,-41.71816586556815
1658789613537178,14.373998626688035,-7.965209430075447,-41.59609369039458
1658789613553177,11.20012207217519,-9.369039444571627,-42.14541847867554
1658789613569177,13.702601663233281,-10.345616845960194,-42.63370717936982
1658789613585177,17.975127794308264,-10.223544670786623,-39.82604715037769
1658789613601177,18.402380407415876,-9.55214770733187,-37.56771190966674
1658789613617177,12.176699473563758,-8.758678568703772,-38.178072785534596
1658789613633176,5.096513313496644,-9.73525597009234,-41.71816586556815
1658789613649176,7.2938124666209205,-10.589761196307336,-42.81681544213029
1658789613665176,15.960936903944457,-9.979400320439481,-39.215686274509835
1658789613681176,16.1440451667047,-7.4158846417944915,-35.24834058136889
1658789613697176,10.772869459067579,-7.904173342488775,-36.713206683451745
1658789613713175,7.354848554207592,-9.73525597009234,-40.13122758831173
1658789613729187,10.650797283894008,-10.711833371480907,-39.215686274509835
1658789613745186,17.181658655680167,-8.697642481116873,-34.3938353551539
1658789613761186,17.42580300602731,-7.843137254901876,-31.586175326161765
1658789613777186,9.918364232852582,-10.101472495613052,-32.623788815137004
1658789613793186,7.476920729381163,-11.932555123216616,-33.78347447928604
1658789613809186,12.726024261844714,-12.115663385976859,-32.19653620202962
1658789613825185,18.58548867017612,-10.406652933546866,-29.38887617303726
1658789613841185,12.970168612191856,-8.697642481116873,-29.38887617303726
1658789613857185,3.3875028610666504,-9.979400320439481,-33.41725795376533
1658789613873185,5.645838101777599,-9.918364232852582,-34.69901579308771
1658789613889185,14.496070801861606,-8.392462043183059,-30.853742275120112
1658789613905184,15.960936903944457,-6.9886320286868795,-27.61882963302037
1658789613921184,13.702601663233281,-8.45349813076973,-29.20576791027679
1658789613937184,9.73525597009234,-10.589761196307336,-29.755092698557974
1658789613953184,5.0354772259097444,-10.589761196307336,-29.633020523384403
1658789613969184,4.547188525215461,-10.89494163424115,-30.4264896620125
1658789613985183,8.087281605249018,-11.139085984588291,-30.121309224078686
1658789614001183,14.679179064621849,-10.406652933546866,-29.022659647516548
1658789614017183,16.876478217746126,-10.040436408026153,-26.7032883192187
1658789614033183,13.397421225299468,-9.73525597009234,-27.313649195086555
1658789614049163,10.284580758373295,-10.89494163424115,-30.182345311665358
1658789614065163,13.45845731288614,-11.444266422522333,-31.097886625467254
1658789614081163,16.32715342946517,-10.955977721828049,-29.022659647516548
1658789614097163,11.993591210803288,-8.148317692835917,-27.313649195086555
1658789614113163,6.012054627298312,-7.965209430075447,-29.755092698557974
1658789614129162,7.843137254901876,-7.843137254901876,-30.975814450293683
1658789614145162,13.519493400473038,-7.965209430075447,-29.38887617303726
1658789614161162,13.153276874952326,-7.4158846417944915,-26.337071793697987
1658789614177162,8.148317692835917,-7.537956816968062,-25.970855268177274
1658789614193162,4.42511635004189,-7.965209430075447,-27.61882963302037
1658789614209161,5.2185854886702145,-8.209353780422589,-28.839551384756078
1658789614225161,7.660028992141633,-8.148317692835917,-28.290226596475122
1658789614241161,11.01701380941472,-7.904173342488775,-25.909819180590375
1658789614257161,13.885709925993751,-7.782101167315204,-22.980086976424673
1658789614273161,10.406652933546866,-9.55214770733187,-23.041123064011572
1658789614289160,5.462729839017356,-12.481879911497572,-25.848783093003703
1658789614305160,9.124895094224485,-13.336385137712568,-26.947432669565842
1658789614321160,12.054627298390187,-12.664988174258042,-25.17738612954895
1658789614337160,11.566338597695903,-11.322194247348762,-23.346303501945386
1658789614353160,7.232776379034021,-11.01701380941472,-24.872205691615136
1658789614369171,5.2185854886702145,-10.833905546654478,-27.252613107499656
1658789614385171,7.965209430075447,-10.589761196307336,-28.534370946822264
1658789614401170,9.063859006637585,-9.73525597009234,-27.252613107499656
1658789614417170,5.3406576638437855,-8.087281605249018,-27.557793545433697
1658789614433170,3.570611123826893,-7.4158846417944915,-29.32784008545036
1658789614449170,7.17174029144735,-7.4158846417944915,-28.778515297169406
1658789614465170,11.627374685282575,-7.904173342488775,-27.374685282673227
1658789614481169,11.20012207217519,-8.270389868009488,-26.276035706111088
1658789614497169,4.60822461280236,-8.209353780422589,-26.153963530937517
1658789614513169,2.8992141603723667,-9.246967269398056,-27.313649195086555
1658789614529169,10.406652933546866,-8.758678568703772,-25.17738612954895
1658789614545169,14.312962539101136,-8.819714656290444,-22.552834363317288
1658789614561168,7.232776379034021,-8.697642481116873,-21.57625696192872
1658789614577168,2.8381780727854675,-9.430075532158298,-22.49179827573039
1658789614593168,4.852368963149502,-9.124895094224485,-22.919050888838
1658789614609168,8.880750743877343,-9.67421988250544,-23.285267414358714
1658789614625167,9.918364232852582,-9.918364232852582,-21.51522087434182
1658789614641167,6.317235065232353,-8.209353780422589,-19.745174334325156
1658789614657167,5.76791027695117,-7.965209430075447,-21.69832913710229
1658789614673167,8.880750743877343,-8.819714656290444,-23.407339589532285
1658789614689178,12.787060349431613,-9.796292057679011,-22.308690012970146
1658789614705178,11.932555123216616,-8.45349813076973,-20.05035477225897
1658789614721178,9.796292057679011,-8.148317692835917,-20.782787823300396
1658789614737177,3.3264667734797513,-8.45349813076973,-21.820401312275862
1658789614753177,1.0070954451819034,-9.002822919050914,-23.041123064011572
1658789614769177,5.157549401083315,-8.209353780422589,-21.27107652399468
1658789614785177,8.148317692835917,-7.537956816968062,-20.11139085984587
1658789614801177,2.9602502479590385,-8.087281605249018,-20.538643472953254
1658789614817176,-1.4343480582895154,-9.308003356984727,-21.45418478675515
1658789614833176,3.875791561760934,-9.430075532158298,-21.33211261158158
1658789614849176,9.430075532158298,-8.45349813076973,-20.477607385366582
1658789614865176,8.148317692835917,-9.369039444571627,-21.27107652399468
1658789614881176,4.486152437628789,-8.697642481116873,-20.660715648126825
1658789614897175,3.814755474174035,-7.232776379034021,-21.27107652399468
1658789614913175,7.354848554207592,-6.561379415579495,-23.285267414358714
1658789614929175,9.73525597009234,-6.317235065232353,-23.590447852292527
1658789614945175,7.537956816968062,-5.76791027695117,-23.224231326771815
1658789614961175,3.3875028610666504,-5.828946364538069,-23.773556115052997
1658789614977174,3.2654306858930795,-5.3406576638437855,-24.933241779201808
1658789614993174,9.002822919050914,-5.096513313496644,-25.36049439230942
1658789615009155,12.664988174258042,-5.096513313496644,-24.07873655298681
1658789615025155,11.01701380941472,-4.730296787975931,-22.980086976424673
1658789615041154,5.0354772259097444,-4.974441138323073,-24.444953078507524
1658789615057154,5.2185854886702145,-4.547188525215461,-25.970855268177274
1658789615073154,11.322194247348762,-3.936827649347606,-26.031891355763946
1658789615089154,12.359807736324,-3.0212863355459376,-24.872205691615136
1658789615105154,8.33142595559616,-2.410925459678083,-24.872205691615136
1658789615121153,4.180971999694748,-2.532997634851654,-25.848783093003703
1658789615137153,5.401693751430457,-2.04470893415737,-26.764324406805372
1658789615153153,10.589761196307336,-2.8992141603723667,-27.069504844739413
1658789615169153,14.312962539101136,-3.0212863355459376,-26.7032883192187
1658789615185153,11.139085984588291,-3.3264667734797513,-26.153963530937517
1658789615201152,8.819714656290444,-3.570611123826893,-25.909819180590375
1658789615217152,8.45349813076973,-3.0823224231326094,-26.6422522316318
1658789615233152,9.430075532158298,-3.4485389486533222,-27.069504844739413
1658789615249152,9.55214770733187,-4.791332875562603,-26.276035706111088
1658789615265152,7.598992904554734,-3.997863736934505,-26.092927443350845
1658789615281151,2.8381780727854675,-3.5095750362402214,-28.290226596475122
1658789615297151,2.5940337224383256,-3.4485389486533222,-29.755092698557974
1658789615313151,9.918364232852582,-3.0212863355459376,-28.473334859235365
1658789615329162,12.359807736324,-2.288853284504512,-26.6422522316318
1658789615345162,8.026245517662346,-2.655069810025225,-27.92401007095441
1658789615361162,1.3733119707026162,-3.3264667734797513,-28.595407034408936
1658789615377162,3.3875028610666504,-4.242008087281647,-28.16815442130155
1658789615393161,8.697642481116873,-3.3875028610666504,-25.48256656748299
1658789615409161,6.9886320286868795,-2.532997634851654,-23.89562829022657
1658789615425161,-0.7629510948347615,-4.058899824521177,-26.276035706111088
1658789615441161,1.8005645838102282,-4.669260700389032,-26.58121614404513
1658789615457161,10.89494163424115,-4.303044174868319,-24.383916990920852
1658789615473160,14.679179064621849,-3.2654306858930795,-22.61387045090396
1658789615489160,9.369039444571627,-4.242008087281647,-23.285267414358714
1658789615505160,6.744487678339738,-5.2185854886702145,-24.07873655298681
1658789615521160,10.040436408026153,-4.9134050507361735,-23.651483939879427
1658789615537160,13.092240787365427,-4.242008087281647,-22.8580148012511
1658789615553159,10.772869459067579,-4.242008087281647,-22.369726100556818
1658789615569159,5.584802014190927,-5.0354772259097444,-22.980086976424673
1658789615585159,4.547188525215461,-5.401693751430457,-23.590447852292527
1658789615601159,9.246967269398056,-6.073090714885211,-22.67490653849086
1658789615617159,15.838864728770886,-6.134126802471883,-21.45418478675515
1658789615633158,12.359807736324,-5.2185854886702145,-21.14900434882111
1658789615649139,4.180971999694748,-5.645838101777599,-23.95666437781324
1658789615665139,5.401693751430457,-5.401693751430457,-26.459143968871558
1658789615681139,13.336385137712568,-4.242008087281647,-25.665674830243233
1658789615697138,11.444266422522333,-3.0212863355459376,-23.285267414358714
1658789615713138,5.3406576638437855,-3.0823224231326094,-23.468375677118956
1658789615729138,3.692683299000464,-2.532997634851654,-23.468375677118956
1658789615745138,7.476920729381163,-1.739528496223329,-22.369726100556818
1658789615761138,10.528725108720437,-0.9460593575952316,-19.867246509498727
1658789615777137,6.317235065232353,-1.8005645838102282,-17.60891126878755
1658789615793137,-0.8850232700083325,-2.4719615472647547,-15.472648203250174
1658789615809137,-1.4343480582895154,-2.410925459678083,-12.970168612191856
1658789615825137,4.180971999694748,-1.6174563210497581,-9.55214770733187
1658789615841137,6.622415503166167,-1.3733119707026162,-5.76791027695117
1658789615857136,1.0070954451819034,-1.0070954451819034,-3.3264667734797513
1658789615873136,-5.889982452124741,0.03051804379333589,-1.9226367589837992
1658789615889136,-5.76791027695117,1.1291676203554744,-0.8239871824216607
1658789615905136,-1.1291676203554744,2.4719615472647547,2.227817196917613
1658789615921136,-3.692683299000464,3.2043945983061803,5.645838101777599
1658789615937135,-10.101472495613052,2.4719615472647547,8.209353780422589
1658789615953135,-11.01701380941472,2.9602502479590385,10.589761196307336
1658789615969146,-9.67421988250544,3.936827649347606,13.45845731288614
1658789615985146,-14.190890363927565,4.242008087281647,16.32715342946517
1658789616001146,-18.341344319828977,4.486152437628789,18.341344319828977
1658789616017146,-17.48683909361398,4.852368963149502,22.369726100556818
1658789616033146,-10.772869459067579,5.645838101777599,26.58121614404513
1658789616049145,-9.613183794918768,6.073090714885211,29.26680399786369
1658789616065145,-13.45845731288614,4.60822461280236,29.877164873731545
1658789616081145,-12.848096437018285,4.60822461280236,32.13550011444249
1658789616097145,-10.711833371480907,5.2185854886702145,34.57694361791391
1658789616113144,-12.481879911497572,5.889982452124741,35.248340581368666
1658789616129144,-15.716792553597315,6.134126802471883,33.05104142824439
1658789616145144,-12.726024261844714,7.354848554207592,31.219958800640825
1658789616161144,-11.993591210803288,9.369039444571627,31.95239185168225
1658789616177144,-15.350576028076603,10.040436408026153,32.01342793926892
1658789616193143,-14.679179064621849,10.589761196307336,32.13550011444249
1658789616209143,-8.45349813076973,10.284580758373295,34.2107270923932
1658789616225143,-5.401693751430457,8.880750743877343,37.01838712138533
1658789616241143,-10.040436408026153,8.45349813076973,38.727397573815324
1658789616257143,-16.388189517051842,8.209353780422589,38.17807278553437
1658789616273142,-18.76859693293659,8.026245517662346,38.0560006103608
1658789616289123,-14.679179064621849,8.758678568703772,38.78843366140222
1658789616305123,-13.397421225299468,9.85732814526591,39.88708323796436
1658789616321123,-15.045395590142562,10.345616845960194,39.64293888761722
1658789616337123,-16.26611734187827,10.040436408026153,38.48325322346818
1658789616353122,-12.909132524605184,9.67421988250544,38.23910887312104
1658789616369122,-8.392462043183059,9.369039444571627,38.727397573815324
1658789616385122,-8.392462043183059,10.711833371480907,39.33775844968318
1658789616401122,-13.76363775082018,10.101472495613052,38.78843366140222
1658789616417122,-14.312962539101136,10.345616845960194,38.60532539864175
1658789616433121,-10.650797283894008,10.833905546654478,38.849469748988895
1658789616449121,-10.711833371480907,11.444266422522333,38.66636148622865
1658789616465121,-15.10643167772946,11.566338597695903,38.11703669794747
1658789616481121,-16.754406042572555,11.383230334935433,39.09361409933604
1658789616497120,-10.955977721828049,11.383230334935433,39.70397497520389
1658789616513120,-9.491111619745197,11.444266422522333,39.154650186922936
1658789616529120,-17.24269474326684,11.688410772869474,37.01838712138533
1658789616545120,-21.14900434882111,11.749446860456146,34.57694361791391
1658789616561120,-13.092240787365427,13.275349050125897,35.248340581368666
1658789616577119,-5.584802014190927,15.411612115663274,37.506675822079615
1658789616593119,-7.598992904554734,14.862287327382319,36.95735103379866
1658789616609130,-13.031204699778755,12.481879911497572,35.126268406195095
1658789616625130,-16.571297779812312,10.955977721828049,34.33279926756677
1658789616641130,-15.899900816357558,10.467689021133765,35.248340581368666
1658789616657130,-13.824673838406852,11.627374685282575,38.17807278553437
1658789616673130,-13.153276874952326,11.688410772869474,39.88708323796436
1658789616689129,-14.251926451514464,9.430075532158298,38.23910887312104
1658789616705129,-15.594720378423744,7.843137254901876,37.567711909666514
1658789616721129,-17.36476691844041,8.026245517662346,37.93392843518723
1658789616737129,-15.838864728770886,10.162508583199724,38.23910887312104
1658789616753129,-13.946746013580423,11.444266422522333,38.30014496070794
1658789616769128,-12.848096437018285,10.345616845960194,36.163881895170334
1658789616785128,-11.627374685282575,9.185931181811156,34.02761882963296
1658789616801128,-12.4208438239109,9.73525597009234,34.14969100480653
1658789616817128,-13.519493400473038,11.322194247348762,33.96658274204606
1658789616833128,-11.444266422522333,12.481879911497572,33.53933012893867
1658789616849127,-7.843137254901876,11.322194247348762,34.02761882963296
1658789616865127,-6.378271152819025,10.528725108720437,36.163881895170334
1658789616881127,-12.909132524605184,9.491111619745197,37.93392843518723
1658789616897127,-18.646524757763018,9.002822919050914,38.17807278553437
1658789616913127,-16.937514305333025,8.209353780422589,37.567711909666514
1658789616929107,-6.195162890058782,8.087281605249018,38.78843366140222
1658789616945107,-3.997863736934505,9.73525597009234,42.755779354543165
1658789616961107,-11.810482948043045,8.33142595559616,42.69474326695649
1658789616977107,-15.472648203250174,6.683451590753066,41.16884107728674
1658789616993106,-11.444266422522333,7.11070420386045,40.00915541313793
1658789617009106,-9.369039444571627,9.73525597009234,40.497444113832216
1658789617025106,-13.092240787365427,12.054627298390187,40.070191500724604
1658789617041106,-16.571297779812312,11.566338597695903,38.910505836575794
1658789617057106,-10.955977721828049,10.162508583199724,37.9949645227739
1658789617073105,-9.185931181811156,9.979400320439481,39.09361409933604
1658789617089105,-14.496070801861606,10.467689021133765,38.60532539864175
1658789617105105,-17.181658655680167,9.85732814526591,37.689784084840085
1658789617121105,-12.664988174258042,10.406652933546866,39.09361409933604
1658789617137105,-5.828946364538069,9.67421988250544,41.8402380407415
1658789617153104,-7.965209430075447,9.063859006637585,43.060959792477206
1658789617169104,-14.435034714274707,7.537956816968062,41.718165865567926
1658789617185104,-17.66994735637445,6.622415503166167,41.22987716487364
1658789617201104,-14.312962539101136,7.049668116273779,41.16884107728674
1658789617217104,-12.848096437018285,8.026245517662346,41.8402380407415
1658789617233103,-15.899900816357558,9.67421988250544,40.55848020141889
1658789617249115,-16.02197299153113,9.124895094224485,38.0560006103608
1658789617265114,-8.45349813076973,8.697642481116873,38.54428931105508
1658789617281114,-4.669260700389032,10.711833371480907,40.9246967269396
1658789617297114,-4.974441138323073,10.467689021133765,39.58190280003032
1658789617313114,-13.214312962538997,9.491111619745197,36.04180971999676
1658789617329114,-21.942473487449433,9.308003356984727,33.600366216525344
1658789617345113,-16.998550392919697,9.369039444571627,34.943160143434625
1658789617361113,-6.439307240405924,12.054627298390187,38.78843366140222
1658789617377113,-4.180971999694748,13.519493400473038,39.39879453727008
1658789617393113,-12.542915999084471,11.261158159761862,36.408026245517476
1658789617409113,-16.693369954985883,7.2938124666209205,33.53933012893867
1658789617425112,-13.519493400473038,7.843137254901876,34.57694361791391
1658789617441112,-8.941786831464015,11.322194247348762,37.689784084840085
1658789617457112,-6.805523765926637,13.153276874952326,38.849469748988895
1658789617473112,-4.42511635004189,12.176699473563758,34.821087968261054
1658789617489112,-8.392462043183059,8.941786831464015,30.792706187533213
1658789617505111,-13.397421225299468,8.697642481116873,31.280994888227497
1658789617521111,-10.833905546654478,10.589761196307336,34.14969100480653
1658789617537111,-2.3498893720911838,12.848096437018285,37.689784084840085
1658789617553111,-2.4719615472647547,12.054627298390187,37.93392843518723
1658789617569091,-15.533684290836845,9.063859006637585,32.74586099031035
1658789617585091,-24.444953078507524,6.805523765926637,26.337071793697987
1658789617601091,-22.247653925383247,7.4158846417944915,25.970855268177274
1658789617617091,-8.270389868009488,11.20012207217519,30.73167009994654
1658789617633091,2.9602502479590385,17.48683909361398,36.469062333104375
1658789617649090,-1.8005645838102282,16.32715342946517,34.69901579308748
1658789617665090,-14.862287327382319,10.345616845960194,28.16815442130155
1658789617681090,-18.036163881895163,7.782101167315204,26.153963530937517
1658789617697090,-8.697642481116873,10.955977721828049,29.633020523384403
1658789617713090,-1.5564202334630863,14.190890363927565,33.11207751583106
1658789617729089,-4.119935912108076,13.397421225299468,32.92896925307082
1658789617745089,-8.575570305943302,9.979400320439481,28.717479209582507
1658789617761089,-7.11070420386045,9.063859006637585,26.764324406805372
1658789617777089,-5.0354772259097444,10.955977721828049,28.96162355992965
1658789617793089,-5.523765926604028,14.862287327382319,33.17311360341796
1658789617809088,-6.805523765926637,15.838864728770886,33.29518577859153
1658789617825088,-7.049668116273779,13.214312962538997,28.96162355992965
1658789617841088,-11.688410772869474,10.833905546654478,25.970855268177274
1658789617857088,-19.439993896391115,9.55214770733187,26.82536049439227
1658789617873088,-17.54787518120088,10.040436408026153,28.534370946822264
1658789617889099,-4.669260700389032,12.115663385976859,31.83031967650868
1658789617905099,1.3122758831159445,13.031204699778755,33.844510566872486
1658789617921098,-3.0212863355459376,9.430075532158298,31.464103150987967
1658789617937098,-8.270389868009488,5.706874189364498,28.595407034408936
1658789617953098,-11.993591210803288,5.584802014190927,27.557793545433697
1658789617969098,-11.749446860456146,6.317235065232353,27.252613107499656
1658789617985098,-6.500343327992596,7.11070420386045,27.74090180819394
1658789618001097,-1.0070954451819034,7.598992904554734,28.107118333714652
1658789618017097,-0.33569848172737693,6.9886320286868795,27.98504615854108
1658789618033097,-7.476920729381163,5.157549401083315,25.17738612954895
1658789618049097,-12.542915999084471,3.5095750362402214,21.820401312275862
1658789618065096,-11.505302510109004,3.0823224231326094,20.35553521019301
1658789618081096,-6.073090714885211,4.364080262455218,21.026932173647538
1658789618097096,-2.04470893415737,6.927595941100208,22.064545662623004
1658789618113096,-2.288853284504512,7.354848554207592,21.69832913710229
1658789618129096,-5.889982452124741,6.805523765926637,20.35553521019301
1658789618145095,-7.2938124666209205,3.997863736934505,18.463416495002548
1658789618161095,-6.9886320286868795,3.936827649347606,17.60891126878755
1658789618177095,-4.364080262455218,5.76791027695117,18.219272144655406
1658789618193095,-4.669260700389032,5.645838101777599,19.623102159151586
1658789618209106,-2.7161058976118966,4.119935912108076,20.11139085984587
1658789618225106,3.997863736934505,4.547188525215461,21.39314869916825
1658789618241106,2.4719615472647547,4.974441138323073,22.552834363317288
1658789618257105,-7.232776379034021,2.9602502479590385,21.210040436408008
1658789618273105,-14.251926451514464,2.166781109330941,18.95170519569683
1658789618289105,-15.716792553597315,1.3122758831159445,16.510261692225413
1658789618305105,-10.284580758373295,0.5188067444876197,16.02197299153113
1658789618321105,-3.0212863355459376,2.410925459678083,18.036163881895163
1658789618337104,-1.4343480582895154,4.60822461280236,19.01274128328373
1658789618353104,1.5564202334630863,3.3875028610666504,17.42580300602731
1658789618369104,4.180971999694748,2.655069810025225,16.2050812542916
1658789618385104,0.2746623941404778,1.0681315327688026,14.618142977035177
1658789618401104,-2.227817196917613,1.4343480582895154,14.435034714274707
1658789618417103,0.5798428320745188,4.180971999694748,15.899900816357558
1658789618433103,2.105745021744042,7.049668116273779,17.059586480506596
1658789618449103,-2.410925459678083,5.462729839017356,15.472648203250174
1658789618465103,-2.9602502479590385,3.2654306858930795,13.885709925993751
1658789618481103,-1.0070954451819034,4.852368963149502,14.435034714274707
1658789618497102,-0.213626306553806,5.828946364538069,13.885709925993751
1658789618513102,1.3122758831159445,6.500343327992596,13.153276874952326
1658789618529083,5.462729839017356,8.026245517662346,12.664988174258042
1658789618545083,11.688410772869474,7.476920729381163,13.45845731288614
1658789618561082,15.228503852903032,6.439307240405924,14.435034714274707
1658789618577082,9.430075532158298,6.195162890058782,14.007782101167322
1658789618593082,0.2746623941404778,6.012054627298312,12.481879911497572
1658789618609082,-5.2185854886702145,5.76791027695117,11.322194247348762
1658789618625082,-3.7537193865873633,7.049668116273779,11.01701380941472
1658789618641081,-1.6784924086366573,9.002822919050914,10.528725108720437
1658789618657081,-0.7629510948347615,9.67421988250544,9.796292057679011
1658789618673081,-4.852368963149502,8.880750743877343,8.941786831464015
1658789618689081,-9.063859006637585,7.476920729381163,7.049668116273779
1658789618705081,-7.904173342488775,4.730296787975931,5.523765926604028
1658789618721080,-3.2654306858930795,2.4719615472647547,4.852368963149502
1658789618737080,-2.9602502479590385,1.4343480582895154,4.730296787975931
1658789618753080,-6.195162890058782,1.0681315327688026,3.0823224231326094
1658789618769080,-1.739528496223329,0.3967345693140487,1.1291676203554744
1658789618785080,4.180971999694748,-1.3122758831159445,-0.5798428320745188
1658789618801079,5.828946364538069,-3.4485389486533222,-2.4719615472647547
1658789618817079,3.4485389486533222,-3.692683299000464,-4.669260700389032
1658789618833079,-0.33569848172737693,-5.0354772259097444,-7.049668116273779
1658789618849090,1.2512397955290453,-6.805523765926637,-8.51453421835663
1658789618865090,5.279621576256886,-6.500343327992596,-7.843137254901876
1658789618881090,6.256198977645454,-6.744487678339738,-7.782101167315204
1658789618897090,6.378271152819025,-6.8665598535133086,-9.369039444571627
1658789618913089,5.2185854886702145,-7.598992904554734,-11.810482948043045
1658789618929089,3.2043945983061803,-8.819714656290444,-13.64156557564661
1658789618945089,2.227817196917613,-7.721065079728305,-14.496070801861606
1658789618961089,1.3733119707026162,-7.049668116273779,-14.80125123979542
1658789618977089,4.669260700389032,-7.049668116273779,-15.289539940489703
1658789618993088,8.209353780422589,-6.256198977645454,-14.92332341496899
1658789619009088,8.148317692835917,-6.622415503166167,-14.92332341496899
1658789619025088,6.683451590753066,-8.087281605249018,-14.862287327382319
1658789619041088,4.852368963149502,-9.246967269398056,-15.167467765316132
1658789619057088,2.3498893720911838,-8.148317692835917,-15.716792553597315
1658789619073087,2.7161058976118966,-6.317235065232353,-16.32715342946517
1658789619089087,5.279621576256886,-6.073090714885211,-16.32715342946517
1658789619105087,5.76791027695117,-5.76791027695117,-16.754406042572555
1658789619121087,3.814755474174035,-7.537956816968062,-18.524452582589447
1658789619137086,4.547188525215461,-7.598992904554734,-20.11139085984587
1658789619153086,8.33142595559616,-6.134126802471883,-21.45418478675515
1658789619169067,10.772869459067579,-6.378271152819025,-22.247653925383247
1658789619185067,10.650797283894008,-6.744487678339738,-23.285267414358714
1658789619201067,9.918364232852582,-7.598992904554734,-23.89562829022657
1658789619217066,8.392462043183059,-8.33142595559616,-24.994277866788707
1658789619233066,8.392462043183059,-8.026245517662346,-26.58121614404513
1658789619249066,9.246967269398056,-6.927595941100208,-28.412298771648693
1658789619265066,8.941786831464015,-7.721065079728305,-30.4264896620125
1658789619281066,9.430075532158298,-10.040436408026153,-31.036850537880355
1658789619297065,13.397421225299468,-9.246967269398056,-31.708247501335336
1658789619313065,15.472648203250174,-7.537956816968062,-32.50171663996343
1658789619329065,11.688410772869474,-7.2938124666209205,-34.271763179980326
1658789619345065,9.430075532158298,-7.4158846417944915,-36.04180971999699
1658789619361065,12.603952086671143,-7.782101167315204,-36.10284580758389
1658789619377064,16.876478217746126,-6.683451590753066,-34.45487144274057
1658789619393064,14.679179064621849,-5.096513313496644,-33.051041428244616
1658789619409064,8.6366063935302,-5.157549401083315,-35.00419623102175
1658789619425064,7.2938124666209205,-6.256198977645454,-37.750820172426984
1658789619441064,9.491111619745197,-7.782101167315204,-37.3235675593196
1658789619457063,6.256198977645454,-7.904173342488775,-35.79766536964985
1658789619473063,7.660028992141633,-7.4158846417944915,-34.332799267567
1658789619489074,11.444266422522333,-6.9886320286868795,-33.051041428244616
1658789619505074,9.430075532158298,-8.270389868009488,-33.478294041352
1658789619521074,7.782101167315204,-9.491111619745197,-35.12626840619532
1658789619537074,11.566338597695903,-8.819714656290444,-35.187304493781994
1658789619553074,11.383230334935433,-7.232776379034021,-34.3938353551539
1658789619569073,6.134126802471883,-9.796292057679011,-36.22491798275746
1658789619585073,5.76791027695117,-11.20012207217519,-38.30014496070817
1658789619601073,10.650797283894008,-9.67421988250544,-37.50667582207984
1658789619617073,10.223544670786623,-7.354848554207592,-35.85870145723675
1658789619633072,11.810482948043045,-5.645838101777599,-37.38460364690627
1658789619649072,13.092240787365427,-7.965209430075447,-38.23910887312127
1658789619665072,11.749446860456146,-11.139085984588291,-37.44563973449317
1658789619681072,10.589761196307336,-11.01701380941472,-35.12626840619532
1658789619697072,6.744487678339738,-9.85732814526591,-34.82108796826128
1658789619713071,8.51453421835663,-10.650797283894008,-37.68978408484031
1658789619729071,13.946746013580423,-11.810482948043045,-38.60532539864198
1658789619745071,14.557106889448278,-11.566338597695903,-36.10284580758389
1658789619761071,8.880750743877343,-11.07804989700162,-33.35622186617843
1658789619777071,7.598992904554734,-10.833905546654478,-34.088654917219856
1658789619793070,13.58052948805971,-10.345616845960194,-35.55352101930271
1658789619809051,15.472648203250174,-10.406652933546866,-34.82108796826128
1658789619825051,8.087281605249018,-10.467689021133765,-32.99000534065772
1658789619841051,-0.8850232700083325,-10.772869459067579,-34.332799267567
1658789619857051,3.0823224231326094,-11.505302510109004,-36.591134508278174
1658789619873050,12.787060349431613,-12.909132524605184,-34.63797970550104
1658789619889050,14.007782101167322,-11.444266422522333,-30.182345311665358
1658789619905050,9.185931181811156,-9.063859006637585,-29.32784008545036
1658789619921050,7.17174029144735,-8.6366063935302,-31.097886625467254
1658789619937049,9.67421988250544,-10.162508583199724,-30.4875257495994
1658789619953049,12.298771648737329,-12.23773556115043,-28.473334859235365
1658789619969049,11.871519035629717,-12.23773556115043,-25.726710917830133
1658789619985049,7.049668116273779,-13.45845731288614,-26.276035706111088
1658789620001049,5.889982452124741,-14.129854276340893,-27.374685282673227
1658789620017048,6.439307240405924,-13.702601663233281,-28.412298771648693
1658789620033048,6.744487678339738,-13.031204699778755,-29.938200961318216
1658789620049048,11.993591210803288,-11.566338597695903,-30.30441748683893
1658789620065048,10.772869459067579,-9.613183794918768,-30.792706187533213
1658789620081048,6.683451590753066,-9.73525597009234,-33.66140230411247
1658789620097047,6.500343327992596,-10.284580758373295,-35.492484931716035
1658789620113047,12.664988174258042,-10.406652933546866,-34.271763179980326
1658789620129058,12.726024261844714,-8.697642481116873,-31.525139238574866
1658789620145058,6.378271152819025,-9.67421988250544,-33.29518577859176
1658789620161058,5.828946364538069,-10.650797283894008,-35.55352101930271
1658789620177058,11.505302510109004,-11.810482948043045,-34.332799267567
1658789620193058,14.679179064621849,-11.261158159761862,-31.097886625467254
1658789620209057,10.772869459067579,-11.749446860456146,-31.280994888227724
1658789620225057,6.8665598535133086,-11.688410772869474,-33.60036621652557
1658789620241057,12.970168612191856,-12.4208438239109,-34.57694361791414
1658789620257057,19.01274128328373,-12.298771648737329,-32.928969253071045
1658789620273057,16.08300907911803,-11.993591210803288,-31.830319676508907
1658789620289056,9.063859006637585,-14.129854276340893,-32.13550011444272
1658789620305056,9.246967269398056,-14.862287327382319,-31.769283588922008
1658789620321056,11.871519035629717,-14.435034714274707,-32.806897077897474
1658789620337056,11.01701380941472,-14.496070801861606,-33.78347447928604
1658789620353056,10.955977721828049,-14.435034714274707,-34.21072709239343
1658789620369055,8.392462043183059,-13.45845731288614,-34.51590753032747
1658789620385055,7.232776379034021,-13.031204699778755,-36.34699015793103
1658789620401055,11.07804989700162,-12.848096437018285,-37.68978408484031
1658789620417055,13.519493400473038,-12.970168612191856,-36.28595407034413
1658789620433055,9.063859006637585,-12.23773556115043,-35.73662928206318
1658789620449035,6.622415503166167,-12.115663385976859,-37.750820172426984
1658789620465035,8.392462043183059,-13.092240787365427,-39.398794537270305
1658789620481035,15.472648203250174,-13.153276874952326,-37.20149538414603
1658789620497035,16.693369954985883,-11.566338597695903,-32.623788815137004
1658789620513034,9.73525597009234,-12.970168612191856,-33.72243839169914
1658789620529034,3.2043945983061803,-13.519493400473038,-36.4080262455177
1658789620545034,8.148317692835917,-14.190890363927565,-37.750820172426984
1658789620561034,16.1440451667047,-13.275349050125897,-34.3938353551539
1658789620577034,14.557106889448278,-11.627374685282575,-32.31860837720319
1658789620593033,7.904173342488775,-13.031204699778755,-34.82108796826128
1658789620609033,5.0354772259097444,-12.848096437018285,-35.67559319447628
1658789620625033,5.3406576638437855,-12.726024261844714,-34.69901579308771
1658789620641033,4.974441138323073,-11.627374685282575,-32.13550011444272
1658789620657033,2.4719615472647547,-11.505302510109004,-31.769283588922008
1658789620673032,0.09155413138023505,-12.542915999084471,-33.35622186617843
1658789620689032,4.242008087281647,-12.970168612191856,-33.90554665445961
1658789620705032,12.542915999084471,-12.4208438239109,-31.708247501335336
1658789620721032,16.1440451667047,-11.20012207217519,-30.4264896620125
1658789620737032,14.98435950255589,-9.918364232852582,-30.914778362706784
1658789620753031,10.528725108720437,-8.6366063935302,-34.271763179980326
1658789620769043,10.650797283894008,-7.965209430075447,-38.78843366140245
1658789620785042,16.2050812542916,-7.11070420386045,-38.84946974898912
1658789620801042,15.655756466010416,-5.889982452124741,-36.774242771038416
1658789620817042,10.467689021133765,-6.073090714885211,-35.370412756542464
1658789620833042,6.012054627298312,-6.012054627298312,-36.22491798275746
1658789620849042,5.95101853971164,-7.049668116273779,-38.60532539864198
1658789620865041,13.275349050125897,-8.270389868009488,-39.215686274509835
1658789620881041,16.510261692225413,-6.683451590753066,-36.835278858625315
1658789620897041,11.139085984588291,-5.523765926604028,-35.85870145723675
1658789620913041,9.246967269398056,-5.462729839017356,-38.1170366979477
1658789620929041,14.312962539101136,-2.655069810025225,-39.337758449683406
1658789620945040,16.815442130159454,-2.288853284504512,-38.42221713588174
1658789620961040,13.214312962538997,-2.04470893415737,-36.34699015793103
1658789620977040,7.782101167315204,-2.3498893720911838,-37.872892347600555
1658789620993040,4.9134050507361735,-2.4719615472647547,-38.66636148622888
1658789621009040,9.55214770733187,-2.7161058976118966,-36.713206683451745
1658789621025039,13.946746013580423,-1.9226367589837992,-33.11207751583129
1658789621041039,13.45845731288614,-1.3122758831159445,-32.37964446478986
