Timestamp (microseconds),Accel X (g),Accel Y (g),Accel Z (g)
1658789595169555,0.13531700617990428,0.9997100785839628,0.013977264057373873
1658789595185555,0.13824673838406998,0.9824979018844893,0.017029068436713146
1658789595201555,0.13531700617990428,0.9750514991989014,0.019836728465705278
1658789595217555,0.12799267566949002,0.9883573662928207,0.01886015106431671
1658789595233554,0.13043411917296144,0.9980010681315328,0.013244831006332447
1658789595249554,0.13128862439917643,1.0097199969481956,0.008728160524910322
1658789595265554,0.1343404287785157,0.9878690775921264,0.010193026626993174
1658789595281554,0.13592736705577213,0.9774929427023729,0.01641870756084529
1658789595297554,0.13336385137712714,0.9886015106431678,0.013244831006332447
1658789595313553,0.13421835660334214,1.0056916151674677,0.01361104753185316
1658789595329553,0.1293354695963993,0.9879911497673,0.012878614480811734
1658789595345553,0.12823682001983716,0.976882581826505,0.01861600671396957
1658789595361553,0.1293354695963993,0.9795681696803236,0.017273212787060288
1658789595377553,0.13067826352330858,1.0023956664377813,0.015930418860151008
1658789595393552,0.13202105745021786,1.0066681925688563,0.01495384145876244
1658789595409552,0.13067826352330858,0.98970016021973,0.01605249103532458
1658789595425552,0.1259174486915393,0.9793240253299764,0.015564202334630295
1658789595441552,0.12713817044327502,0.9899443045700771,0.021667811093308842
1658789595457552,0.1289692530708786,0.9868925001907378,0.02252231631952384
1658789595473551,0.13409628442816857,0.9889677271686885,0.024719615472648115
1658789595489563,0.13080033569848215,0.9982452124818799,0.02020294499122599
1658789595505562,0.12799267566949002,0.9975127794308385,0.015686274509803866
1658789595521562,0.1259174486915393,0.9909208819714657,0.01373311970702673
1658789595537562,0.1310444800488293,0.9934843976501107,0.013122758831158876
1658789595553562,0.132265201800565,0.9906767376211185,0.01873807888914314
1658789595569562,0.1264057373922336,0.9766384374761579,0.019592584115358136
1658789595585561,0.12176699473563701,0.9765163653009843,0.029480430304417382
1658789595601561,0.12042420080872773,1.0004425116350042,0.01873807888914314
1658789595617561,0.13507286182955713,1.0131380178530556,0.011291676203555312
1658789595633561,0.13409628442816857,1.004226749065385,0.009094377050431035
1658789595649561,0.13006790264744073,0.9800564583810178,0.014343480582894585
1658789595665560,0.130556191348135,0.9859159227893493,0.020691233691920274
1658789595681560,0.12396429388876129,1.0014190890363928,0.020935378042267416
1658789595697560,0.12664988174258074,0.9976348516060121,0.018493934538795997
1658789595713560,0.13202105745021786,1.0000762951094835,0.011779964904249596
1658789595729560,0.12872510872053144,1.0055695429922942,0.01104753185320817
1658789595745559,0.1255512321660186,0.9998321507591363,0.017151140611886717
1658789595761559,0.1318989852750443,0.9983672846570535,0.02130159456778813
1658789595777559,0.12799267566949002,0.9993438620584421,0.015686274509803866
1658789595793559,0.12909132524605216,0.9800564583810178,0.008606088349736751
1658789595809570,0.12701609826810145,0.9762722209506371,0.009338521400778177
1658789595825570,0.11517509727626418,0.9967803463797971,-4.272526131074983E-4
1658789595841570,0.12115663385976916,0.9875028610666057,0.007019150072480329
1658789595857569,0.12530708781567146,0.9875028610666057,0.016906996261539575
1658789595873569,0.13885709925993783,1.0200961318379491,0.01629663538567172
1658789595889569,0.14251926451514496,1.018997482261387,0.01617456321049815
1658789595905569,0.14215304798962425,0.9864042114900435,0.02276646066987098
1658789595921568,0.13702601663233427,0.9782253757534143,0.02642862592507811
1658789595937568,0.13043411917296144,1.0011749446860456,0.020813305867093845
1658789595953568,0.13275349050125929,0.9998321507591363,0.010315098802166744
1658789595969568,0.1301899748226143,0.9735866330968186,0.008850232700083893
1658789595985568,0.12982375829709358,0.9678492408636608,0.010193026626993174
1658789596001567,0.12616159304188646,0.9809109636072328,0.013977264057373873
1658789596017567,0.13080033569848215,0.9945830472266728,0.012146181429770309
1658789596033567,0.13885709925993783,0.99140917067216,0.019470511940184565
1658789596049567,0.14264133669031853,0.9895780880445564,0.023376821545738835
1658789596065567,0.14056610971236783,0.9887235828183414,0.02154573891813527
1658789596081566,0.13092240787365572,0.9824979018844893,0.011657892729076025
1658789596097566,0.12701609826810145,0.9790798809796293,0.008117799649042468
1658789596113566,0.13629358358129284,0.988845654993515,0.002746623941405346
1658789596129547,0.13592736705577213,0.9832303349355307,0.010559243152513886
1658789596145547,0.13177691309987072,0.9728542000457772,0.022156099794003126
1658789596161546,0.12567330434119217,0.9865262836652171,0.022278171969176697
1658789596177546,0.13421835660334214,1.0031280994888228,0.01495384145876244
1658789596193546,0.1369039444571607,0.9911650263218128,0.01629663538567172
1658789596209546,0.13849088273441712,0.9942168307011521,0.0109254596780346
1658789596225546,0.13482871747921,0.9942168307011521,0.020691233691920274
1658789596241545,0.13141069657435,0.9962920576791028,0.022034027618829555
1658789596257545,0.12652780956740717,0.9966582742046235,0.015075913633936011
1658789596273545,0.12994583047226715,0.9864042114900435,0.015930418860151008
1658789596289545,0.1251850156404979,0.9917753871976807,0.016906996261539575
1658789596305544,0.12213321126115773,1.0048371099412527,0.02264438849469741
1658789596321544,0.11834897383077703,0.9928740367742428,0.024353398947127403
1658789596337544,0.1284809643701843,0.9982452124818799,0.027283131151293105
1658789596353544,0.13153276874952358,1.0150911726558327,0.02545204852368954
1658789596369544,0.1301899748226143,1.0084992751964599,0.017029068436713146
1658789596385543,0.12445258258945557,0.9867704280155642,0.02032501716639956
1658789596401543,0.12274357213702558,0.9884794384679942,0.01886015106431671
1658789596417543,0.11956969558251274,0.9975127794308385,0.021057450217440987
1658789596433543,0.11993591210803345,0.9872587167162585,0.020691233691920274
1658789596449524,0.12298771648737272,0.9796902418554971,0.02777141985198739
1658789596465523,0.1267719539177543,1.0023956664377813,0.02679484245059882
1658789596481523,0.12835889219501073,1.0077668421454185,0.027283131151293105
1658789596497523,0.12689402609292788,0.9859159227893493,0.029602502479590953
1658789596513523,0.1231097886625463,0.9947051194018464,0.028137636377508102
1658789596529523,0.12249942778667844,0.9909208819714657,0.02410925459678026
1658789596545522,0.12384222171358772,0.9754177157244222,0.019836728465705278
1658789596561522,0.12298771648737272,0.9823758297093157,0.018127718013275285
1658789596577522,0.12738231479362216,0.9942168307011521,0.012878614480811734
1658789596593522,0.12884718089570502,0.9904325932707714,0.01495384145876244
1658789596609521,0.123476005188067,0.9771267261768521,0.017029068436713146
1658789596625521,0.11944762340733917,0.9815213244831007,0.015075913633936011
1658789596641521,0.1264057373922336,1.0093537804226749,0.02130159456778813
1658789596657521,0.12689402609292788,1.0251010910200655,0.015197985809109582
1658789596673521,0.13238727397573857,1.00166323338674,0.01617456321049815
1658789596689520,0.1276264591439693,0.9728542000457772,0.01239032578011745
1658789596705520,0.12738231479362216,0.9903105210955978,0.014099336232547444
1658789596721520,0.12774853131914288,0.9989776455329213,0.014343480582894585
1658789596737520,0.12091248950942202,1.0084992751964599,0.012024109254596738
1658789596753520,0.12286564431219915,0.9887235828183414,0.015564202334630295
1658789596769531,0.12274357213702558,0.9889677271686885,0.019470511940184565
1658789596785531,0.12372014953841415,1.0109407186999313,0.022034027618829555
1658789596801530,0.12335393301289344,1.007888914320592,0.023132677195391693
1658789596817530,0.12530708781567146,0.9859159227893493,0.028503852903028815
1658789596833530,0.11993591210803345,0.9812771801327536,0.025818265049210254
1658789596849530,0.1276264591439693,1.004470893415732,0.025696192874036683
1658789596865530,0.11432059205004919,1.0060578316929885,0.018249790188448856
1658789596881529,0.11859311818112417,0.9969024185549706,0.030945296406500233
1658789596897529,0.11529716945143775,0.9671168078126193,0.025940337224383825
1658789596913529,0.12298771648737272,0.9927519645990692,0.03814755474174092
1658789596929529,0.12274357213702558,1.0045929655909056,0.035217822537575216
1658789596945529,0.1255512321660186,1.0084992751964599,0.03265430685893023
1658789596961528,0.12079041733424845,0.9971465629053178,0.025574120698863112
1658789596977528,0.12042420080872773,0.9763942931258107,0.02655069810025168
1658789596993528,0.12542915999084503,0.985427634088655,0.03472953383688093
1658789597009528,0.11444266422522276,0.9997100785839628,0.03167772945754166
1658789597025528,0.12201113908598415,0.9867704280155642,0.032410162508583085
1658789597041527,0.12030212863355416,0.9901884489204242,0.026306553749904538
1658789597057527,0.12799267566949002,1.0031280994888228,0.028503852903028815
1658789597073527,0.1222552834363313,0.9835965514610514,0.039124132143129486
1658789597089508,0.12530708781567146,0.9906767376211185,0.04449530785076661
1658789597105507,0.12018005645838059,0.9969024185549706,0.03729304951552592
1658789597121507,0.12481879911497629,0.9894560158693828,0.0357061112382695
1658789597137507,0.12616159304188646,0.9909208819714657,0.03558403906309593
1658789597153507,0.1193255512321656,0.9972686350804914,0.03704890516517878
1658789597169507,0.11663996337834703,0.9795681696803236,0.035095750362401645
1658789597185506,0.11895933470664488,0.9848172732127871,0.037537193865873064
1658789597201506,0.11725032425421489,0.9900663767452507,0.032410162508583085
1658789597217506,0.12628366521706003,0.9800564583810178,0.039002059967955915
1658789597233506,0.11725032425421489,0.99140917067216,0.033875028610665936
1658789597249506,0.12286564431219915,1.0214389257648584,0.035217822537575216
1658789597265505,0.12115663385976916,1.0005645838101778,0.030945296406500233
1658789597281505,0.12298771648737272,0.9762722209506371,0.029602502479590953
1658789597297505,0.12469672693980272,0.9778591592278936,0.03314259555962451
1658789597313505,0.12066834515907487,1.0038605325398642,0.03070115205615309
1658789597329505,0.11578545815213204,1.012161440451667,0.027649347676813818
1658789597345504,0.11883726253147131,0.9903105210955978,0.027283131151293105
1658789597361504,0.12664988174258074,0.9861600671396964,0.03350881208514522
1658789597377504,0.12603952086671288,0.9976348516060121,0.03924620431830306
1658789597393504,0.12408636606393486,1.0102082856488899,0.032532234683756656
1658789597409515,0.11956969558251274,0.9882352941176471,0.03265430685893023
1658789597425515,0.11590753032730561,0.9679713130388343,0.02777141985198739
1658789597441515,0.1251850156404979,0.9958037689784085,0.023620965896085977
1658789597457514,0.12262149996185201,1.0174105439841306,0.02398718242160669
1658789597473514,0.12188906691081058,0.9936064698252842,0.03045700770580595
1658789597489514,0.12835889219501073,0.9688258182650493,0.04095521477073305
1658789597505514,0.11529716945143775,0.9754177157244222,0.043030441748683756
1658789597521514,0.1146868085755699,0.9997100785839628,0.027038986800945963
1658789597537513,0.12567330434119217,1.0163118944075684,0.022156099794003126
1658789597553513,0.12408636606393486,0.9973907072556649,0.018127718013275285
1658789597569513,0.12079041733424845,0.973464560921645,0.024597543297474544
1658789597585513,0.12384222171358772,0.9676050965133136,0.03814755474174092
1658789597601513,0.11663996337834703,0.9965362020294499,0.04254215304798947
1658789597617512,0.11334401464866062,1.004226749065385,0.03595025558861664
1658789597633512,0.12018005645838059,0.9937285420004578,0.0289921416037231
1658789597649512,0.11920347905699202,0.9853055619134814,0.028747997253375956
1658789597665512,0.12835889219501073,0.9986114290074006,0.03704890516517878
1658789597681512,0.12005798428320702,0.9984893568322271,0.03326466773479808
1658789597697511,0.11334401464866062,0.9746852826733807,0.03924620431830306
1658789597713511,0.11261158159761919,0.9773708705271993,0.03204394598306237
1658789597729492,0.12115663385976916,1.003616388189517,0.02777141985198739
1658789597745492,0.12713817044327502,1.015579461356527,0.03350881208514522
1658789597761491,0.1176165407797356,0.9962920576791028,0.03448538948653379
1658789597777491,0.11358815899900776,0.9829861905851836,0.032410162508583085
1658789597793491,0.12005798428320702,0.9894560158693828,0.029846646829938095
1658789597809491,0.1205462729839013,0.9917753871976807,0.028870069428549527
1658789597825491,0.11700617990386775,1.0006866559853513,0.030212863355458808
1658789597841490,0.11517509727626418,1.00337224383917,0.028503852903028815
1658789597857490,0.11615167467765275,0.9994659342336156,0.033752956435492365
1658789597873490,0.1176165407797356,0.9895780880445564,0.03533989471274879
1658789597889490,0.11883726253147131,0.9831082627603571,0.03790341039139378
1658789597905490,0.11700617990386775,0.9784695201037614,0.03668268863965807
1658789597921489,0.10943770504310635,0.9912870984969864,0.03924620431830306
1658789597937489,0.10943770504310635,1.0077668421454185,0.036194399938963784
1658789597953489,0.11309987029831348,1.0093537804226749,0.03546196688792236
1658789597969489,0.11981383993285988,1.0132600900282291,0.037781338216220206
1658789597985489,0.12030212863355416,0.9950713359273671,0.03546196688792236
1658789598001488,0.11969176775768631,0.9865262836652171,0.03704890516517878
1658789598017488,0.10980392156862706,0.9859159227893493,0.03326466773479808
1658789598033488,0.1062638284885935,0.9950713359273671,0.03411917296101308
1658789598049499,0.1088273441672385,0.9990997177080949,0.03289845120927737
1658789598065499,0.12152285038528987,1.0049591821164263,0.03289845120927737
1658789598081499,0.12188906691081058,1.0105745021744106,0.03851377126726163
1658789598097499,0.11834897383077703,1.00166323338674,0.03839169909208806
1658789598113498,0.11798275730525631,0.9978789959563592,0.04058899824521234
1658789598129498,0.11639581902799989,0.9915312428473335,0.0386358434424352
1658789598145498,0.11371023117418133,0.9895780880445564,0.032410162508583085
1658789598161498,0.1146868085755699,0.9960479133287556,0.030945296406500233
1658789598177497,0.11444266422522276,1.005325398641947,0.021789883268482413
1658789598193497,0.11371023117418133,0.9916533150225071,0.0252079041733424
1658789598209497,0.12103456168459559,0.9761501487754636,0.03411917296101308
1658789598225497,0.1176165407797356,0.9826199740596628,0.03411917296101308
1658789598241497,0.11114671549553634,0.9997100785839628,0.03350881208514522
1658789598257496,0.1062638284885935,0.9911650263218128,0.025940337224383825
1658789598273496,0.11908140688181845,0.9864042114900435,0.02935835812924381
1658789598289496,0.12091248950942202,0.97944609750515,0.03216601815823594
1658789598305496,0.11627374685282632,0.9827420462348364,0.03692683299000521
1658789598321496,0.1176165407797356,0.9857938506141757,0.025818265049210254
1658789598337495,0.11859311818112417,0.9818875410086214,0.026916914625772392
1658789598353495,0.11993591210803345,0.9861600671396964,0.028870069428549527
1658789598369476,0.11822690165560346,0.9965362020294499,0.03399710078583951
1658789598385476,0.11065842679484206,0.9942168307011521,0.03558403906309593
1658789598401476,0.11273365377279276,0.9886015106431678,0.04046692607003877
1658789598417475,0.11419851987487561,0.990554665445945,0.03179980163271523
1658789598433475,0.12018005645838059,0.9932402532997635,0.03204394598306237
1658789598449475,0.11749446860456203,0.9843289845120928,0.02911421377889667
1658789598465475,0.11419851987487561,0.9964141298542764,0.0289921416037231
1658789598481475,0.11187914854657777,1.0017853055619135,0.030945296406500233
1658789598497474,0.1100480659189742,1.0023956664377813,0.033875028610665936
1658789598513474,0.11432059205004919,1.0043488212405585,0.03533989471274879
1658789598529474,0.1231097886625463,1.0071564812695506,0.037659266041046635
1658789598545474,0.1100480659189742,0.9955596246280614,0.039002059967955915
1658789598561473,0.1129777981231399,0.9967803463797971,0.03558403906309593
1658789598577473,0.1167620355535206,1.0128938735027084,0.026062409399557396
1658789598593473,0.11627374685282632,1.008743419546807,0.02679484245059882
1658789598609473,0.11615167467765275,1.008743419546807,0.034851606012054503
1658789598625473,0.11212329289692491,1.0059357595178149,0.0386358434424352
1658789598641472,0.11285572594796633,1.0017853055619135,0.03692683299000521
1658789598657472,0.11737239642938846,0.9939726863508049,0.03436331731136022
1658789598673472,0.12164492256046344,1.0021515220874342,0.033875028610665936
1658789598689483,0.10870527199206492,0.9939726863508049,0.03668268863965807
1658789598705483,0.10467689021133708,0.9848172732127871,0.040222781719691625
1658789598721483,0.10174715800717138,0.9878690775921264,0.042908369573510186
1658789598737483,0.11529716945143775,0.9906767376211185,0.04058899824521234
1658789598753482,0.11871519035629774,0.9887235828183414,0.04046692607003877
1658789598769482,0.11248950942244562,0.9835965514610514,0.038757915617608774
1658789598785482,0.1129777981231399,0.9807888914320593,0.04083314259555948
1658789598801482,0.11358815899900776,0.9867704280155642,0.039002059967955915
1658789598817482,0.11822690165560346,0.9876249332417792,0.04107728694590662
1658789598833481,0.11444266422522276,0.9870145723659114,0.03936827649347663
1658789598849481,0.10833905546654421,0.9840848401617457,0.0357061112382695
1658789598865481,0.11212329289692491,0.9805447470817121,0.04193179217212162
1658789598881481,0.1167620355535206,0.9982452124818799,0.03839169909208806
1658789598897481,0.12262149996185201,0.9999542229343099,0.03607232776379021
1658789598913480,0.11993591210803345,0.9827420462348364,0.03595025558861664
1658789598929480,0.1146868085755699,0.98628213931487,0.03790341039139378
1658789598945480,0.11725032425421489,1.0045929655909056,0.0386358434424352
1658789598961480,0.11407644769970204,0.9988555733577478,0.0394903486686502
1658789598977480,0.1146868085755699,0.9877470054169528,0.03448538948653379
1658789598993479,0.11224536507209848,0.9771267261768521,0.03338673990997165
1658789599009460,0.11224536507209848,0.9658960860608836,0.0386358434424352
1658789599025460,0.11541924162661132,0.9745632104982072,0.04119935912108019
1658789599041460,0.11065842679484206,0.9872587167162585,0.042908369573510186
1658789599057459,0.09906157015335282,1.0106965743495842,0.039002059967955915
1658789599073459,0.10724040588998207,1.021805142290379,0.03350881208514522
1658789599089459,0.11749446860456203,0.9865262836652171,0.036316472114137355
1658789599105459,0.11078049897001563,0.9688258182650493,0.0424200808728159
1658789599121459,0.10724040588998207,0.9784695201037614,0.03546196688792236
1658789599137458,0.10663004501411422,1.0099641412985427,0.03460746166170736
1658789599153458,0.11163500419623062,1.0237582970931562,0.030823224231326662
1658789599169458,0.11053635461966849,1.0163118944075684,0.029846646829938095
1658789599185458,0.10772869459067635,0.9926298924238957,0.023743038071259548
1658789599201458,0.1071183337148085,0.9855497062638285,0.03289845120927737
1658789599217457,0.11309987029831348,1.0109407186999313,0.03741512169069949
1658789599233457,0.11151293202105705,1.0280308232242312,0.03595025558861664
1658789599249457,0.10736247806515564,0.9872587167162585,0.03033493553063238
1658789599265457,0.10772869459067635,0.98115510795758,0.030945296406500233
1658789599281457,0.10553139543755208,1.0149691004806591,0.028625925078202386
1658789599297456,0.10809491111619707,1.0321812771801326,0.027527275501640247
1658789599313456,0.1033340962844278,0.9867704280155642,0.03350881208514522
1658789599329467,0.10138094148165067,0.970046540016785,0.04058899824521234
1658789599345467,0.10443274586098994,0.9887235828183414,0.04644846265354374
1658789599361467,0.1024795910582128,1.0071564812695506,0.03070115205615309
1658789599377467,0.11139085984588348,1.0050812542916,0.031189440756847375
1658789599393467,0.11114671549553634,0.9932402532997635,0.032288090333409514
1658789599409466,0.11139085984588348,0.9815213244831007,0.03985656519417091
1658789599425466,0.1062638284885935,0.9944609750514992,0.04058899824521234
1658789599441466,0.10589761196307279,1.0015411612115663,0.032410162508583085
1658789599457466,0.10455481803616351,0.9851834897383078,0.03302052338445094
1658789599473466,0.11212329289692491,0.9911650263218128,0.03350881208514522
1658789599489465,0.1088273441672385,1.0009308003356985,0.03289845120927737
1658789599505465,0.10821698329137064,1.0017853055619135,0.03314259555962451
1658789599521465,0.10638590066376707,0.9990997177080949,0.033752956435492365
1658789599537465,0.10736247806515564,0.9927519645990692,0.03851377126726163
1658789599553465,0.10406652933546923,1.0043488212405585,0.039124132143129486
1658789599569464,0.10943770504310635,1.0202182040131227,0.03973449301899734
1658789599585464,0.10748455024032921,1.0060578316929885,0.03729304951552592
1658789599601464,0.10589761196307279,0.9818875410086214,0.03717097734035235
1658789599617464,0.1117570763714042,0.9842069123369193,0.04205386434729519
1658789599633463,0.10431067368581637,1.011306935225452,0.03729304951552592
1658789599649444,0.1079728389410235,1.0135042343785763,0.037781338216220206
1658789599665444,0.10016021972991496,0.9889677271686885,0.03741512169069949
1658789599681444,0.10650797283894065,0.9872587167162585,0.04461738002594018
1658789599697444,0.1117570763714042,1.010452429999237,0.043030441748683756
1658789599713443,0.11224536507209848,1.0274204623483634,0.03533989471274879
1658789599729443,0.1138323033493549,0.9890897993438621,0.0327763790341038
1658789599745443,0.10601968413824636,0.970901045243,0.045349813076981604
1658789599761443,0.10968184939345349,0.9873807888914321,0.04461738002594018
1658789599777443,0.10589761196307279,0.9975127794308385,0.04132143129625376
1658789599793442,0.11346608682383419,0.9976348516060121,0.04498359655146089
1658789599809442,0.11773861295490917,0.9942168307011521,0.0508430609597923
1658789599825442,0.12237735561150487,0.9983672846570535,0.05877775234607441
1658789599841442,0.1146868085755699,0.9929961089494164,0.06829938200961294
1658789599857442,0.11053635461966849,0.9950713359273671,0.06695658808270366
1658789599873441,0.12323186083771986,1.0240024414435034,0.06903181506065437
1658789599889441,0.10931563286793278,1.0108186465247577,0.062439917601281536
1658789599905441,0.10382238498512208,0.9632104982070651,0.05560387579156156
1658789599921441,0.09137102311741785,0.9368429083695737,0.05157549401083372
1658789599937440,0.08624399176012787,0.9379415579461359,0.05413900968947871
1658789599953440,0.09588769359883997,0.9754177157244222,0.06610208285648866
1658789599969452,0.10406652933546923,1.0259555962462805,0.06842145418478651
1658789599985451,0.1109025711451892,1.0240024414435034,0.06463721675440581
1658789600001451,0.10028229190508853,0.9732204165712979,0.058533607995727266
1658789600017451,0.10601968413824636,0.9513694972152287,0.0701304646372165
1658789600033451,0.10284580758373352,1.0039826047150378,0.06195162890058725
1658789600049450,0.11261158159761919,1.0493934538796061,0.04632639047837017
1658789600065450,0.11358815899900776,1.0072785534447242,0.04132143129625376
1658789600081450,0.11029221026932134,0.9842069123369193,0.03668268863965807
1658789600097450,0.11444266422522276,1.0069123369192035,0.03143358510719452
1658789600113450,0.11725032425421489,1.0148470283054856,0.029846646829938095
1658789600129449,0.12201113908598415,1.0274204623483634,0.03448538948653379
1658789600145449,0.11346608682383419,1.0023956664377813,0.03204394598306237
1658789600161449,0.12127870603494273,0.9916533150225071,0.02679484245059882
1658789600177449,0.11639581902799989,0.9918974593728542,0.01886015106431671
1658789600193449,0.12738231479362216,1.0137483787289234,0.03668268863965807
1658789600209448,0.11444266422522276,1.027542534523537,0.03399710078583951
1658789600225448,0.11346608682383419,0.9997100785839628,0.02777141985198739
1658789600241448,0.11334401464866062,0.9595483329518579,0.02252231631952384
1658789600257448,0.1259174486915393,0.97261005569543,0.03741512169069949
1658789600273448,0.12372014953841415,1.0135042343785763,0.037537193865873064
1658789600289428,0.11358815899900776,1.0077668421454185,0.03448538948653379
1658789600305428,0.10846112764171778,0.9799343862058443,0.033630884260318794
1658789600321428,0.11187914854657777,0.9724879835202564,0.034973678187228074
1658789600337428,0.12030212863355416,0.9931181811245899,0.04852368963149445
1658789600353428,0.11126878767070991,0.9997100785839628,0.044129091325245895
1658789600369427,0.11737239642938846,0.9967803463797971,0.04510566872663446
1658789600385427,0.11505302510109061,0.9759060044251164,0.038879987792782345
1658789600401427,0.12994583047226715,0.9699244678416115,0.045471885252155175
1658789600417427,0.13116655222400286,1.0049591821164263,0.055848020141908705
1658789600433426,0.11517509727626418,1.013015945677882,0.04571602960250232
1658789600449426,0.11663996337834703,0.9680933852140079,0.04766918440527945
1658789600465426,0.11126878767070991,0.9538109407187001,0.046570534828717314
1658789600481426,0.12579537651636574,1.0094758525978484,0.04779125658045302
1658789600497426,0.12872510872053144,1.027542534523537,0.04510566872663446
1658789600513425,0.12774853131914288,0.9910429541466392,0.05902189669642155
1658789600529425,0.12188906691081058,0.9542992294193944,0.06414892805371153
1658789600545425,0.12042420080872773,0.9755397878995957,0.06073090714885154
1658789600561425,0.1255512321660186,1.0006866559853513,0.04974441138323016
1658789600577425,0.11700617990386775,1.0124055848020141,0.048035400930800165
1658789600593424,0.11944762340733917,0.9754177157244222,0.053772793163958
1658789600609436,0.11871519035629774,0.9456321049820708,0.06695658808270366
1658789600625435,0.12042420080872773,1.0026398107881285,0.06475928892957938
1658789600641435,0.12628366521706003,1.0348668650339512,0.05804531929503298
1658789600657435,0.11969176775768631,0.9699244678416115,0.05365072098878443
1658789600673435,0.11651789120317346,0.954421301594568,0.062317845426107965
1658789600689435,0.1184710460059506,0.9899443045700771,0.06463721675440581
1658789600705434,0.10687418936446136,1.0022735942626078,0.06170748455024011
1658789600721434,0.11309987029831348,0.9939726863508049,0.05255207141222229
1658789600737434,0.11224536507209848,0.97773708705272,0.05413900968947871
1658789600753434,0.1343404287785157,0.9882352941176471,0.059632257572289404
1658789600769434,0.12298771648737272,1.008743419546807,0.060975051499198685
1658789600785433,0.11566338597695847,0.9966582742046235,0.05938811322194226
1658789600801433,0.11102464332036277,0.9800564583810178,0.05548180361638799
1658789600817433,0.11493095292591704,0.9824979018844893,0.05413900968947871
1658789600833433,0.1193255512321656,1.0041046768902113,0.05499351491569371
1658789600849433,0.12359807736324058,1.0122835126268406,0.05023270008392444
1658789600865432,0.12103456168459559,0.9859159227893493,0.050720988784618726
1658789600881432,0.12481879911497629,0.9696803234912643,0.06182955672541368
1658789600897432,0.1184710460059506,0.9892118715190357,0.05926604104676869
1658789600913432,0.11602960250247918,1.0045929655909056,0.05389486533913157
1658789600929412,0.12018005645838059,1.011306935225452,0.050720988784618726
1658789600945412,0.12103456168459559,0.9980010681315328,0.049134050507362304
1658789600961412,0.12689402609292788,0.9752956435492486,0.05535973144121442
1658789600977412,0.1167620355535206,0.97602807660029,0.06073090714885154
1658789600993412,0.11065842679484206,0.9958037689784085,0.055970092317082276
1658789601009411,0.1167620355535206,0.9964141298542764,0.05352864881361086
1658789601025411,0.11163500419623062,0.9801785305561914,0.05169756618600729
1658789601041411,0.11432059205004919,0.9921416037232014,0.05389486533913157
1658789601057411,0.11505302510109061,1.0108186465247577,0.0567025253681237
1658789601073411,0.11895933470664488,1.0063019760433356,0.05401693751430514
1658789601089410,0.12262149996185201,0.97431906614786,0.057068741893644415
1658789601105410,0.1184710460059506,0.9859159227893493,0.06195162890058725
1658789601121410,0.11212329289692491,1.0000762951094835,0.050720988784618726
1658789601137410,0.10858319981689135,0.9980010681315328,0.04852368963149445
1658789601153410,0.11261158159761919,0.9893339436942092,0.04888990615701516
1658789601169409,0.1214007782101163,0.9994659342336156,0.05242999923704872
1658789601185409,0.1155413138017849,1.012161440451667,0.0575570305943387
1658789601201409,0.11712825207904132,1.0127718013275349,0.05487144274052014
1658789601217409,0.11041428244449492,0.9866483558403907,0.052063782711528006
1658789601233409,0.1205462729839013,0.9856717784390021,0.05389486533913157
1658789601249420,0.12115663385976916,1.0153353170061798,0.05145342183566015
1658789601265420,0.10907148851758564,0.9922636758983749,0.05218585488670158
1658789601281419,0.10296787975890709,0.9865262836652171,0.052918287937743
1658789601297419,0.10699626153963493,1.0026398107881285,0.0508430609597923
1658789601313419,0.12030212863355416,1.0049591821164263,0.05133134966048658
1658789601329419,0.11651789120317346,0.9972686350804914,0.06036469062333083
1658789601345419,0.11773861295490917,1.0060578316929885,0.060975051499198685
1658789601361418,0.11114671549553634,0.9821316853589686,0.058533607995727266
1658789601377418,0.11126878767070991,0.97602807660029,0.05279621576256943
1658789601393418,0.10785076676584993,0.9865262836652171,0.05011062790875087
1658789601409418,0.11248950942244562,0.9943389028763256,0.057190814068817986
1658789601425418,0.1024795910582128,0.9881132219424735,0.057190814068817986
1658789601441417,0.11236743724727205,0.9783474479285879,0.06121919584954583
1658789601457417,0.11200122072175134,0.9944609750514992,0.06329442282749653
1658789601473417,0.11895933470664488,1.005325398641947,0.06280613412680225
1658789601489417,0.11615167467765275,0.9971465629053178,0.05279621576256943
1658789601505416,0.11114671549553634,0.98457312886244,0.05401693751430514
1658789601521416,0.10748455024032921,0.9960479133287556,0.05645838101777656
1658789601537416,0.11163500419623062,1.0191195544365605,0.04876783398184159
1658789601553416,0.11285572594796633,1.0056916151674677,0.051941710536354435
1658789601569397,0.1146868085755699,0.9817654688334478,0.05658045319295013
1658789601585396,0.11407644769970204,0.9954375524528878,0.05474937056534657
1658789601601396,0.11480888075074347,1.0081330586709392,0.05279621576256943
1658789601617396,0.11969176775768631,1.0142366674296177,0.05011062790875087
1658789601633396,0.11480888075074347,0.9938506141756314,0.04864576180666802
1658789601649396,0.1117570763714042,0.9878690775921264,0.06146334019989297
1658789601665395,0.11017013809414777,1.0083772030212863,0.05816739147020655
1658789601681395,0.10870527199206492,1.0144808117799649,0.054627298390172996
1658789601697395,0.11200122072175134,0.9894560158693828,0.05267414358739586
1658789601713395,0.1109025711451892,0.9591821164263372,0.061097123674372256
1658789601729395,0.11273365377279276,0.9608911268787672,0.0663462272068358
1658789601745394,0.10589761196307279,0.9917753871976807,0.06402685587853796
1658789601761394,0.10736247806515564,1.0187533379110398,0.05889982452124798
1658789601777394,0.1129777981231399,1.0082551308461127,0.05035477225909801
1658789601793394,0.11798275730525631,0.990554665445945,0.06036469062333083
1658789601809394,0.10955977721827992,0.9835965514610514,0.060975051499198685
1658789601825393,0.10724040588998207,0.9759060044251164,0.06549172198062081
1658789601841393,0.10553139543755208,0.9645532921339743,0.0659800106813151
1658789601857393,0.10138094148165067,0.9789578088044557,0.05816739147020655
1658789601873393,0.11432059205004919,1.0141145952544441,0.053040360112916574
1658789601889404,0.11126878767070991,1.0197299153124284,0.04901197833218873
1658789601905404,0.11908140688181845,0.98628213931487,0.05999847409781012
1658789601921404,0.12298771648737272,0.9990997177080949,0.0659800106813151
1658789601937403,0.11627374685282632,1.0005645838101778,0.06146334019989297
1658789601953403,0.11432059205004919,0.9923857480735485,0.058411535820553695
1658789601969403,0.1050431067368578,0.9893339436942092,0.04864576180666802
1658789601985403,0.11065842679484206,0.9884794384679942,0.046570534828717314
1658789602001402,0.10284580758373352,1.000198367284657,0.046814679179064456
1658789602017402,0.11102464332036277,1.0030060273136492,0.05365072098878443
1658789602033402,0.11578545815213204,0.9826199740596628,0.06317235065232296
1658789602049402,0.11029221026932134,0.9927519645990692,0.06646829938200938
1658789602065402,0.11334401464866062,1.0128938735027084,0.058533607995727266
1658789602081401,0.11529716945143775,1.0137483787289234,0.04718089570458517
1658789602097401,0.11688410772869418,0.9973907072556649,0.05108720531013944
1658789602113401,0.10382238498512208,0.9765163653009843,0.056946669718470844
1658789602129401,0.10308995193408066,0.9745632104982072,0.056946669718470844
1658789602145401,0.09930571450369996,0.9867704280155642,0.05658045319295013
1658789602161400,0.10553139543755208,0.9966582742046235,0.05743495841916513
1658789602177400,0.11346608682383419,1.0150911726558327,0.05560387579156156
1658789602193400,0.11956969558251274,1.0086213473716334,0.05487144274052014
1658789602209381,0.11505302510109061,0.9867704280155642,0.062317845426107965
1658789602225381,0.1138323033493549,0.97944609750515,0.062439917601281536
1658789602241380,0.11126878767070991,0.9943389028763256,0.05682459754329727
1658789602257380,0.10186923018234495,0.9970244907301442,0.05426108186465228
1658789602273380,0.10833905546654421,0.9920195315480278,0.05169756618600729
1658789602289380,0.10772869459067635,0.99140917067216,0.05169756618600729
1658789602305379,0.11505302510109061,0.9856717784390021,0.05792324711985941
1658789602321379,0.11969176775768631,0.9873807888914321,0.06756694895857152
1658789602337379,0.1091935606927592,0.9993438620584421,0.06280613412680225
1658789602353379,0.11139085984588348,0.9950713359273671,0.05487144274052014
1658789602369379,0.11798275730525631,0.9967803463797971,0.045349813076981604
1658789602385378,0.11407644769970204,0.9922636758983749,0.05279621576256943
1658789602401378,0.11187914854657777,0.9806668192568857,0.054505226214999425
1658789602417378,0.10528725108720494,0.9970244907301442,0.05804531929503298
1658789602433378,0.10894941634241206,1.0005645838101778,0.05523765926604085
1658789602449378,0.1155413138017849,1.0098420691233692,0.05145342183566015
1658789602465377,0.11419851987487561,0.9917753871976807,0.05401693751430514
1658789602481377,0.11212329289692491,0.9859159227893493,0.058289463645380124
1658789602497377,0.10870527199206492,0.9950713359273671,0.05523765926604085
1658789602513377,0.10650797283894065,1.0132600900282291,0.053406576638437286
1658789602529388,0.11786068513008274,1.0166781109330891,0.05157549401083372
1658789602545388,0.11602960250247918,1.0122835126268406,0.05157549401083372
1658789602561388,0.11566338597695847,1.0126497291523613,0.053162432288090145
1658789602577387,0.11346608682383419,0.9839627679865721,0.05682459754329727
1658789602593387,0.10858319981689135,1.0012970168612192,0.05780117494468584
1658789602609387,0.10992599374380063,1.0242465857938505,0.05621423666742942
1658789602625387,0.11969176775768631,1.022415503166247,0.06024261844815726
1658789602641387,0.1155413138017849,1.0088654917219806,0.05865568017090084
1658789602657386,0.12005798428320702,1.0222934309910734,0.06158541237506654
1658789602673386,0.11737239642938846,1.0163118944075684,0.060975051499198685
1658789602689386,0.1117570763714042,0.9906767376211185,0.06182955672541368
1658789602705386,0.11578545815213204,1.0047150377660792,0.05792324711985941
1658789602721386,0.11419851987487561,1.0114290074006256,0.04754711223010588
1658789602737385,0.12567330434119217,0.9903105210955978,0.054383154039825854
1658789602753385,0.11541924162661132,1.0004425116350042,0.05865568017090084
1658789602769385,0.12237735561150487,0.9868925001907378,0.06036469062333083
1658789602785385,0.11810482948042988,0.9840848401617457,0.05389486533913157
1658789602801385,0.12115663385976916,0.9798123140306707,0.04827954528114731
1658789602817384,0.12872510872053144,0.942458228427558,0.04779125658045302
1658789602833384,0.12823682001983716,0.9315938048371102,0.06366063935301725
1658789602849395,0.11541924162661132,0.948439765011063,0.06903181506065437
1658789602865395,0.13006790264744073,0.9964141298542764,0.07403677424277078
1658789602881395,0.1251850156404979,0.98457312886244,0.07208361943999364
1658789602897395,0.13702601663233427,0.9583276112001222,0.07696650644693648
1658789602913395,0.14679179064621994,0.9879911497673,0.07745479514763076
1658789602929394,0.13739223315785498,0.9790798809796293,0.06976424811169579
1658789602945394,0.1343404287785157,0.9490501258869308,0.0726939803158615
1658789602961394,0.12957961394674644,0.9601586938277258,0.0651255054551001
1658789602977394,0.1284809643701843,0.9864042114900435,0.05621423666742942
1658789602993394,0.12872510872053144,0.9945830472266728,0.049256122682535874
1658789603009393,0.13311970702678,0.9831082627603571,0.05938811322194226
1658789603025393,0.13238727397573857,0.9878690775921264,0.06829938200961294
1658789603041393,0.13250934615091214,0.9927519645990692,0.07086289768825793
1658789603057393,0.13263141832608571,1.0041046768902113,0.0663462272068358
1658789603073392,0.13165484092469715,1.0203402761882963,0.0604867627985044
1658789603089392,0.14264133669031853,1.0511024643320361,0.053162432288090145
1658789603105392,0.14142061493858282,1.0404821850919355,0.05474937056534657
1658789603121392,0.13153276874952358,1.008743419546807,0.05108720531013944
1658789603137392,0.12921339742122573,0.9964141298542764,0.055970092317082276
1658789603153391,0.12005798428320702,1.0194857709620813,0.04827954528114731
1658789603169372,0.11956969558251274,1.0340123598077362,0.046814679179064456
1658789603185372,0.12738231479362216,1.030960555428397,0.05951018539711583
1658789603201372,0.1398336766613264,1.0546425574120697,0.07208361943999364
1658789603217372,0.13788052185854927,1.053421835660334,0.07757686732280433
1658789603233371,0.14642557412069923,1.0572060730907147,0.0802624551766229
1658789603249371,0.13495078965438356,1.0412146181429769,0.06256198977645511
1658789603265371,0.15045395590142707,1.0193636987869077,0.06292820630197582
1658789603281371,0.1494773785000385,1.0441443503471426,0.07147325856412579
1658789603297371,0.14056610971236783,1.0805218585488667,0.07306019684138221
1658789603313370,0.16144045166704846,1.107743953612573,0.07623407339589505
1658789603329370,0.16534676127260273,1.0700236514839396,0.0764782177462422
1658789603345370,0.17999542229343124,1.0439002059967954,0.08050659952697004
1658789603361370,0.16864271000228914,1.0543984130617226,0.05877775234607441
1658789603377370,0.1604638742656599,1.0364538033112076,0.04962233920805659
1658789603393369,0.15350576028076635,1.018997482261387,0.044007019150072324
1658789603409369,0.15387197680628706,1.0209506370641641,0.045593957427328746
1658789603425369,0.15887693598840347,1.0071564812695506,0.05474937056534657
1658789603441369,0.16766613260090057,1.014724956130312,0.0651255054551001
1658789603457368,0.19208056763561476,1.0251010910200655,0.07403677424277078
1658789603473368,0.21649500267032895,1.0143587396047913,0.08221560997940003
1658789603489380,0.2293125810635539,1.0219272144655527,0.08014038300144932
1658789603505379,0.2243076218814375,1.0192416266117341,0.08221560997940003
1658789603521379,0.2267490653849089,0.9933623254749371,0.08538948653391287
1658789603537379,0.23358510719462888,1.0054474708171206,0.08477912565804502
1658789603553379,0.24628061341268026,1.0052033264667735,0.09246967269397999
1658789603569378,0.24884412909132525,1.0077668421454185,0.09918364232852639
1658789603585378,0.2456702525368124,1.00166323338674,0.08941786831464071
1658789603601378,0.27020675974670016,0.9912870984969864,0.09784084840161711
1658789603617378,0.2680094605935759,0.9772487983520257,0.0945448996719307
1658789603633378,0.276798657206073,0.9953154802777142,0.09271381704432713
1658789603649377,0.27862973983367656,1.0058136873426413,0.08929579613946714
1658789603665377,0.28619821469443796,0.9915312428473335,0.10833905546654421
1658789603681377,0.28912794689860366,0.9650415808346686,0.11432059205004919
1658789603697377,0.30646219577325073,0.9597924773022051,0.12835889219501073
1658789603713377,0.3239185168230714,1.0066681925688563,0.12945754177157287
1658789603729376,0.3300221255817499,1.009597924773022,0.14203097581445068
1658789603745376,0.343938353551537,1.0037384603646906,0.1482566567483028
1658789603761376,0.34369420920118987,0.9855497062638285,0.14471656366826924
1658789603777376,0.3452811474784463,0.9636987869077593,0.14032196536202068
1658789603793376,0.35309376668955483,0.930495155260548,0.1456931410696578
1658789603809356,0.36139467460135766,0.9362325474937059,0.14898908979934422
1658789603825356,0.3812924391546506,0.9419699397268637,0.1477683680476085
1658789603841356,0.3917906462195777,0.9273212787060352,0.16070801861600703
1658789603857356,0.39911497672999197,0.9016861219195853,0.15545891508354348
1658789603873355,0.42389562829022687,0.9204852368963152,0.1642481116960406
1658789603889355,0.4406195162890061,0.9383077744716566,0.16607919432364415
1658789603905355,0.43866636148622895,0.9019302662699324,0.19220263981078833
1658789603921355,0.45136186770428033,0.8681162737468524,0.1847562371252005
1658789603937355,0.4476997024490732,0.861402304112306,0.18963912413214334
1658789603953354,0.4774853131914245,0.8714122224765388,0.19549858854047475
1658789603969354,0.4934767681391623,0.8911879148546582,0.18548867017624193
1658789603985354,0.5094682230869001,0.8629892423895624,0.1768215457389184
1658789604001354,0.5043411917296101,0.8384527351796747,0.16656748302433844
1658789604017354,0.4867627985046159,0.8339360646982525,0.16229495689326345
1658789604033353,0.49066910811017017,0.8087891966124969,0.1780422674906541
1658789604049353,0.5136186770428015,0.7948729686427098,0.17999542229343124
1658789604065353,0.5319295033188371,0.8061036087586784,0.17792019531548053
1658789604081353,0.5429159990844585,0.8047608148317691,0.202822919050889
1658789604097353,0.5803921568627448,0.8422369726100554,0.21356527046616325
1658789604113352,0.601388570992599,0.8805676356145575,0.20636301213092256
1658789604129364,0.6063935301747154,0.8262455176623176,0.20648508430609613
1658789604145363,0.6181124589913782,0.7599603265430686,0.2313878080415046
1658789604161363,0.6210421911955439,0.8051270313572898,0.22394140535591678
1658789604177363,0.6289768825818269,0.8061036087586784,0.2296787975890746
1658789604193363,0.6416723887998783,0.7260242618448158,0.21942473487449465
1658789604209363,0.6250705729762727,0.7006332494087131,0.22186617837796607
1658789604225362,0.6306858930342569,0.7575188830395971,0.2356603341725796
1658789604241362,0.6387426565957126,0.768383306630045,0.22149996185244536
1658789604257362,0.6518043793392847,0.6779278248264289,0.22198825055313964
1658789604273362,0.6793926909285117,0.6717021438925768,0.2692301823453116
1658789604289362,0.6950179293507288,0.7343251697566187,0.2667887388418402
1658789604305361,0.6975814450293738,0.7014877546349281,0.2683756771190966
1658789604321361,0.7078355077439538,0.6258030060273141,0.26434729533836876
1658789604337361,0.707469291218433,0.6081025406271454,0.27496757457846943
1658789604353361,0.742748149843595,0.6697489890897996,0.2976729991607536
1658789604369361,0.7442130159456779,0.681589990081636,0.28033875028610655
1658789604385360,0.7302967879758908,0.5581750209811549,0.2871747920958265
1658789604401360,0.7403067063401236,0.4569771877622646,0.30597390707255645
1658789604417360,0.7339589532310979,0.5176470588235293,0.30426489662012646
1658789604433360,0.7542229343099107,0.6193331807431139,0.2888838025482565
1658789604449340,0.7688715953307392,0.5358358129243914,0.27997253376058584
1658789604465340,0.7812008850232699,0.42609292744335114,0.30890363927672215
1658789604481340,0.779736018921187,0.4086366063935305,0.3220874341954678
1658789604497340,0.7520256351567864,0.387151903562982,0.3377126726176849
1658789604513340,0.7645990691996642,0.44916456855115605,0.3208667124437321
1658789604529339,0.8023193713282977,0.43866636148622895,0.3277027542534521
1658789604545339,0.8231937132829783,0.42352941176470615,0.32867933165484065
1658789604561339,0.8396734569314104,0.33966582742046203,0.32819104295414636
1658789604577339,0.8256351567864497,0.2857099259937437,0.3468680857557027
1658789604593339,0.8129396505683983,0.33112077515831206,0.32074464026855853
1658789604609338,0.8214847028305483,0.3024338139925229,0.31403067063401213
1658789604625338,0.8546883344777596,0.31598382543678927,0.3367360952162963
1658789604641338,0.8437018387121382,0.26068513008316163,0.32281986724650924
1658789604657338,0.8373540856031125,0.18670939192797764,0.34259555962462773
1658789604673338,0.8292973220416568,0.19012741283283763,0.34003204394598274
1658789604689337,0.8479743648432132,0.20978103303578255,0.3347829404135192
1658789604705337,0.8655527580682074,0.2840009155413137,0.3338063630121306
1658789604721337,0.8646982528419924,0.19208056763561476,0.3363698786907756
1658789604737337,0.875318532082094,0.0663462272068358,0.34845502403295914
1658789604753337,0.8687266346227203,0.07574578469520077,0.3695735103379869
1658789604769348,0.8540779736018917,0.18780804150453978,0.3788509956511792
1658789604785348,0.866529335469596,0.20306706340123615,0.37103837644006976
1658789604801347,0.8909437705043111,0.20502021820401328,0.3585870145723655
1658789604817347,0.9110856794079503,0.15436026550698134,0.36688792248416835
1658789604833347,0.895216296635386,0.09906157015335282,0.37897306782635276
1658789604849347,0.9087663080796524,0.12091248950942202,0.388006408789197
1658789604865347,0.8953383688105596,0.13153276874952358,0.389715419241627
1658789604881346,0.8595712214847024,0.07135118638895221,0.39996948195620696
1658789604897346,0.8419928282597082,0.03607232776379021,0.39618524452582626
1658789604913346,0.8590829327840082,0.05816739147020655,0.3998474097810334
1658789604929346,0.8948500801098653,0.13934538796063212,0.38788433661402344
1658789604945346,0.8958266575112539,0.09185931181811213,0.389715419241627
1658789604961345,0.8997329671168082,0.03204394598306237,0.4146181429770355
1658789604977345,0.8915541313801789,0.038757915617608774,0.44745555809872606
1658789604993345,0.8942397192339975,0.11969176775768631,0.4376897840848404
1658789605009345,0.9168230716411081,0.13836881055924355,0.432684824902724
1658789605025344,0.9185320820935381,0.11114671549553634,0.40973525597009264
1658789605041344,0.9214618142977038,0.011779964904249596,0.41132219424734906
1658789605057344,0.9057145037003131,-0.04852368963149445,0.4262149996185247
1658789605073344,0.8810559243152518,-0.028259708552681673,0.43231860837720326
1658789605089325,0.8616464484626531,0.0021362630655374915,0.40460822461280266
1658789605105324,0.8861829556725418,-0.0025024795910582043,0.3859311818112463
1658789605121324,0.916578927290761,0.05499351491569371,0.39630731670099983
1658789605137324,0.9068131532768753,0.020935378042267416,0.39288929579613985
1658789605153324,0.8806897077897311,-0.053162432288090145,0.4213321126115819
1658789605169324,0.8720225833524067,-0.05133134966048658,0.44867627985046177
1658789605185323,0.8853284504463268,0.029968719005111666,0.4358587014572368
1658789605201323,0.8866712443732361,-0.004943923094529623,0.41181048294804334
1658789605217323,0.9158464942397195,-0.06158541237506654,0.4110780498970019
1658789605233323,0.918287937743191,-0.09027237354085615,0.4146181429770355
1658789605249323,0.8826428625925082,-0.1383688105592431,0.423285267414359
1658789605265322,0.8581063553826196,-0.08221560997940047,0.44293888761730393
1658789605281322,0.8766613260090033,0.02777141985198739,0.4220645456626233
1658789605297322,0.8799572747386897,0.012024109254596738,0.4103456168459605
1658789605313322,0.914869916838331,-0.0657358663309684,0.4330510414282447
1658789605329321,0.9109636072327767,-0.14068818188754095,0.4484321355001146
1658789605345321,0.8773937590600447,-0.14789044022278164,0.4784618905928131
1658789605361321,0.8455329213397418,-0.1535057602807659,0.4627145799954224
1658789605377321,0.8357671473258561,-0.15631342030975803,0.44110780498970037
1658789605393321,0.8670176241702903,-0.14068818188754095,0.41644922560463904
1658789605409332,0.8765392538338297,-0.14837872892347592,0.4540474555580989
1658789605425332,0.8709239337758445,-0.09112687876707115,0.461982146944381
1658789605441331,0.8515144579232468,-0.11602960250247962,0.4732127870603495
1658789605457331,0.8660410467689017,-0.1362935835812924,0.4728465705348288
1658789605473331,0.8755626764324411,-0.18731975280384505,0.4813916227969788
1658789605489331,0.8780041199359125,-0.23443961242084388,0.4846875715266652
1658789605505331,0.8480964370183868,-0.30353246356908503,0.4740672922865645
1658789605521330,0.8341802090485997,-0.24798962386511025,0.4779736018921188
1658789605537330,0.8375982299534597,-0.11895933470664533,0.4549019607843139
1658789605553330,0.826123445487144,-0.13385214007782098,0.4561226825360496
1658789605569330,0.840650034332799,-0.18829633020523406,0.46344701304646385
1658789605585330,0.8371099412527654,-0.24249637598229956,0.48285648889906163
1658789605601329,0.8478522926680396,-0.28912794689860366,0.49994659342336156
1658789605617329,0.8505378805218582,-0.2709391927977416,0.49445334554055087
1658789605633329,0.8408941786831461,-0.2890058747234301,0.4702830548561838
1658789605649329,0.8231937132829783,-0.3226977950713361,0.44330510414282465
1658789605665329,0.8347905699244675,-0.3189135576409554,0.46674296177615027
1658789605681328,0.8364995803768975,-0.22369726100556964,0.49713893339436943
1658789605697328,0.826123445487144,-0.25384908827344166,0.49542992294193944
1658789605713328,0.8117189288166626,-0.34149691004806604,0.5098344396124208
1658789605729309,0.8307621881437397,-0.3764095521477073,0.5230182345311665
1658789605745309,0.8396734569314104,-0.36078431372549025,0.5344930189974821
1658789605761308,0.833813992523079,-0.3501640344853896,0.5177691309987029
1658789605777308,0.8352788586251618,-0.3689631494621195,0.5191119249256122
1658789605793308,0.8198977645532919,-0.3643244068055238,0.5344930189974821
1658789605809308,0.7946288242923627,-0.3749446860456245,0.54706645304036
1658789605825307,0.7887693598840313,-0.3471122301060503,0.5486533913176164
1658789605841307,0.7907225146868084,-0.3631036850537881,0.5487754634927899
1658789605857307,0.8108644235904476,-0.3816586556801709,0.5468223086900128
1658789605873307,0.8001220721751734,-0.3781185626001373,0.5366903181506064
1658789605889307,0.786572060730907,-0.34393835355153746,0.542793926909285
1658789605905306,0.7846189059281299,-0.32721446555275824,0.5401083390554664
1658789605921306,0.8040283817807277,-0.3529716945143817,0.5585412375066756
1658789605937306,0.7986572060730905,-0.3230640115968568,0.5460898756389714
1658789605953306,0.7969481956206605,-0.3335622186617839,0.5232623788815136
1658789605969306,0.7990234225986113,-0.3240405889982454,0.5322957198443579
1658789605985305,0.8155031662470433,-0.2804608224612801,0.5304646372167543
1658789606001305,0.8344243533989468,-0.27826352330815585,0.5370565346761271
1658789606017305,0.8361333638513768,-0.24969863431754025,0.5187457084000915
1658789606033305,0.8379644464789804,-0.24042114900434886,0.5018997482261387
1658789606049316,0.8472419317921718,-0.2171053635461968,0.49542992294193944
1658789606065316,0.8506599526970318,-0.22272068360418107,0.497261005569543
1658789606081316,0.8449225604638739,-0.23871213855191886,0.49494163424124515
1658789606097315,0.838941023880369,-0.23639276722362101,0.46344701304646385
1658789606113315,0.8423590447852289,-0.20611886778057542,0.4578316929884796
1658789606129315,0.8417486839093611,-0.16876478217746227,0.4447699702449075
1658789606145315,0.8454108491645682,-0.1745021744106201,0.4439154650186925
1658789606161315,0.8568856336308839,-0.18573281452658863,0.44074158846417966
1658789606177314,0.8734874494544895,-0.14056610971236738,0.455146105134661
1658789606193314,0.8776379034103918,-0.09759670405127041,0.47235828183413453
1658789606209314,0.8805676356145575,-0.11346608682383463,0.46894026092927454
1658789606225314,0.8836194399938968,-0.15619134813458446,0.46845197222858026
1658789606241314,0.8885023270008396,-0.13788052185854882,0.46051728084229815
1658789606257313,0.8896009765774018,-0.10370031280994896,0.4476997024490732
1658789606273313,0.8827649347676818,-0.07769893949797835,0.44281681544213036
1658789606289313,0.877882047760739,-0.05413900968947871,0.427557793545434
1658789606305313,0.8841077286945911,-0.07232776379034123,0.4271915770199133
1658789606321313,0.897779812314031,-0.08661020828564903,0.4430609597924775
1658789606337312,0.8966811627374689,-0.06732280460822482,0.43952086671244395
1658789606353312,0.8844739452201118,-0.03350881208514522,0.42230869001297044
1658789606369293,0.880445563439384,-0.029602502479590953,0.4052185854886705
1658789606385293,0.8941176470588239,-0.04083314259555948,0.40424200808728195
1658789606401292,0.9127946898603803,-0.035095750362401645,0.4060730907148855
1658789606417292,0.8925307087815675,-0.03179980163271523,0.4136415655756469
1658789606433292,0.8993667505912875,0.002990768291752488,0.42279697871366473
1658789606449292,0.8981460288395517,0.03814755474174092,0.41351949340047334
1658789606465292,0.9086442359044788,6.713969634546402E-4,0.4099794003204398
1658789606481291,0.9275654230563823,-0.0020141908903639205,0.40851453421835693
1658789606497291,0.9130388342107274,-0.02386511024643312,0.41803616388189546
1658789606513291,0.8985122453650725,-0.01617456321049815,0.42096589608606116
1658789606529291,0.8957045853360803,0.009094377050431035,0.40424200808728195
1658789606545291,0.9053482871747924,5.493247882810692E-4,0.3989929045548184
1658789606561290,0.8930189974822618,-0.014587624933241727,0.3977721828030827
1658789606577290,0.8936293583581296,0.01995880064087885,0.40582894636453837
1658789606593290,0.883009079118029,0.04632639047837017,0.4082703898680098
1658789606609290,0.8872816052491039,0.031189440756847375,0.41852445258258975
1658789606625290,0.897779812314031,0.00579842832074462,0.4245059891660947
1658789606641289,0.906324864576181,-0.006775005722133187,0.4304875257495997
1658789606657289,0.9081559472037846,0.06549172198062081,0.4237735561150533
1658789606673289,0.9043717097734039,0.10394445716029566,0.42279697871366473
1658789606689300,0.9120622568093388,0.07733272297245719,0.4279240100709547
1658789606705300,0.9120622568093388,0.04608224612802303,0.43952086671244395
1658789606721300,0.9073014419775696,0.10077058060578281,0.420721751735714
1658789606737300,0.8959487296864275,0.11212329289692491,0.428412298771649
1658789606753299,0.9031509880216682,0.1570458533607999,0.41596093690394476
1658789606769299,0.9036392767223624,0.10699626153963493,0.41596093690394476
1658789606785299,0.8892347600518811,0.08160524910353217,0.41132219424734906
1658789606801299,0.8953383688105596,0.12701609826810145,0.41522850385290333
1658789606817299,0.8867933165484096,0.18316929884794408,0.40009155413138053
1658789606833298,0.8805676356145575,0.14752422369726137,0.38666361486228773
1658789606849298,0.8832532234683761,0.11773861295490917,0.39044785229266843
1658789606865298,0.8815442130159461,0.13385214007782142,0.4074158846417948
1658789606881298,0.8856946669718475,0.20611886778057542,0.40924696726939835
1658789606897297,0.8815442130159461,0.21857022964827966,0.41058976119630763
1658789606913297,0.901197833218891,0.19305714503700333,0.4165712977798126
1658789606929297,0.9126726176852067,0.1599755855649656,0.41474021515220905
1658789606945297,0.9068131532768753,0.14142061493858282,0.4148622873273826
1658789606961297,0.8975356679636839,0.169253070878157,0.40375371938658766
1658789606977296,0.8872816052491039,0.22955672541390104,0.38995956359197415
1658789606993296,0.8822766460669875,0.22687113756008248,0.3742122529945826
1658789607009277,0.8815442130159461,0.1704737926298927,0.396551461051347
1658789607025277,0.8731212329289688,0.16388189517051988,0.4057068741893648
1658789607041277,0.8775158312352183,0.22211032272831321,0.3955748836499584
1658789607057276,0.8755626764324411,0.278507667658503,0.38776226443884987
1658789607073276,0.8756847486076147,0.25140764476997024,0.3867856870374613
1658789607089276,0.8802014190890368,0.20123598077363258,0.39044785229266843
1658789607105276,0.8805676356145575,0.20135805294880615,0.3969176775768677
1658789607121276,0.8799572747386897,0.27484550240329586,0.39545281147478484
1658789607137275,0.8797131303883425,0.32318608377202995,0.3661554894331269
1658789607153275,0.8853284504463268,0.24798962386511025,0.3670099946593419
1658789607169275,0.8853284504463268,0.20563057907988114,0.38104829480430347
1658789607185275,0.880445563439384,0.2658121614404516,0.3814145113298242
1658789607201274,0.861402304112306,0.31012436102845786,0.3729915312428469
1658789607217274,0.8657969024185546,0.3250171663996335,0.3645685511558705
1658789607233274,0.8693369954985881,0.26556801709010447,0.3460135805294877
1658789607249274,0.8744640268558781,0.2482337682154574,0.3478446631570913
1658789607265274,0.8701915007248031,0.2918135347524222,0.3418631265735863
1658789607281273,0.852857251850156,0.3327077134355685,0.3361257343404285
1658789607297273,0.862256809338521,0.3270923933775842,0.3432059205004956
1658789607313273,0.8758068207827883,0.3239185168230714,0.350774395361257
1658789607329284,0.8603036545357439,0.30548561837186217,0.33954375524528846
1658789607345284,0.8574959945067517,0.348210879682612,0.3367360952162963
1658789607361284,0.8478522926680396,0.4048523689631498,0.32867933165484065
1658789607377284,0.8533455405508503,0.37018387121385476,0.3200122072175171
1658789607393283,0.8582284275577932,0.3224536507209885,0.3268482490272371
1658789607409283,0.8560311284046689,0.3934996566720077,0.32526131074998066
1658789607425283,0.8313725490196076,0.41144426642252263,0.30609597924773
1658789607441283,0.8316166933699547,0.37689784084840205,0.2919356069275958
1658789607457283,0.8325932707713433,0.3838559548332956,0.30511940184634145
1658789607473282,0.8345464255741204,0.4673533226520181,0.310368505378805
1658789607489282,0.8129396505683983,0.47809567406729236,0.29462119478141435
1658789607505282,0.8119630731670098,0.4317082475013354,0.2796063172350651
1658789607521282,0.8147707331960019,0.4179140917067219,0.28925001907377723
1658789607537282,0.8155031662470433,0.4776073853665981,0.28204776073853655
1658789607553281,0.7982909895475698,0.54193942168307,0.27325856412603944
1658789607569281,0.8131837949187455,0.5276569771877622,0.2628824292362859
1658789607585281,0.8159914549477376,0.4557564660105289,0.2650797283894102
1658789607601281,0.8113527122911419,0.431830319676509,0.27948424505989156
1658789607617281,0.783154039826047,0.5885709925993741,0.2592202639810788
1658789607633280,0.76240177004654,0.6179903868162047,0.24811169604028382
1658789607649292,0.778881513694972,0.5739223315785456,0.242374303807126
1658789607665291,0.7984130617227434,0.48859388113221947,0.2516517891203174
1658789607681291,0.7715571831845578,0.5300984206912336,0.26276035706111234
1658789607697291,0.7451895933470665,0.6610818646524761,0.2444495307850767
1658789607713291,0.7421377889677272,0.6668192568856339,0.22040131227588322
1658789607729291,0.7614251926451514,0.560128175783932,0.21515220874341967
1658789607745290,0.7676508735790035,0.53681239032578,0.23675898374914173
1658789607761290,0.7337148088807508,0.6460669871061269,0.22186617837796607
1658789607777290,0.7149156939040209,0.7002670328831924,0.2179598687724118
1658789607793290,0.7183337148088809,0.6786602578774703,0.20856031128404684
1658789607809290,0.7400625619897765,0.6051728084229797,0.21100175478751826
1658789607825289,0.7282215609979401,0.6092011902037076,0.21551842526894038
1658789607841289,0.7188220035095751,0.730540932326238,0.21661707484550252
1658789607857289,0.6984359502555888,0.7548332951857786,0.2074616617074847
1658789607873289,0.7097886625467309,0.716014343480583,0.20941481651026184
1658789607889289,0.7132066834515909,0.6873273823147938,0.20233463035019472
1658789607905288,0.7058823529411766,0.6669413290608075,0.19879453727016116
1658789607921288,0.6924544136720838,0.7510490577553979,0.18829633020523406
1658789607937288,0.6803692683299003,0.815014877546349,0.17022964827954556
1658789607953288,0.7025864042114902,0.7472648203250172,0.15887693598840347
1658789607969268,0.7079575799191273,0.7158922713054094,0.17535667963683554
1658789607985268,0.6837872892347603,0.7614251926451514,0.18072785534447267
1658789608001268,0.6601052872510875,0.8056153200579841,0.16986343175402485
1658789608017268,0.6629129472800797,0.7660639353017471,0.15802243076218847
1658789608033268,0.6724345769436182,0.7114976729991609,0.1633936064698256
1658789608049267,0.6592507820248725,0.7346913862821394,0.16534676127260273
1658789608065267,0.6336156252384226,0.819287403677424,0.16107423514152774
1658789608081267,0.6338597695887698,0.8531013962005032,0.14129854276340925
1658789608097267,0.6555886167696654,0.7594720378423743,0.15423819333180777
1658789608113267,0.6593728542000461,0.7359121080338751,0.17035172045471914
1658789608129266,0.6461890592813004,0.8001220721751734,0.17059586480506628
1658789608145266,0.6269016556038762,0.8347905699244675,0.14544899671931066
1658789608161266,0.6433813992523083,0.7772945754177156,0.12359807736324058
1658789608177266,0.6415503166247047,0.7301747158007172,0.12249942778667844
1658789608193266,0.6242160677500568,0.7416495002670329,0.12506294346532432
1658789608209265,0.6085908293278397,0.8157473105973905,0.13299763485160643
1658789608225265,0.6084687571526661,0.8532234683756768,0.1193255512321656
1658789608241265,0.6138399328603033,0.758129243915465,0.11065842679484206
1658789608257265,0.6392309452964069,0.7193102922102694,0.12872510872053144
1658789608273265,0.6359349965667205,0.8021972991531241,0.13324177920195357
1658789608289276,0.603952086671244,0.8417486839093611,0.11602960250247918
1658789608305276,0.614206149385824,0.8146486610208283,0.10394445716029566
1658789608321275,0.6128633554589147,0.7544670786602579,0.10638590066376707
1658789608337275,0.6207980468451968,0.7578850995651178,0.11712825207904132
1658789608353275,0.6182345311665518,0.8373540856031125,0.1222552834363313
1658789608369275,0.5991912718394747,0.828686961165789,0.09222552834363285
1658789608385275,0.5990691996643012,0.7669184405279621,0.0747692072938122
1658789608401274,0.5917448691538869,0.7543450064850843,0.06829938200961294
1658789608417274,0.5897917143511098,0.75898374914168,0.06768902113374509
1658789608433274,0.5906462195773248,0.7796139467460135,0.0718394750896465
1658789608449274,0.5872281986724648,0.7992675669489584,0.0814831769283586
1658789608465273,0.5842984664682991,0.7940184634164948,0.09124895094224428
1658789608481273,0.5834439612420841,0.7833981841763942,0.09124895094224428
1658789608497273,0.5796597238117034,0.7728999771114671,0.08807507438773143
1658789608513273,0.5886930647745476,0.8412603952086668,0.11346608682383419
1658789608529273,0.5906462195773248,0.8819104295414668,0.10150301365682424
1658789608545272,0.5774624246585791,0.836377508201724,0.08746471351186358
1658789608561272,0.5844205386434727,0.793408102540627,0.07794308384832505
1658789608577272,0.5733119707026777,0.7744869153887235,0.07660028992141577
1658789608593272,0.556710154879072,0.8317387655451283,0.06939803158617508
1658789608609253,0.5403524834058135,0.8498054474708168,0.0663462272068358
1658789608625252,0.5280231937132829,0.840650034332799,0.04608224612802303
1658789608641252,0.53339436942092,0.7901121538109406,0.05389486533913157
1658789608657252,0.5423056382085907,0.816723887998779,0.07293812466620864
1658789608673252,0.5307087815671014,0.8834973678187232,0.0776989394979779
1658789608689252,0.5213092240787365,0.8773937590600447,0.06366063935301725
1658789608705251,0.5233844510566872,0.7956054016937513,0.06549172198062081
1658789608721251,0.5217975127794308,0.8122072175173569,0.06439307240405867
1658789608737251,0.5186236362249179,0.8849622339208061,0.06671244373235652
1658789608753251,0.5044632639047837,0.881300068665599,0.05938811322194226
1658789608769250,0.5027542534523537,0.8301518272678718,0.05792324711985941
1658789608785250,0.510933089188983,0.8277103837644004,0.06768902113374509
1658789608801250,0.5053177691309987,0.8548104066529332,0.0651255054551001
1658789608817250,0.48480964370183877,0.861402304112306,0.0604867627985044
1658789608833250,0.47895017929350736,0.8382085908293275,0.05951018539711583
1658789608849249,0.4652780956740674,0.8576180666819253,0.053772793163958
1658789608865249,0.465400167849241,0.8715342946517124,0.053406576638437286
1658789608881249,0.461982146944381,0.8640878919661246,0.05474937056534657
1658789608897249,0.4635690852216374,0.8792248416876483,0.05609216449225585
1658789608913249,0.46173800259403386,0.8832532234683761,0.05352864881361086
1658789608929260,0.467109178301671,0.8495613031204696,0.048035400930800165
1658789608945260,0.4514839398794539,0.8666514076447696,0.03167772945754166
1658789608961259,0.4539253833829253,0.8855725947966739,0.03216601815823594
1658789608977259,0.4342717631799804,0.9069352254520489,0.034851606012054503
1658789608993259,0.42938887617303756,0.9153582055390252,0.032410162508583085
1658789609009259,0.43439383535515397,0.8847180895704589,0.043030441748683756
1658789609025259,0.42523842221713615,0.879591058213169,0.02423132677195383
1658789609041258,0.422430762188144,0.8772716868848711,0.016784924086366004
1658789609057258,0.4132753490501262,0.9177996490424967,0.0109254596780346
1658789609073258,0.4090028229190512,0.9568627450980394,0.00323491264209963
1658789609089258,0.4035095750362405,0.914015411612116,0.00982681010147246
1658789609105258,0.39911497672999197,0.8740978103303574,0.008117799649042468
1658789609121257,0.3988708323796448,0.8910658426794846,0.0042114900434881974
1658789609137257,0.38495460440985774,0.9456321049820708,-0.007507438773174613
1658789609153257,0.38153658350499775,0.9505149919890137,-1.831082627603564E-4
1658789609169257,0.3692072938124662,0.8975356679636839,0.002746623941405346
1658789609185257,0.3611505302510105,0.8856946669718475,0.008728160524910322
1658789609201256,0.341374837872892,0.9423361562523844,-0.006775005722133187
1658789609217256,0.3364919508659492,0.9606469825284201,-0.0016479743648432077
1658789609233256,0.3443045700770577,0.9528343633173115,-0.0023804074158846333
1658789609249237,0.346501869230182,0.9101091020065617,-0.014709697108415298
1658789609265236,0.3385671778438999,0.8650644693675131,-0.03595025558861664
1658789609281236,0.32562752727550137,0.9293965056839859,-0.04229800869764233
1658789609297236,0.3241626611734185,0.96577401388571,-0.040344853894865196
1658789609313236,0.3125658045319293,0.9932402532997635,-0.02545204852368954
1658789609329236,0.31354238193331785,0.9575951781490808,-0.03033493553063238
1658789609345235,0.3158617532616157,0.8743419546807045,-0.020813305867093845
1658789609361235,0.30353246356908503,0.9474631876096744,-0.0357061112382695
1658789609377235,0.2885175860227358,1.0543984130617226,-0.04742504005493231
1658789609393235,0.3057297627222093,1.0208285648889905,-0.04608224612802303
1658789609409235,0.3128099488822764,0.9508812085145344,-0.050720988784618726
1658789609425234,0.305241474021515,0.9013199053940646,-0.05889982452124798
1658789609441234,0.2831464103150987,0.9668726634622722,-0.05816739147020655
1658789609457234,0.2728923476005187,1.0608682383459218,-0.07525749599450693
1658789609473234,0.2571450370031281,1.0398718242160676,-0.08075074387731762
1658789609489234,0.26898603799496446,0.9872587167162585,-0.06988632028686981
1658789609505233,0.2766765850308994,1.011306935225452,-0.06073090714885154
1658789609521233,0.28070496681162727,1.098100251773861,-0.060852979324025114
1658789609537233,0.2833905546654458,1.0893110551613638,-0.06744487678339839
1658789609553233,0.2804608224612801,1.0476844434271761,-0.07550164034485407
1658789609569275,0.2608072022583352,1.074784466315709,-0.09283588921950114
1658789609585274,0.2658121614404516,1.116289005874723,-0.09002822919050901
1658789609601274,0.2592202639810788,1.145830472266728,-0.07293812466620908
1658789609617274,0.2692301823453116,1.1226367589837487,-0.0575570305943387
1658789609633274,0.2859540703440908,1.0694132906080718,-0.04901197833218873
1658789609649273,0.28827344167238866,1.0976119630731667,-0.05145342183566015
1658789609665273,0.2872968642710001,1.1468070496681166,-0.04986648355840373
1658789609681273,0.26556801709010447,1.1356984817273217,-0.053406576638437286
1658789609697273,0.2586099031052109,1.067093919279774,-0.05035477225909801
1658789609713273,0.26605630579079875,1.034622720683604,-0.03839169909208806
1658789609729272,0.27655451285572585,1.095780880445563,-0.029480430304417382
1658789609745272,0.27447928587777515,1.094682230869001,-0.037537193865873064
1658789609761272,0.2848554207675287,1.0420691233691919,-0.0432745860990309
1658789609777272,0.30170138094148147,1.0511024643320361,-0.03350881208514522
1658789609793272,0.3096360723277636,1.0435339894712747,-0.03070115205615309
1658789609809271,0.3132982375829707,1.0342565041580833,-0.01886015106431671
1658789609825271,0.3074387731746393,1.0193636987869077,-0.015320057984283153
1658789609841271,0.3117112993057143,0.9876249332417792,-0.025696192874036683
1658789609857271,0.3330739299610892,1.0071564812695506,-0.032532234683756656
1658789609873271,0.3352712291142135,1.0082551308461127,-0.019226367589837423
1658789609889251,0.35773250934615053,1.0111848630502784,-0.014709697108415298
1658789609905251,0.3595635919737541,0.9798123140306707,0.0023804074158846333
1658789609921251,0.3661554894331269,0.9494163424124515,7.934691386282111E-4
1658789609937251,0.37897306782635276,0.9434348058289466,3.0518043793392735E-4
1658789609953251,0.39496452277409055,0.9824979018844893,0.001159685664148924
1658789609969250,0.4027771419851991,0.9964141298542764,0.006652933546959616
1658789609985250,0.4069275959411005,0.9547875181200887,0.014099336232547444
1658789610001250,0.41132219424734906,0.8900892652780961,0.029724574654764524
1658789610017250,0.4325627527275504,0.9241474021515224,0.032288090333409514
1658789610033249,0.4431830319676511,0.9687037460898758,0.018371862363622427
1658789610049249,0.45416952773327246,0.9345235370412759,0.02276646066987098
1658789610065249,0.4640573739223317,0.8611581597619589,0.03997863736934448
1658789610081249,0.48114747844663164,0.8479743648432132,0.049256122682535874
1658789610097249,0.4778515297169452,0.9073014419775696,0.051819638361180864
1658789610113248,0.4905470359349966,0.895216296635386,0.06964217593652222
1658789610129248,0.5038529030289158,0.8499275196459903,0.06158541237506654
1658789610145248,0.5241168841077286,0.8375982299534597,0.06268406195162868
1658789610161248,0.5420614938582435,0.8242923628595404,0.06549172198062081
1658789610177248,0.5631799801632713,0.8352788586251618,0.0844129091325243
1658789610193247,0.5492637521934842,0.831250476844434,0.09271381704432713
1658789610209259,0.5463340199893185,0.8238040741588462,0.10370031280994851
1658789610225258,0.5711146715495534,0.791699092088197,0.11285572594796633
1658789610241258,0.5987029831387805,0.8144045166704812,0.10785076676584993
1658789610257258,0.6060273136491947,0.8007324330510412,0.11444266422522276
1658789610273258,0.6038300144960704,0.7272449835965515,0.11859311818112417
1658789610289258,0.6072480354009304,0.7141832608529795,0.12945754177157287
1658789610305257,0.6139620050354768,0.7809567406729228,0.11895933470664488
1658789610321257,0.6171358815899897,0.7638666361486228,0.1255512321660186
1658789610337257,0.6331273365377283,0.7315175097276265,0.13739223315785498
1658789610353257,0.6409399557488369,0.6724345769436182,0.17230487525749627
1658789610369257,0.6571755550469218,0.6674296177615018,0.17267109178301698
1658789610385256,0.6615701533531704,0.6983138780804152,0.16815442130159486
1658789610401256,0.6641336690318154,0.6587624933241782,0.15606927595941134
1658789610417256,0.6836652170595867,0.6404516670481426,0.1868314641031512
1658789610433256,0.7052719920653088,0.733104448004883,0.19537651636530118
1658789610449256,0.7155260547798887,0.7329823758297094,0.2108796826123447
1658789610465255,0.7416495002670329,0.6518043793392847,0.2225986114290075
1658789610481255,0.7605706874189364,0.6092011902037076,0.22784771496147105
1658789610497255,0.7531242847333486,0.5768520637827113,0.21808194094758537
1658789610513255,0.7343251697566187,0.5648889906157013,0.1943999389639126
1658789610529235,0.710887312123293,0.5504844739452199,0.19134813458457334
1658789610545235,0.7213855191882201,0.5844205386434727,0.1981841763942933
1658789610561235,0.7434805828946365,0.6076142519264511,0.22186617837796607
1658789610577235,0.7503166247043564,0.5744106202792398,0.23175402456702532
1658789610593235,0.7451895933470665,0.47150377660791953,0.23968871595330743
1658789610609234,0.7506828412298772,0.43903257801174966,0.2515297169451438
1658789610625234,0.7724116884107728,0.5360799572747386,0.25555809872587165
1658789610641234,0.7914549477378499,0.6173800259403368,0.24664682993820097
1658789610657234,0.8030518043793391,0.5176470588235293,0.2554360265506981
1658789610673234,0.8198977645532919,0.40595101853971194,0.28082703898680084
1658789610689233,0.8146486610208283,0.4549019607843139,0.2964522774090179
1658789610705233,0.8040283817807277,0.4867627985046159,0.2728923476005187
1658789610721233,0.800244144350347,0.463691157396811,0.2571450370031281
1658789610737233,0.7924315251392384,0.41852445258258975,0.24933241779201953
1658789610753233,0.8007324330510412,0.37018387121385476,0.26483558403906304
1658789610769232,0.8230716411078047,0.4464789806973375,0.27997253376058584
1658789610785232,0.8249027237354083,0.45831998168917387,0.27875181200885013
1658789610801232,0.8135500114442662,0.3401541161211563,0.2859540703440908
1658789610817232,0.8179446097505148,0.3373464560921642,0.3007248035400929
1658789610833232,0.8362554360265504,0.4574654764629589,0.29584191653315006
1658789610849243,0.8437018387121382,0.48407721065079734,0.2857099259937437
1658789610865243,0.8769054703593504,0.4027771419851991,0.3087815671015486
1658789610881242,0.8737315938048367,0.25128557259479667,0.3224536507209885
1658789610897242,0.8603036545357439,0.2641031509880216,0.33160906385900635
1658789610913242,0.8446784161135268,0.3674982833600362,0.2897383077744715
1658789610929242,0.8523689631494618,0.4036316472114141,0.2840009155413137
1658789610945242,0.8722667277027538,0.3893492027161063,0.3218432898451207
1658789610961241,0.8706797894254974,0.36261539635309337,0.3469901579308763
1658789610977241,0.859693293659876,0.2578774700541695,0.35138475623712484
1658789610993241,0.8773937590600447,0.22101167315175108,0.3489433127336534
1658789611009241,0.8789806973373011,0.31598382543678927,0.31989013504234354
1658789611025241,0.8806897077897311,0.31976806286716997,0.30463111314564717
1658789611041240,0.8856946669718475,0.31512932021057427,0.3117112993057143
1658789611057240,0.8970473792629896,0.2377355611505303,0.3259937438010221
1658789611073240,0.893507286182956,0.17376974135957912,0.36652170595864764
1658789611089240,0.8913099870298318,0.2671549553673609,0.3612726024261841
1658789611105239,0.8920424200808732,0.3162279697871364,0.3423514152742806
1658789611121239,0.8959487296864275,0.2713054093232623,0.3280689707789728
1658789611137239,0.9094987411306938,0.1377584496833757,0.33209735255970063
1658789611153239,0.9103532463569088,0.10223544670786566,0.3469901579308763
1658789611169250,0.9107194628824296,0.2121004043640804,0.34345006485084273
1658789611185250,0.9076676585030903,0.23578240634775316,0.36188296330205194
1658789611201250,0.9068131532768753,0.19598687724116903,0.3742122529945826
1658789611217249,0.9002212558175025,0.11371023117418133,0.3695735103379869
1658789611233249,0.8932631418326089,0.10113679713130352,0.3527275501640341
1658789611249249,0.8910658426794846,0.13824673838406998,0.3510185397116041
1658789611265249,0.8910658426794846,0.15143053330281564,0.350774395361257
1658789611281249,0.8924086366063939,0.10113679713130352,0.3571221484702827
1658789611297248,0.9010757610437174,0.08270389868009431,0.3833676661326013
1658789611313248,0.9024185549706267,0.07830930037384576,0.4069275959411005
1658789611329248,0.9074235141527431,0.12201113908598415,0.4039978637369348
1658789611345248,0.9192645151445795,0.10846112764171778,0.39911497672999197
1658789611361248,0.9228046082246131,0.057312886243991557,0.3955748836499584
1658789611377247,0.9232928969253074,0.029968719005111666,0.3943541618982227
1658789611393247,0.908888380254826,0.031189440756847375,0.40167849240863696
1658789611409247,0.9014419775692382,0.07415884641794435,0.38190280003051846
1658789611425247,0.911451895933471,0.058411535820553695,0.3993591210803391
1658789611441247,0.9101091020065617,0.04437323567559304,0.4015564202334634
1658789611457246,0.9081559472037846,-0.036316472114137355,0.4129091325246055
1658789611473246,0.8854505226215004,-0.027038986800945963,0.40582894636453837
1658789611489227,0.8747081712062252,0.0015259021896696368,0.3927672236209663
1658789611505227,0.8815442130159461,-0.010315098802166744,0.38239108873121275
1658789611521227,0.9074235141527431,-0.003112840466926059,0.3864194705119406
1658789611537226,0.9134050507362481,-0.017761501487754572,0.40582894636453837
1658789611553226,0.9004654001678496,-0.015075913633936011,0.430975814450294
1658789611569226,0.8867933165484096,-0.022156099794003126,0.42230869001297044
1658789611585226,0.8916762035553525,-0.02410925459678026,0.41937895780880474
1658789611601225,0.912306401159686,-0.04876783398184159,0.4251163500419626
1658789611617225,0.9076676585030903,-0.0850232700083926,0.424994277866789
1658789611633225,0.9015640497444117,-0.0733043411917298,0.4144960708018619
1658789611649225,0.8979018844892046,-0.035217822537575216,0.4191348134584576
1658789611665225,0.8928969253070882,-0.01617456321049815,0.42182040131227616
1658789611681224,0.908033875028611,-0.04974441138323016,0.43329518577859183
1658789611697224,0.9036392767223624,-0.06182955672541368,0.4425726710917832
1658789611713224,0.8928969253070882,-0.07525749599450693,0.43280689707789755
1658789611729224,0.8850843060959797,-0.07904173342488763,0.4459906919966432
1658789611745224,0.8932631418326089,-0.04901197833218873,0.429266803997864
1658789611761223,0.9075455863279167,-0.07061875333791123,0.42475013351644186
1658789611777223,0.8958266575112539,-0.1345845731288624,0.42230869001297044
1658789611793223,0.8841077286945911,-0.13617151140611883,0.42682536049439257
1658789611809234,0.8881361104753189,-0.06622415503166268,0.42560463874265686
1658789611825234,0.8803234912642104,-0.05145342183566015,0.432684824902724
1658789611841234,0.8900892652780961,-0.10077058060578326,0.4397650110627911
1658789611857234,0.8961928740367746,-0.12530708781567101,0.4392767223620968
1658789611873233,0.8939955748836503,-0.11090257114518964,0.44879835202563534
1658789611889233,0.8820325017166404,-0.14496070801861594,0.44489204242008107
1658789611905233,0.8902113374532696,-0.12945754177157243,0.43903257801174966
1658789611921233,0.8894789044022282,-0.12628366521705958,0.4308537422751204
1658789611937233,0.8802014190890368,-0.12310978866254674,0.4485542076752882
1658789611953232,0.8920424200808732,-0.09686427100022899,0.44965285725185034
1658789611969232,0.8932631418326089,-0.10150301365682468,0.4480659189745939
1658789611985232,0.8871595330739304,-0.15216296635385662,0.46088349736781886
1658789612001232,0.8897230487525754,-0.17096208133058655,0.4635690852216374
1658789612017232,0.8858167391470211,-0.14239719233997095,0.455146105134661
1658789612033231,0.879591058213169,-0.12518501564049744,0.4408636606393532
1658789612049231,0.8832532234683761,-0.14068818188754095,0.4291447318226904
1658789612065231,0.8743419546807045,-0.14996566720073234,0.430121309224079
1658789612081231,0.877882047760739,-0.14227512016479738,0.4502632181277182
1658789612097231,0.8815442130159461,-0.12628366521705958,0.4566109712367439
1658789612113230,0.8889906157015339,-0.15777828641184088,0.4574654764629589
1658789612129211,0.8906996261539639,-0.19171435111009405,0.4569771877622646
1658789612145211,0.8891126878767075,-0.1727931639581901,0.44159609369039465
1658789612161211,0.8732433051041424,-0.15497062638284875,0.423285267414359
1658789612177210,0.8727550164034481,-0.14630350194552522,0.43610284580758396
1658789612193210,0.8738536659800102,-0.15387197680628661,0.46466773479819956
1658789612209210,0.8666514076447696,-0.17962920576791008,0.46515602349889384
1658789612225210,0.8550545510032803,-0.21576256961928753,0.44586861982146964
1658789612241210,0.8672617685206374,-0.2007476920729383,0.44708934157320535
1658789612257209,0.8766613260090033,-0.1514305333028152,0.46100556954299243
1658789612273209,0.8826428625925082,-0.1593652246890973,0.46601052872510884
1658789612289209,0.8720225833524067,-0.20819409475852613,0.4778515297169452
1658789612305209,0.8765392538338297,-0.21857022964827966,0.48615243762874805
1658789612321209,0.8712901503013653,-0.17901884489204223,0.48285648889906163
1658789612337208,0.8655527580682074,-0.17267109178301654,0.4779736018921188
1658789612353208,0.8577401388570989,-0.17755397878995938,0.46015106431677744
1658789612369208,0.8506599526970318,-0.21612878614480824,0.4690623331044481
1658789612385208,0.8467536430914775,-0.20770580605783184,0.47016098268101025
1658789612401208,0.8457770656900889,-0.23614862287327387,0.4728465705348288
1658789612417207,0.8533455405508503,-0.22027924010070965,0.48688487067978947
1658789612433207,0.8684824902723731,-0.21979095140001537,0.4813916227969788
1658789612449218,0.8640878919661246,-0.21820401312275894,0.5039749752040894
1658789612465218,0.8524910353246353,-0.19842832074464045,0.494697489890898
1658789612481218,0.855420767528801,-0.23248645761806674,0.5143511100938429
1658789612497218,0.8617685206378267,-0.24469367513542384,0.5138628213931486
1658789612513218,0.8649423971923396,-0.2771648737315937,0.5259479667353322
1658789612529217,0.853711757076371,-0.27069504844739445,0.5260700389105057
1658789612545217,0.8469977874418246,-0.2507972838941024,0.5303425650415807
1658789612561217,0.8426031891355761,-0.2356603341725796,0.5418173495078964
1658789612577217,0.8262455176623176,-0.26361486228732733,0.5332722972457464
1658789612593217,0.8139162279697869,-0.2864423590447851,0.5285114824139772
1658789612609216,0.8222171358815897,-0.2800946059357594,0.5338826581216143
1658789612625216,0.817578393224994,-0.2565346761272602,0.5369344625009536
1658789612641216,0.8257572289616233,-0.25555809872587165,0.5348592355230029
1658789612657216,0.8245365072098876,-0.2401770046540017,0.52143129625391
1658789612673215,0.8266117341878383,-0.23041123064011604,0.5247272449835965
1658789612689215,0.8358892195010297,-0.21930266269932108,0.5194781414511329
1658789612705215,0.8456549935149154,-0.22565041580834677,0.5171587701228351
1658789612721215,0.8710460059510181,-0.20318913557640972,0.5232623788815136
1658789612737215,0.8584725719081403,-0.21869230182345323,0.49542992294193944
1658789612753214,0.858838788433661,-0.22626077668421463,0.4787060349431602
1658789612769195,0.8516365300984203,-0.1841458762493322,0.4649118791485467
1658789612785195,0.8551766231784539,-0.16205081254291587,0.4578316929884796
1658789612801195,0.871656366826886,-0.19940489814602902,0.4699168383306631
1658789612817195,0.8664072632944224,-0.20306706340123615,0.4633249408712903
1658789612833194,0.8672617685206374,-0.17474631876096725,0.4461127641718168
1658789612849194,0.864820325017166,-0.15509269855802232,0.45331502250705746
1658789612865194,0.8701915007248031,-0.1438620584420538,0.46259250782024885
1658789612881194,0.8681162737468524,-0.1514305333028152,0.4564888990615703
1658789612897194,0.8760509651331354,-0.15619134813458446,0.4497749294270239
1658789612913193,0.8844739452201118,-0.1383688105592431,0.44879835202563534
1658789612929193,0.8755626764324411,-0.13653772793163954,0.4539253833829253
1658789612945193,0.8720225833524067,-0.12677195391775387,0.44782177462424677
1658789612961193,0.8754406042572676,-0.11786068513008319,0.44281681544213036
1658789612977193,0.8797131303883425,-0.10089265278095683,0.4417181658655682
1658789612993192,0.8853284504463268,-0.08599984740978117,0.43109788662546755
1658789613009192,0.8783703364614333,-0.12249942778667888,0.4265812161440454
1658789613025192,0.8736095216296631,-0.10528725108720538,0.4129091325246055
1658789613041192,0.8743419546807045,-0.08612191958495474,0.4158388647287712
1658789613057191,0.8815442130159461,-0.021667811093308842,0.4094911116197455
1658789613073191,0.8827649347676818,-0.049134050507362304,0.4065613794155798
1658789613089203,0.8899671931029225,-0.06988632028686981,0.4053406576638441
1658789613105202,0.8990005340657667,-0.0462043183031966,0.40473029678797623
1658789613121202,0.8985122453650725,0.0012817578393224949,0.40924696726939835
1658789613137202,0.8993667505912875,0.049134050507362304,0.40460822461280266
1658789613153202,0.9005874723430232,0.06195162890058725,0.3733577477683676
1658789613169201,0.9112077515831238,-0.006775005722133187,0.3733577477683676
1658789613185201,0.9053482871747924,0.01373311970702673,0.39337758449683413
1658789613201201,0.8983901731898989,0.12005798428320702,0.36981765468833405
1658789613217201,0.8771496147096975,0.10199130235751852,0.3532158388647284
1658789613233201,0.8822766460669875,0.03143358510719452,0.346501869230182
1658789613249200,0.8981460288395517,0.10016021972991496,0.36639963378347407
1658789613265200,0.8783703364614333,0.18219272144655552,0.34076447699702417
1658789613281200,0.883009079118029,0.15313954375524563,0.3346608682383456
1658789613297200,0.9074235141527431,0.13287556267643286,0.33539330128938705
1658789613313200,0.9276874952315559,0.18634317540245693,0.3599298084992748
1658789613329199,0.9042496375982303,0.18072785534447267,0.35846494239719195
1658789613345199,0.8887464713511868,0.15973144121461846,0.3562676432440677
1658789613361199,0.9005874723430232,0.16241702906843702,0.3401541161211563
1658789613377199,0.9121843289845124,0.23956664377813386,0.3258716716258485
1658789613393199,0.904615854123751,0.26361486228732733,0.3179369802395664
1658789613409179,0.8991226062409403,0.25775539787899593,0.3165941863126571
1658789613425179,0.9022964827954532,0.22943465323872747,0.3218432898451207
1658789613441179,0.9051041428244453,0.207095445181964,0.3384451056687263
1658789613457179,0.8971694514381632,0.27997253376058584,0.3368581673914699
1658789613473178,0.8750743877317468,0.3372243839169906,0.29755092698558006
1658789613489178,0.8792248416876483,0.2993820096131836,0.2822919050888837
1658789613505178,0.8964370183871218,0.28278019378957797,0.3091477836270693
1658789613521178,0.8902113374532696,0.34845502403295914,0.30634012359807716
1658789613537178,0.8626230258640417,0.34930952925917413,0.29962615396353076
1658789613553177,0.8744640268558781,0.33575951781490776,0.2886396581979094
1658789613569177,0.8773937590600447,0.28033875028610655,0.27948424505989156
1658789613585177,0.8855725947966739,0.3322194247348742,0.27496757457846943
1658789613601177,0.8743419546807045,0.4069275959411005,0.28241397726405726
1658789613617177,0.8638437476157774,0.4834668497749295,0.2705729762722209
1658789613633176,0.8611581597619589,0.40680552376592694,0.26898603799496446
1658789613649176,0.8709239337758445,0.31390859845883856,0.2735027084763866
1658789613665176,0.8861829556725418,0.3927672236209663,0.28546578164339653
1658789613681176,0.8653086137178603,0.5166704814221408,0.2561684596017395
1658789613697176,0.8552986953536275,0.5005569542992294,0.24286259250782027
1658789613713175,0.8675059128709846,0.4122987716487376,0.23883421072709243
1658789613729187,0.8606698710612646,0.38654154268711416,0.2633707179369802
1658789613745186,0.8429694056610968,0.4787060349431602,0.2533607995727474
1658789613761186,0.8301518272678718,0.5210650797283893,0.23468375677119102
1658789613777186,0.8419928282597082,0.4909132524605173,0.22149996185244536
1658789613793186,0.8441901274128325,0.4393987945372704,0.23492790112153816
1658789613809186,0.8311284046692604,0.44879835202563534,0.23736934462500958
1658789613825185,0.8174563210498205,0.575509269855802,0.23504997329671173
1658789613841185,0.8053711757076369,0.6292210269321741,0.2205233844510568
1658789613857185,0.821850919356069,0.5123979552910658,0.22479591058213177
1658789613873185,0.8354009308003354,0.42853437094682256,0.2334630350194553
1658789613889185,0.8245365072098876,0.5187457084000915,0.22247653925383393
1658789613905184,0.8095216296635384,0.5709925993743799,0.1965972381170369
1658789613921184,0.801953154802777,0.5498741130693521,0.19293507286182976
1658789613937184,0.8102540627145798,0.568673228046082,0.2100251773861297
1658789613953184,0.7969481956206605,0.5751430533302813,0.21844815747310609
1658789613969184,0.7809567406729228,0.5441367208361942,0.2129549095902954
1658789613985183,0.7902342259861141,0.5252155336842907,0.20526436255436042
1658789614001183,0.7785152971694513,0.5469443808651864,0.18158236057068766
1658789614017183,0.7775387197680628,0.6304417486839098,0.18463416495002694
1658789614033183,0.7757076371404592,0.6508278019378961,0.1823147936217291
1658789614049163,0.7791256580453192,0.5957732509346148,0.18255893797207623
1658789614065163,0.7860837720302127,0.5480430304417485,0.1780422674906541
1658789614081163,0.7895017929350727,0.6364232852674148,0.18451209277485336
1658789614097163,0.7698481727321278,0.713450827801938,0.16473640039673487
1658789614113163,0.76069275959411,0.644602121004044,0.16412603952086702
1658789614129162,0.7766842145418478,0.5733119707026777,0.16107423514152774
1658789614145162,0.7647211413748378,0.603097581445029,0.15179674982833635
1658789614161162,0.7484855420767529,0.690989547570001,0.13971160448615283
1658789614177162,0.7409170672159915,0.7006332494087131,0.13592736705577213
1658789614193162,0.7316395819028001,0.6964827954528117,0.1423971923399714
1658789614209161,0.7401846341649501,0.639475089646754,0.1549706263828492
1658789614225161,0.7373769741359579,0.5983367666132597,0.15814450293736204
1658789614241161,0.7366445410849165,0.6012664988174254,0.14300755321583924
1658789614257161,0.7146715495536737,0.7068589303425652,0.12188906691081058
1658789614273161,0.6957503624017702,0.7364003967345694,0.11078049897001563
1658789614289160,0.7073472190432595,0.6581521324483104,0.12030212863355416
1658789614305160,0.7189440756847487,0.6245822842755775,0.14813458457312922
1658789614321160,0.6996566720073245,0.6583962767986575,0.15179674982833635
1658789614337160,0.6782940413519496,0.7272449835965515,0.12738231479362216
1658789614353160,0.6725566491187918,0.733104448004883,0.09637598229953426
1658789614369171,0.6923323414969103,0.7038071259632259,0.09686427100022854
1658789614385171,0.6959945067521174,0.6851300831616696,0.10931563286793278
1658789614401170,0.6945296406500345,0.7659418631265735,0.12030212863355416
1658789614417170,0.684153505760281,0.7584954604409857,0.10943770504310635
1658789614433170,0.676462958724346,0.727122911421378,0.0936903944457157
1658789614449170,0.6873273823147938,0.7030746929121845,0.08563363088426001
1658789614465170,0.6801251239795532,0.7401846341649501,0.07513542381933291
1658789614481169,0.656565194171054,0.8231937132829783,0.08111696040283789
1658789614497169,0.6392309452964069,0.8234378576333254,0.06952010376134865
1658789614513169,0.6527809567406733,0.7208972304875259,0.07330434119172935
1658789614529169,0.6580300602731368,0.7058823529411766,0.0756237125200272
1658789614545169,0.6668192568856339,0.7915770199130234,0.0747692072938122
1658789614561168,0.642038605325399,0.8205081254291597,0.0672007324330508
1658789614577168,0.6282444495307855,0.7999999999999998,0.06182955672541368
1658789614593168,0.6231174181734946,0.7742427710383764,0.05474937056534657
1658789614609168,0.6267795834287027,0.7455558098725872,0.06121919584954583
1658789614625167,0.6267795834287027,0.8144045166704812,0.0764782177462422
1658789614641167,0.6102998397802697,0.8456549935149154,0.06659037155718295
1658789614657167,0.6018768596932933,0.7987792782482641,0.041443503471427334
1658789614673167,0.6143282215609975,0.7416495002670329,0.03436331731136022
1658789614689178,0.6122529945830468,0.8065918974593727,0.05743495841916513
1658789614705178,0.5886930647745476,0.8423590447852289,0.05548180361638799
1658789614721178,0.5803921568627448,0.8509040970473789,0.04571602960250232
1658789614737177,0.5734340428778513,0.8054932478828105,0.034851606012054503
1658789614753177,0.5944304570077055,0.7526359960326543,0.03558403906309593
1658789614769177,0.5855191882200348,0.8059815365835048,0.02777141985198739
1658789614785177,0.5727016098268098,0.8427252613107497,0.024719615472648115
1658789614801177,0.5648889906157013,0.8585946440833139,0.008606088349736751
1658789614817176,0.5531700617990385,0.7919432364385441,0.01104753185320817
1658789614833176,0.5631799801632713,0.8004882887006941,0.025818265049210254
1658789614849176,0.5501182574196992,0.8267338063630119,0.018127718013275285
1658789614865176,0.5479209582665749,0.8307621881437397,0.01861600671396957
1658789614881176,0.5354695963988707,0.8469977874418246,0.009216449225604606
1658789614897175,0.5429159990844585,0.8220950637064162,0.0060425726710917615
1658789614913175,0.5447470817120621,0.8012207217517355,-0.005554283970397478
1658789614929175,0.54193942168307,0.8378423743038068,0.005554283970397478
1658789614945175,0.5298542763408864,0.858838788433661,-0.006775005722133187
1658789614961175,0.5150835431448844,0.8478522926680396,-0.011535820553902454
1658789614977174,0.5154497596704051,0.8080567635614555,-0.023254749370565264
1658789614993174,0.5099565117875944,0.8031738765545127,-0.025085831998168828
1658789615009155,0.5098344396124208,0.8441901274128325,-0.021911955443655984
1658789615025155,0.49494163424124515,0.8941176470588239,-0.02008087281605242
1658789615041154,0.4795605401693752,0.8880140383001454,-0.025696192874036683
1658789615057154,0.49542992294193944,0.8189211871519033,-0.02398718242160669
1658789615073154,0.5012893873502708,0.8341802090485997,-0.025574120698863112
1658789615089154,0.5011673151750973,0.8920424200808732,-0.024719615472648115
1658789615105154,0.46308079652094314,0.8913099870298318,-0.02545204852368954
1658789615121153,0.45001907377737105,0.9084000915541317,-0.028503852903028815
1658789615137153,0.4531929503318839,0.872510872053101,-0.0462043183031966
1658789615153153,0.464545662623026,0.8428473334859232,-0.034851606012054503
1658789615169153,0.45966277561608315,0.8791027695124747,-0.02777141985198739
1658789615185153,0.426703288319219,0.9070572976272224,-0.03045700770580595
1658789615201152,0.4124208438239112,0.8976577401388575,-0.0365606164644845
1658789615217152,0.41339742122529977,0.8823987182421611,-0.039002059967955915
1658789615233152,0.40839246204318336,0.8603036545357439,-0.036316472114137355
1658789615249152,0.40851453421835693,0.916578927290761,-0.01886015106431671
1658789615265152,0.3909361409933627,0.9665064469367515,-0.024719615472648115
1658789615281151,0.38568703746089916,0.9265888456549938,-0.04205386434729519
1658789615297151,0.38739604791332916,0.8662851911192488,-0.042908369573510186
1658789615313151,0.3834897383077749,0.9256122682536052,-0.039124132143129486
1658789615329162,0.3814145113298242,0.9745632104982072,-0.04437323567559304
1658789615345162,0.3771419851987492,0.9685816739147022,-0.05511558709086728
1658789615361162,0.35883115892271267,0.9263447013046466,-0.0657358663309684
1658789615377162,0.3620050354772255,0.859693293659876,-0.05413900968947871
1658789615393161,0.3485770962081327,0.950148775463493,-0.06207370107576082
1658789615409161,0.32941176470588207,1.0230258640421148,-0.0695201037613491
1658789615425161,0.32074464026855853,0.9629663538567179,-0.08148317692835905
1658789615441161,0.3297779812314028,0.8792248416876483,-0.07306019684138265
1658789615457161,0.3457694361791406,0.9217059586480509,-0.06121919584954583
1658789615473160,0.33502708476386633,0.9822537575341421,-0.06842145418478696
1658789615489160,0.3157396810864421,1.0031280994888228,-0.0736705577172505
1658789615505160,0.3031662470435643,0.9402609292744337,-0.08319218738078904
1658789615521160,0.30353246356908503,0.9060807202258339,-0.07977416647592905
1658789615537160,0.30255588616769646,0.9513694972152287,-0.08245975432974761
1658789615553159,0.2743572137026016,0.9846952010376135,-0.0733043411917298
1658789615569159,0.2616617074845502,0.9557640955214772,-0.07733272297245763
1658789615585159,0.2556801709010452,0.910597390707256,-0.0963759822995347
1658789615601159,0.26727702754253446,0.880445563439384,-0.09442282749675757
1658789615617159,0.2675211718928816,0.9658960860608836,-0.08490119783321903
1658789615633158,0.24432745860990313,1.055130846112764,-0.08709849698634331
1658789615649139,0.2448157473105974,1.0004425116350042,-0.09039444571602973
1658789615665139,0.25140764476997024,0.9019302662699324,-0.093446250095369
1658789615681139,0.2553139543755245,0.9861600671396964,-0.09954985885404755
1658789615697138,0.2540932326237888,1.0331578545815212,-0.10699626153963537
1658789615713138,0.23553826199740602,1.023514152742809,-0.12091248950942246
1658789615729138,0.2348058289463646,0.9857938506141757,-0.13849088273441668
1658789615745138,0.24213015945677885,0.9954375524528878,-0.1366598001068131
1658789615761138,0.22833600366216533,1.038651102464332,-0.1404440375371938
1658789615777137,0.21515220874341967,1.071610589761196,-0.13202105745021742
1658789615793137,0.20404364080262472,1.0556191348134583,-0.1362935835812924
1658789615809137,0.21026932173647683,1.0271763179980162,-0.13958953231097881
1658789615825137,0.21515220874341967,1.0678263523308154,-0.14142061493858238
1658789615841137,0.23199816891737246,1.113725490196078,-0.13690394445716025
1658789615857136,0.2310215915159839,1.1189745937285416,-0.12628366521705958
1658789615873136,0.22882429236285962,1.1136034180209045,-0.12469672693980316
1658789615889136,0.2179598687724118,1.0718547341115432,-0.12713817044327458
1658789615905136,0.2276035706111239,1.089555199511711,-0.12884718089570457
1658789615921136,0.22015716792553608,1.1178759441519794,-0.1433737697413595
1658789615937135,0.21991302357518894,1.0786907759212632,-0.1328755626764324
1658789615953135,0.2116121156633861,1.064530403601129,-0.132143129625391
1658789615969146,0.2191805905241475,1.1044480048828866,-0.13482871747920955
1658789615985146,0.24042114900434886,1.106645304036011,-0.1283588921950103
1658789616001146,0.22858014801251247,1.0574502174410618,-0.1275043869687953
1658789616017146,0.2238193331807432,1.0199740596627755,-0.12591744869153887
1658789616033146,0.22735942626077676,1.0373083085374226,-0.11932555123216604
1658789616049145,0.2343175402456703,1.081010147249561,-0.11859311818112461
1658789616065145,0.2536049439230945,1.0142366674296177,-0.09820706492713827
1658789616081145,0.2625162127107652,0.98970016021973,-0.08429083695735118
1658789616097145,0.271671625848783,1.0230258640421148,-0.07733272297245763
1658789616113144,0.27240405889982444,1.0564736400396733,-0.0640268558785384
1658789616129144,0.2783855954833294,1.005325398641947,-0.053162432288090145
1658789616145144,0.30939192797741644,0.9849393453879607,-0.04766918440527945
1658789616161144,0.31219958800640857,1.0093537804226749,-0.05413900968947871
1658789616177144,0.30719462882429216,0.9646753643091479,-0.058533607995727266
1658789616193143,0.29669642175936506,0.9219501029983981,-0.07208361943999408
1658789616209143,0.2923018234531165,0.9129167620355538,-0.07525749599450693
1658789616225143,0.3192797741664757,0.9546654459449151,-0.06793316548409267
1658789616241143,0.3335622186617835,0.97602807660029,-0.05267414358739586
1658789616257143,0.342229343099107,0.9626001373311972,-0.04119935912108019
1658789616273142,0.36481269550621764,0.9004654001678496,-0.02276646066987098
1658789616289123,0.3909361409933627,0.9337911039902345,-0.021057450217440987
1658789616305123,0.3960631723506527,0.9799343862058443,-0.01739528496223386
1658789616321123,0.40717174029144765,0.9539330128938737,-0.014709697108415298
1658789616337123,0.41181048294804334,0.9326924544136723,-0.015930418860151008
1658789616353122,0.42438391699092115,0.873365377279316,-0.013488975356679589
1658789616369122,0.4317082475013354,0.8915541313801789,0.002990768291752488
1658789616385122,0.4203555352101933,0.9289082169832916,-0.001037613488975353
1658789616401122,0.4191348134584576,0.9281757839322502,-0.006530861371786045
1658789616417122,0.42987716487373184,0.8892347600518811,0.0012817578393224949
1658789616433121,0.4664988174258031,0.8693369954985881,0.005676356145571049
1658789616449121,0.4834668497749295,0.8634775310902567,0.024353398947127403
1658789616465121,0.47736324101625094,0.8498054474708168,0.029480430304417382
1658789616481121,0.4641794460975053,0.8620126649881739,0.014587624933241727
1658789616497120,0.48322270542458234,0.8781261921110861,0.012024109254596738
1658789616513120,0.5172808422980086,0.9231708247501338,0.02532997634851597
1658789616529120,0.5307087815671014,0.8783703364614333,0.061097123674372256
1658789616545120,0.5260700389105057,0.7790035858701456,0.07672236209658934
1658789616561120,0.5408407721065078,0.7810788128480963,0.06756694895857152
1658789616577119,0.558419165331502,0.8490730144197753,0.043030441748683756
1658789616593119,0.5446250095368885,0.877027542534524,0.027405203326466676
1658789616609130,0.542793926909285,0.8093995574883648,0.06280613412680225
1658789616625130,0.5585412375066756,0.7622796978713664,0.08941786831464071
1658789616641130,0.562691691462577,0.7366445410849165,0.10077058060578281
1658789616657130,0.5684290836957349,0.8169680323491262,0.08245975432974717
1658789616673130,0.5687953002212556,0.8217288471808954,0.07330434119172935
1658789616689129,0.5866178377965969,0.7973144121461813,0.08123903257801146
1658789616705129,0.608224612802319,0.7473868925001907,0.11859311818112417
1658789616721129,0.6301976043335626,0.7105210955977723,0.14703593499656709
1658789616737129,0.6270237277790498,0.7617914091706721,0.14715800717174066
1658789616753129,0.6218966964217589,0.822705424582284,0.1138323033493549
1658789616769128,0.6363012130922412,0.7832761120012206,0.11078049897001563
1658789616785128,0.6549782558937975,0.7533684290836957,0.12909132524605216
1658789616801128,0.6663309681849396,0.7343251697566187,0.15338368810559277
1658789616817128,0.6571755550469218,0.7135728999771116,0.15472648203250206
1658789616833128,0.6549782558937975,0.7050278477149616,0.11908140688181845
1658789616849127,0.6638895246814682,0.7069810025177388,0.11639581902799989
1658789616865127,0.6791485465781646,0.7199206530861373,0.12603952086671288
1658789616881127,0.6825665674830246,0.7150377660791944,0.1482566567483028
1658789616897127,0.679880979629206,0.7132066834515909,0.15594720378423776
1658789616913127,0.6852521553368431,0.647165636682689,0.15094224460212136
1658789616929107,0.723704890516518,0.6619363698786911,0.16095216296635417
1658789616945107,0.7212634470130466,0.7273670557717251,0.15509269855802277
1658789616961107,0.719432364385443,0.6937972075989931,0.16742198825055343
1658789616977107,0.7287098496986344,0.6648661020828568,0.18329137102311766
1658789616993106,0.7490959029526207,0.6426489662012669,0.19427786678873904
1658789617009106,0.7761959258411535,0.6791485465781646,0.18805218585488692
1658789617025106,0.7626459143968871,0.6508278019378961,0.18451209277485336
1658789617041106,0.758129243915465,0.6079804684519718,0.16937514305333057
1658789617057106,0.7509269855802243,0.6045624475471119,0.1943999389639126
1658789617073105,0.7628900587472343,0.6605935759517818,0.20270084687571543
1658789617089105,0.7635004196231021,0.6033417257953761,0.1973296711680783
1658789617105105,0.7659418631265735,0.5515831235217821,0.19891660944533474
1658789617121105,0.7671625848783092,0.5027542534523537,0.19037155718318477
1658789617137105,0.7730220492866406,0.5491416800183107,0.18878461890592835
1658789617153104,0.7836423285267413,0.5784390020599677,0.18915083543144906
1658789617169104,0.7921873807888913,0.529121843289845,0.203677424277104
1658789617185104,0.8006103608758677,0.4926222629129473,0.22125581750209822
1658789617201104,0.8051270313572898,0.4784618905928131,0.2435950255588617
1658789617217104,0.820996414129854,0.5578088044556342,0.24628061341268026
1658789617233103,0.8180666819256883,0.5138628213931486,0.238101777676051
1658789617249115,0.8407721065079725,0.40338750286106695,0.2284580758373389
1658789617265114,0.8457770656900889,0.4339055466544597,0.24542610818646526
1658789617281114,0.8313725490196076,0.48786144808117804,0.24029907682917528
1658789617297114,0.8443121995880061,0.47687495231555665,0.25311665522240023
1658789617313114,0.8516365300984203,0.46466773479819956,0.25506981002517737
1658789617329114,0.8458991378652625,0.35516899366750554,0.2548256656748302
1658789617345113,0.8267338063630119,0.31781490806439283,0.2642252231631952
1658789617361113,0.8310063324940868,0.4044861524376291,0.2499427786678874
1658789617377113,0.8509040970473789,0.4674753948271917,0.2439612420843824
1658789617393113,0.8640878919661246,0.3926451514457927,0.24420538643472955
1658789617409113,0.8880140383001454,0.27362478065156015,0.2924238956282901
1658789617425112,0.8805676356145575,0.30048065918974576,0.30926985580224287
1658789617441112,0.8679942015716788,0.3825131609063863,0.2897383077744715
1658789617457112,0.8728770885786217,0.41046768902113406,0.273380636301213
1658789617473112,0.8964370183871218,0.35724422064545625,0.27228198672465087
1658789617489112,0.8941176470588239,0.2654459449149309,0.3037766079194322
1658789617505111,0.8802014190890368,0.22272068360418107,0.3208667124437321
1658789617521111,0.8581063553826196,0.18109407186999338,0.310368505378805
1658789617537111,0.8793469138628218,0.30804913405050716,0.26861982146944374
1658789617553111,0.8776379034103918,0.42865644312199613,0.272526131074998
1658789617569091,0.896925307087816,0.35883115892271267,0.30634012359807716
1658789617585091,0.9094987411306938,0.19940489814602902,0.3347829404135192
1658789617601091,0.906324864576181,0.11578545815213204,0.3419851987487599
1658789617617091,0.9002212558175025,0.20306706340123615,0.34760051880674414
1658789617633091,0.8959487296864275,0.31061264972915215,0.3040207522697793
1658789617649090,0.9053482871747924,0.30646219577325073,0.2857099259937437
1658789617665090,0.9147478446631574,0.1952544441901276,0.31512932021057427
1658789617681090,0.904615854123751,0.12774853131914288,0.3562676432440677
1658789617697090,0.8881361104753189,0.13421835660334214,0.36017395284962195
1658789617713090,0.8899671931029225,0.24213015945677885,0.3284351873044935
1658789617729089,0.902052338445106,0.2658121614404516,0.31683833066300426
1658789617745089,0.9132829785610745,0.1780422674906541,0.33502708476386633
1658789617761089,0.9208514534218359,0.09027237354085571,0.3657892729076062
1658789617777089,0.8961928740367746,0.11078049897001563,0.3876401922636763
1658789617793089,0.8894789044022282,0.2033112077515833,0.35883115892271267
1658789617809088,0.9019302662699324,0.19830624856946688,0.3435721370260163
1658789617825088,0.931349660486763,0.1835355153734648,0.34076447699702417
1658789617841088,0.9324483100633252,0.13006790264744073,0.3659113450827798
1658789617857088,0.9113298237582974,0.05999847409781012,0.38776226443884987
1658789617873088,0.8827649347676818,-0.0015259021896696368,0.4141298542763412
1658789617889099,0.8877698939497982,0.07330434119172935,0.37982757305256776
1658789617905099,0.9005874723430232,0.1281147478446636,0.3540703440909434
1658789617921098,0.9047379262989246,0.09625391012436069,0.3716487373159376
1658789617937098,0.9081559472037846,0.04974441138323016,0.4119325551232169
1658789617953098,0.8970473792629896,0.014465552758068156,0.4312199588006411
1658789617969098,0.8877698939497982,-0.020691233691920274,0.4299992370489054
1658789617985098,0.8915541313801789,-0.02008087281605242,0.4166933699549862
1658789618001097,0.8865491721980625,0.021057450217440987,0.3994811932555127
1658789618017097,0.906324864576181,0.07623407339589505,0.39826047150377697
1658789618033097,0.9074235141527431,0.024353398947127403,0.4148622873273826
1658789618049097,0.9176775768673231,-0.02655069810025168,0.42279697871366473
1658789618065096,0.9051041428244453,-0.07647821774624264,0.430975814450294
1658789618081096,0.9081559472037846,-0.034851606012054503,0.4216983291371026
1658789618097096,0.9024185549706267,-0.026184481574730967,0.4182803082322426
1658789618113096,0.9196307316701002,0.004455634393835339,0.40668345159075336
1658789618129096,0.9092545967803467,-0.01239032578011745,0.3994811932555127
1658789618145095,0.9099870298313881,-0.03668268863965807,0.41803616388189546
1658789618161095,0.9026626993209739,-0.05096513313496587,0.43695735103379896
1658789618177095,0.9004654001678496,-0.05621423666742942,0.4325627527275504
1658789618193095,0.8908216983291375,-0.08734264133669045,0.4053406576638441
1658789618209106,0.8853284504463268,-0.1228656443121996,0.4099794003204398
1658789618225106,0.8815442130159461,-0.07293812466620908,0.4061951628900591
1658789618241106,0.8990005340657667,-0.03851377126726163,0.40595101853971194
1658789618257105,0.9066910811017017,-0.03717097734035235,0.42316319523918544
1658789618273105,0.9110856794079503,-0.06878767071030767,0.4262149996185247
1658789618289105,0.8916762035553525,-0.1325093461509117,0.42780193789578114
1658789618305105,0.8888685435263604,-0.1471580071717402,0.42767986572060757
1658789618321105,0.896925307087816,-0.06939803158617552,0.42023346303501974
1658789618337104,0.8980239566643782,-0.10614175631342038,0.40119020370794267
1658789618353104,0.8990005340657667,-0.11053635461966893,0.40094605935759553
1658789618369104,0.8925307087815675,-0.10247959105821325,0.39923704890516554
1658789618385104,0.8775158312352183,-0.12933546959639886,0.41010147249561335
1658789618401104,0.8903334096284432,-0.15106431677729448,0.41925688563363117
1658789618417103,0.9212176699473567,-0.1362935835812924,0.4174258030060276
1658789618433103,0.9329365987640195,-0.10736247806515609,0.3814145113298242
1658789618449103,0.9124284733348595,-0.1476462958724345,0.383733882658122
1658789618465103,0.8936293583581296,-0.13348592355230027,0.4149843595025562
1658789618481103,0.8756847486076147,-0.11871519035629818,0.424139772640574
1658789618497102,0.8814221408407725,-0.13971160448615239,0.42487220569161543
1658789618513102,0.8998550392919817,-0.15423819333180733,0.41889066910811046
1658789618529083,0.8933852140077825,-0.18475623712520006,0.3900816357671477
1658789618545083,0.8893568322270546,-0.18451209277485292,0.395696955825132
1658789618561082,0.8979018844892046,-0.1433737697413595,0.41132219424734906
1658789618577082,0.9005874723430232,-0.1371480888075074,0.4263370717936983
1658789618593082,0.9102311741817353,-0.17962920576791008,0.4446478980697339
1658789618609082,0.8886243991760132,-0.20550850690470757,0.458564126039521
1658789618625082,0.8797131303883425,-0.19012741283283763,0.4549019607843139
1658789618641081,0.8744640268558781,-0.19049362935835834,0.44586861982146964
1658789618657081,0.8872816052491039,-0.18915083543144906,0.45038529030289176
1658789618673081,0.881300068665599,-0.1791409170672158,0.4581979095140003
1658789618689081,0.8754406042572676,-0.21930266269932108,0.46015106431677744
1658789618705081,0.8765392538338297,-0.2578774700541695,0.4805371175707638
1658789618721080,0.8915541313801789,-0.23846799420157172,0.5020218204013123
1658789618737080,0.8992446784161139,-0.2116121156633861,0.5055619134813458
1658789618753080,0.8782482642862597,-0.2506752117189288,0.499824521248188
1658789618769080,0.8500495918211639,-0.26349279011215376,0.48993667505912875
1658789618785080,0.8382085908293275,-0.2499427786678874,0.4812695506218052
1658789618801079,0.8290531776913097,-0.2153963530937668,0.49823758297093157
1658789618817079,0.8291752498664833,-0.21857022964827966,0.4809033340962845
1658789618833079,0.8415045395590139,-0.26727702754253446,0.4740672922865645
1658789618849090,0.859693293659876,-0.27496757457846943,0.4755321583886474
1658789618865090,0.868238345922026,-0.24676890211337454,0.4599069199664303
1658789618881090,0.8788586251621275,-0.2083161669336997,0.4556343938353553
1658789618897090,0.8789806973373011,-0.19171435111009405,0.4452582589456018
1658789618913089,0.8878919661249718,-0.2141756313420311,0.4463569085221639
1658789618929089,0.8925307087815675,-0.2108796826123447,0.45551232166018174
1658789618945089,0.8869153887235832,-0.19171435111009405,0.4404974441138325
1658789618961089,0.8898451209277489,-0.19671931029221046,0.4074158846417948
1658789618977089,0.8865491721980625,-0.19427786678873904,0.40582894636453837
1658789618993088,0.880445563439384,-0.17230487525749583,0.39618524452582626
1658789619009088,0.8794689860379954,-0.17486839093614082,0.39630731670099983
1658789619025088,0.8825207904173347,-0.16473640039673443,0.40387579156176123
1658789619041088,0.8947280079346918,-0.1526512550545509,0.421576256961929
1658789619057088,0.9058365758754867,-0.15240711070420376,0.4079041733424891
1658789619073087,0.9188982986190588,-0.17608911268787653,0.4122987716487376
1658789619089087,0.9138933394369424,-0.14251926451514452,0.40961318379491907
1658789619105087,0.9047379262989246,-0.12982375829709314,0.39789425497825626
1658789619121087,0.8979018844892046,-0.14410620279240094,0.41766994735637475
1658789619137086,0.8938735027084768,-0.14105439841306167,0.4253604943923097
1658789619153086,0.8941176470588239,-0.14923323414969092,0.40509651331349694
1658789619169067,0.8981460288395517,-0.13702601663233382,0.3993591210803391
1658789619185067,0.9021744106202796,-0.14227512016479738,0.3964293888761734
1658789619201067,0.9048599984740981,-0.12420843823910888,0.3959411001754791
1658789619217066,0.9005874723430232,-0.12262149996185245,0.41144426642252263
1658789619233066,0.9041275654230567,-0.11102464332036321,0.4158388647287712
1658789619249066,0.8916762035553525,-0.10113679713130397,0.40509651331349694
1658789619265066,0.8878919661249718,-0.11114671549553679,0.3851987487602049
1658789619281066,0.9019302662699324,-0.09967193102922112,0.39069199664301557
1658789619297065,0.913160906385901,-0.07013046463721695,0.40253299763485195
1658789619313065,0.9038834210727096,-0.04083314259555948,0.3960631723506527
1658789619329065,0.9000991836423289,-0.027283131151293105,0.389715419241627
1658789619345065,0.9137712672617688,-0.052063782711528006,0.38532082093537845
1658789619361065,0.9239032578011752,-0.06915388723582838,0.388860914015412
1658789619377064,0.9228046082246131,0.010315098802166744,0.3867856870374613
1658789619393064,0.9162127107652402,0.08075074387731718,0.3707942320897226
1658789619409064,0.9070572976272224,0.053162432288090145,0.36639963378347407
1658789619425064,0.906324864576181,0.02008087281605242,0.3590753032730598
1658789619441064,0.9143816281376367,0.057190814068817986,0.36139467460135766
1658789619457063,0.9212176699473567,0.034973678187228074,0.36725413900968906
1658789619473063,0.9026626993209739,0.04974441138323016,0.3591973754482334
1658789619489074,0.8904554818036168,0.08392462043183002,0.35345998321507555
1658789619505074,0.8979018844892046,0.10431067368581637,0.35724422064545625
1658789619521074,0.897779812314031,0.07257190814068792,0.3654230563820855
1658789619537074,0.9108415350576031,0.12750438696879574,0.36932936598763977
1658789619553074,0.9000991836423289,0.16327153429465202,0.33710231174181704
1658789619569073,0.9130388342107274,0.11712825207904132,0.35516899366750554
1658789619585073,0.9180437933928438,0.10601968413824636,0.37311360341802047
1658789619601073,0.9188982986190588,0.18451209277485336,0.36444647898069693
1658789619617073,0.919996948195621,0.20025940337224402,0.36517891203173836
1658789619633072,0.902052338445106,0.17120622568093413,0.3229419394216828
1658789619649072,0.9070572976272224,0.15265125505455135,0.3141527428091857
1658789619665072,0.907179369802396,0.18316929884794408,0.3355153734645606
1658789619681072,0.9016861219195853,0.25690089265278093,0.344792858777752
1658789619697072,0.892652780956741,0.2814373998626687,0.31891355764095497
1658789619713071,0.8979018844892046,0.20099183642328544,0.32355230029755067
1658789619729071,0.9121843289845124,0.20807202258335256,0.32147707331959996
1658789619745071,0.9027847714961474,0.278507667658503,0.3175707637140457
1658789619761071,0.8947280079346918,0.30609597924773,0.31061264972915215
1658789619777071,0.8925307087815675,0.2612954909590295,0.3081712062256807
1658789619793070,0.9115739681086446,0.24896620126649882,0.3057297627222093
1658789619809051,0.9062027924010074,0.3280689707789728,0.2986495765621422
1658789619825051,0.8979018844892046,0.3964293888761734,0.2931563286793315
1658789619841051,0.8980239566643782,0.3410086213473713,0.27789730678263513
1658789619857051,0.9068131532768753,0.24982070649271382,0.26984054322117945
1658789619873050,0.9152361333638517,0.2835126268406194,0.2780193789578087
1658789619889050,0.8988784618905932,0.3700617990386812,0.2821698329137101
1658789619905050,0.8808117799649047,0.3642023346303498,0.2649576562142366
1658789619921050,0.8719005111772331,0.3502861066605627,0.2394445716029603
1658789619937049,0.8740978103303574,0.29791714351110077,0.243228809033341
1658789619953049,0.8710460059510181,0.31122301060502,0.25641260395208665
1658789619969049,0.8595712214847024,0.39496452277409055,0.2477454795147631
1658789619985049,0.8457770656900889,0.37201495384145833,0.2595864805065995
1658789620001049,0.8626230258640417,0.3875181200885027,0.2642252231631952
1658789620017048,0.8758068207827883,0.3750667582207985,0.2735027084763866
1658789620033048,0.8704356450751503,0.36737621118486263,0.27533379110399014
1658789620049048,0.8686045624475467,0.431830319676509,0.2697184710460059
1658789620065048,0.8695811398489353,0.4712596322575724,0.25055313954375524
1658789620081048,0.8777599755855654,0.4254825665674833,0.24457160296025027
1658789620097047,0.8726329442282745,0.3549248493171584,0.2334630350194553
1658789620113047,0.8620126649881739,0.41510643167772976,0.24225223163195242
1658789620129058,0.8378423743038068,0.5089799343862058,0.2217441062027925
1658789620145058,0.8367437247272447,0.4682078278782331,0.22125581750209822
1658789620161058,0.8423590447852289,0.39911497672999197,0.2138094148165104
1658789620177058,0.8419928282597082,0.42230869001297044,0.21515220874341967
1658789620193058,0.8313725490196076,0.5150835431448844,0.20685130083161685
1658789620209057,0.8277103837644004,0.5354695963988707,0.2100251773861297
1658789620225057,0.8280766002899211,0.4724803540093081,0.19122606240939977
1658789620241057,0.836377508201724,0.4364690623331047,0.20502021820401328
1658789620257057,0.8335698481727318,0.48871595330739304,0.20050354772259116
1658789620273057,0.816723887998779,0.522285801480125,0.18194857709620837
1658789620289056,0.8085450522621498,0.48786144808117804,0.1868314641031512
1658789620305056,0.8008545052262148,0.5357137407492178,0.19183642328526762
1658789620321056,0.7915770199130234,0.5324177920195314,0.18927290760662263
1658789620337056,0.7808346684977492,0.5600061036087585,0.1911039902342262
1658789620353056,0.7924315251392384,0.5764858472571905,0.1906157015335319
1658789620369055,0.7881589990081634,0.5938200961318376,0.16400396734569345
1658789620385055,0.8035400930800334,0.5408407721065078,0.15387197680628706
1658789620401055,0.7923094529640649,0.5581750209811549,0.1520408941786835
1658789620417055,0.7843747615777827,0.6596169985503932,0.16229495689326345
1658789620433055,0.7635004196231021,0.6707255664911882,0.16180666819256917
1658789620449035,0.7653315022507057,0.6312962539101248,0.13263141832608571
1658789620465035,0.7820553902494849,0.5374227512016478,0.1214007782101163
1658789620481035,0.7752193484397649,0.5901579308766305,0.1289692530708786
1658789620497035,0.7484855420767529,0.7132066834515909,0.10955977721827992
1658789620513034,0.7374990463111315,0.7186999313344016,0.10321202410925423
1658789620529034,0.7381094071869994,0.6543678950179297,0.09564354924849283
1658789620545034,0.7466544594491493,0.5750209811551077,0.10833905546654421
