Timestamp (microseconds),Accel X (g),Accel Y (g),Accel Z (g)
1658789591529785,-0.15411612115663376,0.9517357137407494,0.28790722514686795
1658789591545782,-0.16339360646982515,0.9448996719310294,0.2955977721828029
1658789591561779,-0.16266117341878372,0.9502708476386665,0.29413290608072007
1658789591577776,-0.1644922560463873,0.9553978789959565,0.29254596780346365
1658789591593773,-0.15533684290836947,0.9663843747615779,0.2926680399786372
1658789591609769,-0.1572899977111466,0.9575951781490808,0.2881513694972151
1658789591625766,-0.1607080186160066,0.9694361791409172,0.2888838025482565
1658789591641763,-0.15741206988632017,0.9553978789959565,0.2869306477454794
1658789591657760,-0.15790035858701446,0.9452658884565501,0.2848554207675287
1658789591673757,-0.1619287403677423,0.9542992294193944,0.2886396581979094
1658789591689754,-0.163149462119478,0.97261005569543,0.2881513694972151
1658789591705751,-0.16473640039673443,0.9821316853589686,0.2905928130006865
1658789591721748,-0.15301747158007162,0.9656519417105365,0.2923018234531165
1658789591737745,-0.1493553063248645,0.936476691844053,0.2880292973220415
1658789591753742,-0.16375982299534586,0.9298847943846802,0.28070496681162727
1658789591769739,-0.1694972152285037,0.9710231174181736,0.27911802853437084
1658789591785736,-0.15973144121461802,0.9712672617685207,0.2877851529716944
1658789591801733,-0.15826657511253517,0.9532005798428322,0.28827344167238866
1658789591817730,-0.15704585336079946,0.9413595788509959,0.29340047302967864
1658789591833727,-0.16534676127260228,0.9536888685435265,0.29047074082551294
1658789591849731,-0.16705577172503228,0.9602807660028994,0.2985275043869686
1658789591865728,-0.16375982299534586,0.9469748989089801,0.29962615396353076
1658789591881725,-0.163149462119478,0.9494163424124515,0.29681849393453863
1658789591897722,-0.1660791943236437,0.9698023956664379,0.2955977721828029
1658789591913719,-0.16217288471808944,0.9755397878995957,0.2918135347524222
1658789591929716,-0.1547264820325016,0.9623559929808501,0.2881513694972151
1658789591945713,-0.1493553063248645,0.9374532692454416,0.28168154421301583
1658789591961710,-0.161440451667048,0.9369649805447473,0.28839551384756223
1658789591977707,-0.163149462119478,0.9645532921339743,0.2995040817883572
1658789591993703,-0.16241702906843658,0.9651636530098422,0.28961623559929794
1658789592009700,-0.15545891508354304,0.9468528267338066,0.2888838025482565
1658789592025697,-0.15484855420767518,0.9457541771572444,0.29034866865033937
1658789592041694,-0.16253910124361015,0.9684596017395286,0.29217975127794293
1658789592057691,-0.16009765774013873,0.9658960860608836,0.2976729991607536
1658789592073688,-0.16351567864499872,0.9478294041351951,0.3019455252918286
1658789592089685,-0.1669336995498587,0.9478294041351951,0.2944991226062408
1658789592105682,-0.1581445029373616,0.9539330128938737,0.2838788433661401
1658789592121679,-0.16058594644083302,0.9606469825284201,0.28412298771648725
1658789592137676,-0.15667963683527875,0.9540550850690472,0.2948653391317615
1658789592153673,-0.16534676127260228,0.9337911039902345,0.29669642175936506
1658789592169677,-0.1712062256809337,0.9486839093614101,0.2935225452048522
1658789592185674,-0.16961928740367727,0.9635767147325858,0.2890058747234301
1658789592201671,-0.1652246890974287,0.97261005569543,0.29584191653315006
1658789592217668,-0.16217288471808944,0.9623559929808501,0.3041428244449529
1658789592233665,-0.15973144121461802,0.9431906614785994,0.29132524605172794
1658789592249662,-0.1598535133897916,0.9302510109102009,0.2838788433661401
1658789592265659,-0.16705577172503228,0.9607690547035936,0.2876630807965208
1658789592281656,-0.1619287403677423,0.9773708705271993,0.2852216372930494
1658789592297653,-0.164003967345693,0.9658960860608836,0.29510948348210864
1658789592313650,-0.16668955519951156,0.9584496833752958,0.3014572365911343
1658789592329647,-0.16668955519951156,0.9540550850690472,0.29217975127794293
1658789592345644,-0.1607080186160066,0.9488059815365837,0.29132524605172794
1658789592361641,-0.15838864728770874,0.9517357137407494,0.29376668955519936
1658789592377637,-0.15582513160906375,0.948439765011063,0.2888838025482565
1658789592393634,-0.16546883344777585,0.9577172503242544,0.2850995651178758
1658789592409631,-0.16681162737468513,0.9671168078126193,0.28741893644617367
1658789592425628,-0.17010757610437155,0.9628442816815443,0.2960860608834972
1658789592441625,-0.1686427100022887,0.9541771572442208,0.2990157930876629
1658789592457622,-0.16266117341878372,0.9457541771572444,0.2977950713359272
1658789592473619,-0.16241702906843658,0.9477073319600215,0.28961623559929794
1658789592489502,-0.16461432822156086,0.9665064469367515,0.29547570000762935
1658789592505498,-0.161440451667048,0.9694361791409172,0.2919356069275958
1658789592521494,-0.16424811169604014,0.9500267032883194,0.2919356069275958
1658789592537491,-0.1652246890974287,0.942458228427558,0.2871747920958265
1658789592553487,-0.17047379262989226,0.9522240024414437,0.28790722514686795
1658789592569484,-0.17315938048371082,0.9628442816815443,0.30048065918974576
1658789592585480,-0.16168459601739515,0.9616235599298086,0.29217975127794293
1658789592601477,-0.15802243076218803,0.9466086823834594,0.28241397726405726
1658789592617473,-0.1619287403677423,0.9606469825284201,0.2805828946364537
1658789592633470,-0.16205081254291587,0.9539330128938737,0.2871747920958265
1658789592649466,-0.17584496833752938,0.9605249103532465,0.2860761425192644
1658789592665463,-0.16961928740367727,0.9687037460898758,0.3007248035400929
1658789592681459,-0.15912108033875016,0.9489280537117573,0.3010910200656136
1658789592697456,-0.1569237811856259,0.9365987640192266,0.28827344167238866
1658789592713452,-0.1669336995498587,0.9480735484855423,0.29047074082551294
1658789592729448,-0.1712062256809337,0.973464560921645,0.29205767910276936
1658789592745445,-0.16705577172503228,0.9668726634622722,0.28632028686961153
1658789592761441,-0.15826657511253517,0.9431906614785994,0.281925688563363
1658789592777438,-0.15802243076218803,0.9278095674067295,0.27399099717708086
1658789592793434,-0.16668955519951156,0.948439765011063,0.28741893644617367
1658789592809265,-0.1757228961623558,0.9699244678416115,0.30218966964217575
1658789592825261,-0.17022964827954512,0.9624780651560236,0.29840543221179505
1658789592841257,-0.16815442130159441,0.9545433737697415,0.29291218432898436
1658789592857253,-0.1762111848630501,0.9628442816815443,0.3031662470435643
1658789592873249,-0.1762111848630501,0.9695582513160907,0.3108567940794993
1658789592889245,-0.17096208133058655,0.9710231174181736,0.29962615396353076
1658789592905241,-0.16180666819256873,0.9511253528648815,0.27484550240329586
1658789592921237,-0.163149462119478,0.937331197070268,0.2730144197756923
1658789592937233,-0.1660791943236437,0.9519798580910965,0.28168154421301583
1658789592953229,-0.1694972152285037,0.9588158999008165,0.28412298771648725
1658789592969225,-0.17096208133058655,0.9591821164263372,0.28668650339513224
1658789592985221,-0.163149462119478,0.9477073319600215,0.2888838025482565
1658789593001217,-0.16375982299534586,0.9367208361944002,0.29217975127794293
1658789593017212,-0.17389181353475225,0.9636987869077593,0.30975814450293715
1658789593033208,-0.1795071335927365,1.0003204394598306,0.3184252689402607
1658789593049204,-0.1698634317540244,1.0030060273136492,0.2990157930876629
1658789593065200,-0.15838864728770874,0.9635767147325858,0.29791714351110077
1658789593081196,-0.1514305333028152,0.907179369802396,0.27692072938124657
1658789593097192,-0.16119630731670087,0.8882581826504925,0.2633707179369802
1658789593113188,-0.1703517204547187,0.9409933623254751,0.2670328831921873
1658789593128997,-0.17132829785610726,0.9643091477836272,0.2830243381399251
1658789593144992,-0.1719386587319751,0.9547875181200887,0.28546578164339653
1658789593160987,-0.16437018387121372,0.9430685893034259,0.2926680399786372
1658789593176983,-0.16534676127260228,0.9445334554055087,0.30084687571526647
1658789593192978,-0.17084000915541298,0.9765163653009843,0.3032883192187379
1658789593208973,-0.16668955519951156,0.9818875410086214,0.29083695735103365
1658789593224968,-0.16375982299534586,0.9532005798428322,0.29034866865033937
1658789593240963,-0.16717784390020585,0.9298847943846802,0.28033875028610655
1658789593256958,-0.1757228961623558,0.9486839093614101,0.2943770504310672
1658789593272953,-0.17865262836652152,0.9629663538567179,0.30511940184634145
1658789593288948,-0.1686427100022887,0.9596704051270315,0.2894941634241244
1658789593304943,-0.16339360646982515,0.9334248874647137,0.29047074082551294
1658789593320938,-0.1724269474326694,0.9328145265888459,0.28668650339513224
1658789593336933,-0.17682154573891795,0.9663843747615779,0.2953536278324558
1658789593352928,-0.16937514305333012,0.9796902418554971,0.2974288548104065
1658789593368923,-0.16827649347676799,0.9391622796978716,0.29376668955519936
1658789593384918,-0.17560082398718224,0.9370870527199209,0.2894941634241244
1658789593400913,-0.17779812314030652,0.9638208590829329,0.28998245212481866
1658789593416908,-0.18097199969481936,0.9654077973601893,0.29718471046005934
1658789593432903,-0.1762111848630501,0.9650415808346686,0.3062180514229036
1658789593448791,-0.16925307087815655,0.9512474250400551,0.29925993743801005
1658789593464786,-0.16632333867399085,0.9522240024414437,0.28632028686961153
1658789593480780,-0.17206073090714868,0.9611352712291144,0.2831464103150987
1658789593496775,-0.17718776226443866,0.9626001373311972,0.2835126268406194
1658789593512769,-0.17853055619134794,0.9455100328068973,0.28827344167238866
1658789593528764,-0.17987335011825722,0.9417257953765166,0.29425497825589364
1658789593544758,-0.1791409170672158,0.953566796368353,0.29584191653315006
1658789593560753,-0.1762111848630501,0.9607690547035936,0.2960860608834972
1658789593576748,-0.16937514305333012,0.9530785076676587,0.2914473182269015
1658789593592742,-0.1774319066147858,0.9538109407187001,0.2948653391317615
1658789593608737,-0.1829251544975965,0.9623559929808501,0.2888838025482565
1658789593624731,-0.17840848401617437,0.9600366216525522,0.2902265964751658
1658789593640726,-0.17486839093614082,0.943312733653773,0.28375677119096654
1658789593656720,-0.17340352483405796,0.9428244449530787,0.29205767910276936
1658789593672715,-0.1765774013885708,0.9568627450980394,0.2982833600366215
1658789593688709,-0.1736476691844051,0.9702906843671322,0.2940108339055465
1658789593704704,-0.16754406042572656,0.9472190432593273,0.2914473182269015
1658789593720698,-0.1762111848630501,0.9232928969253074,0.2852216372930494
1658789593736693,-0.18158236057068722,0.9505149919890137,0.29718471046005934
1658789593752688,-0.17865262836652152,0.9575951781490808,0.3007248035400929
1658789593768524,-0.18426794842450578,0.9682154573891815,0.29291218432898436
1658789593784518,-0.17840848401617437,0.970901045243,0.2995040817883572
1658789593800512,-0.1757228961623558,0.9546654459449151,0.2943770504310672
1658789593816506,-0.1770656900892651,0.9436789501792937,0.29584191653315006
1658789593832500,-0.1677882047760737,0.9265888456549938,0.28656443121995867
1658789593848494,-0.18048371099412508,0.9308613717860688,0.28583199816891725
1658789593864488,-0.18426794842450578,0.9668726634622722,0.2948653391317615
1658789593880482,-0.1803616388189515,0.9781033035782407,0.2965743495841915
1658789593896476,-0.17645532921339724,0.9577172503242544,0.2952315556572822
1658789593912470,-0.1749904631113144,0.9462424658579387,0.29083695735103365
1658789593928465,-0.1795071335927365,0.9494163424124515,0.3002365148393986
1658789593944459,-0.17975127794308365,0.9596704051270315,0.3007248035400929
1658789593960453,-0.1770656900892651,0.9579613946746015,0.2905928130006865
1658789593976447,-0.1774319066147858,0.9438010223544673,0.2822919050888837
1658789593992441,-0.17938506141756294,0.943312733653773,0.29010452429999223
1658789594008435,-0.18365758754863792,0.9459983215075916,0.2947432669565879
1658789594024429,-0.18023956664377794,0.9502708476386665,0.29010452429999223
1658789594040423,-0.17804226749065366,0.9350118257419702,0.2835126268406194
1658789594056417,-0.18451209277485292,0.945876249332418,0.29974822613870433
1658789594072411,-0.18561074235141506,0.9680933852140079,0.29962615396353076
1658789594088287,-0.1757228961623558,0.9679713130388343,0.2960860608834972
1658789594104281,-0.17596704051270295,0.9539330128938737,0.29340047302967864
1658789594120274,-0.18048371099412508,0.9419699397268637,0.2890058747234301
1658789594136268,-0.18841840238040763,0.944167238879988,0.2960860608834972
1658789594152261,-0.18402380407415864,0.9569848172732129,0.2905928130006865
1658789594168255,-0.17730983443961224,0.9451438162813766,0.2902265964751658
1658789594184249,-0.17438010223544653,0.9375753414206152,0.28241397726405726
1658789594200242,-0.18365758754863792,0.9422140840772109,0.28790722514686795
1658789594216236,-0.18512245365072078,0.9696803234912643,0.2985275043869686
1658789594232229,-0.18402380407415864,0.9701686121919586,0.2995040817883572
1658789594248223,-0.1795071335927365,0.9626001373311972,0.3024338139925229
1658789594264217,-0.1765774013885708,0.9384298466468302,0.28827344167238866
1658789594280210,-0.18451209277485292,0.9601586938277258,0.2999923704890515
1658789594296204,-0.18780804150453978,0.9679713130388343,0.29877164873731576
1658789594312197,-0.17804226749065366,0.9503929198138401,0.2860761425192644
1658789594328191,-0.17633325703822367,0.9329365987640195,0.2800946059357594
1658789594344185,-0.18536659800106792,0.9423361562523844,0.2814373998626687
1658789594360178,-0.19122606240939977,0.9732204165712979,0.29425497825589364
1658789594376172,-0.1914702067597469,0.978591592278935,0.29925993743801005
1658789594392165,-0.18780804150453978,0.9577172503242544,0.2938887617303729
1658789594408081,-0.18597695887693577,0.943312733653773,0.29510948348210864
1658789594424074,-0.18634317540245648,0.9643091477836272,0.29706263828488577
1658789594440067,-0.18280308232242293,0.9630884260318915,0.29755092698558006
1658789594456060,-0.18194857709620793,0.9519798580910965,0.28278019378957797
1658789594472053,-0.18365758754863792,0.9435568780041201,0.280216678110933
1658789594488046,-0.18805218585488692,0.9490501258869308,0.2881513694972151
1658789594504039,-0.19330128938735047,0.9478294041351951,0.3036545357442586
1658789594520033,-0.18951705195696977,0.9563744563973451,0.31122301060502
1658789594536026,-0.18048371099412508,0.9528343633173115,0.3037766079194322
1658789594552019,-0.17669947356374438,0.9494163424124515,0.28827344167238866
1658789594568012,-0.18451209277485292,0.9594262607766844,0.29925993743801005
1658789594584005,-0.1867093919279772,0.9600366216525522,0.2990157930876629
1658789594599998,-0.18231479362172864,0.9508812085145344,0.3031662470435643
1658789594615991,-0.17962920576791008,0.9344014648661023,0.2955977721828029
1658789594631984,-0.17987335011825722,0.937331197070268,0.28961623559929794
1658789594647977,-0.18451209277485292,0.9494163424124515,0.29254596780346365
1658789594663971,-0.1829251544975965,0.9638208590829329,0.30096894789044004
1658789594679964,-0.17682154573891795,0.9601586938277258,0.3014572365911343
1658789594695957,-0.1703517204547187,0.9456321049820708,0.2936446173800258
1658789594711950,-0.17584496833752938,0.9335469596398873,0.2886396581979094
1658789594727813,-0.1791409170672158,0.928786144808118,0.2924238956282901
1658789594743806,-0.18365758754863792,0.943312733653773,0.30597390707255645
1658789594759799,-0.18060578316929865,0.9533226520180058,0.30255588616769646
1658789594775791,-0.18280308232242293,0.9540550850690472,0.3041428244449529
1658789594791784,-0.18426794842450578,0.9541771572442208,0.3075608453498129
1658789594807777,-0.18219272144655507,0.9582055390249486,0.2977950713359272
1658789594823769,-0.1753566796368351,0.9506370641641873,0.3007248035400929
1658789594839762,-0.17633325703822367,0.9314717326619366,0.2914473182269015
1658789594855754,-0.18390173189898507,0.9301289387350273,0.29584191653315006
1658789594871747,-0.18805218585488692,0.9503929198138401,0.2964522774090179
1658789594887740,-0.18097199969481936,0.96577401388571,0.29462119478141435
1658789594903732,-0.17425803006027296,0.9584496833752958,0.29840543221179505
1658789594919725,-0.17669947356374438,0.946730754558633,0.3014572365911343
1658789594935718,-0.18524452582589435,0.9412375066758223,0.30560769054703574
1658789594951710,-0.1812161440451665,0.9572289616235601,0.30133516441596075
1658789594967703,-0.1820706492713815,0.9533226520180058,0.29681849393453863
1658789594983696,-0.1832913710231172,0.9470969710841537,0.2919356069275958
1658789594999688,-0.1808499275196458,0.9490501258869308,0.2999923704890515
1658789595015681,-0.18744182497901862,0.9474631876096744,0.30463111314564717
1658789595031674,-0.18158236057068722,0.9490501258869308,0.30096894789044004
1658789595047577,-0.18866254673075478,0.952712291142138,0.3029221026932172
1658789595063569,-0.18536659800106792,0.9644312199588008,0.30511940184634145
1658789595079562,-0.18158236057068722,0.9667505912870986,0.30463111314564717
1658789595095554,-0.17767605096513295,0.9448996719310294,0.3023117418173493
1658789595111547,-0.1787747005416951,0.9298847943846802,0.2935225452048522
1658789595127540,-0.1837796597238115,0.9348897535667966,0.28546578164339653
1658789595143532,-0.19037155718318477,0.9470969710841537,0.29169146257724865
1658789595159525,-0.19012741283283763,0.9636987869077593,0.30560769054703574
1658789595175518,-0.18133821622034008,0.9652857251850158,0.3031662470435643
1658789595191510,-0.17608911268787653,0.9479514763103687,0.2985275043869686
1658789595207503,-0.17425803006027296,0.9324483100633252,0.3020675974670022
1658789595223496,-0.18609903105210934,0.9365987640192266,0.30475318532082074
1658789595239488,-0.18976119630731692,0.9578393224994279,0.3036545357442586
1658789595255481,-0.1858548867017622,0.9677271686884872,0.29596398870832363
1658789595271474,-0.1779201953154801,0.9536888685435265,0.2914473182269015
1658789595287466,-0.17547875181200867,0.9325703822384988,0.2947432669565879
1658789595303459,-0.18512245365072078,0.9503929198138401,0.30096894789044004
1658789595319451,-0.19073777370870548,0.9632104982070651,0.3098802166781107
1658789595335444,-0.18426794842450578,0.9417257953765166,0.3036545357442586
1658789595351437,-0.18182650492103436,0.9247577630273902,0.2986495765621422
1658789595367309,-0.1867093919279772,0.944167238879988,0.3020675974670022
1658789595383301,-0.1867093919279772,0.9661402304112308,0.2991378652628365
1658789595399294,-0.18744182497901862,0.9655298695353629,0.2999923704890515
1658789595415286,-0.1862211032272829,0.949294270237278,0.29425497825589364
1658789595431278,-0.1832913710231172,0.9387960631723509,0.2957198443579765
1658789595447270,-0.18683146410315077,0.937331197070268,0.3007248035400929
1658789595463262,-0.1885404745555812,0.943312733653773,0.3037766079194322
1658789595479254,-0.1837796597238115,0.9453879606317237,0.3074387731746393
1658789595495247,-0.1911039902342262,0.955275806820783,0.306950484473945
1658789595511239,-0.1862211032272829,0.9569848172732129,0.2957198443579765
1658789595527231,-0.18756389715419264,0.948439765011063,0.2931563286793315
1658789595543223,-0.1867093919279772,0.9503929198138401,0.2990157930876629
1658789595559215,-0.1854886701762415,0.9451438162813766,0.3007248035400929
1658789595575207,-0.18634317540245648,0.943312733653773,0.30060273136491933
1658789595591199,-0.18658731975280363,0.9290302891584652,0.29718471046005934
1658789595607192,-0.1969634546425576,0.9442893110551616,0.30182345311665504
1658789595623184,-0.18988326848249049,0.9711451895933472,0.30267795834287003
1658789595639176,-0.18097199969481936,0.9644312199588008,0.2952315556572822
1658789595655168,-0.1846341649500265,0.9494163424124515,0.29706263828488577
1658789595671160,-0.1858548867017622,0.9403830014496073,0.3048752574959943
1658789595687103,-0.19037155718318477,0.9372091248950944,0.3015793087663079
1658789595703095,-0.18963912413214334,0.9551537346456094,0.2986495765621422
1658789595719086,-0.18695353627832434,0.9584496833752958,0.2985275043869686
1658789595735078,-0.1919584954604412,0.9525902189669644,0.29681849393453863
1658789595751070,-0.19464408331425975,0.9610131990539408,0.29925993743801005
1658789595767061,-0.18744182497901862,0.9604028381780729,0.3037766079194322
1658789595783053,-0.17840848401617437,0.9355001144426645,0.2985275043869686
1658789595799045,-0.18072785534447222,0.9275654230563823,0.28741893644617367
1658789595815036,-0.19452201113908618,0.940749217975128,0.27997253376058584
1658789595831028,-0.19269092851148262,0.951857785915923,0.27325856412603944
1658789595847020,-0.19415579461356547,0.9563744563973451,0.26605630579079875
1658789595863011,-0.19720759899290474,0.9597924773022051,0.2847333485923551
1658789595879003,-0.1948882276646069,0.9615014877546351,0.305241474021515
1658789595894995,-0.19122606240939977,0.9658960860608836,0.3119554436560614
1658789595910987,-0.1911039902342262,0.9577172503242544,0.30939192797741644
1658789595926978,-0.19171435111009405,0.9550316624704358,0.3032883192187379
1658789595942970,-0.1914702067597469,0.951857785915923,0.2914473182269015
1658789595958962,-0.1957427328908219,0.9549095902952622,0.29303425650415793
1658789595974953,-0.18793011367971335,0.9508812085145344,0.29132524605172794
1658789595990945,-0.18439002059967935,0.928786144808118,0.2847333485923551
1658789596006836,-0.19159227893492048,0.9342793926909287,0.2804608224612801
1658789596022827,-0.1923247119859619,0.9514915693904022,0.2897383077744715
1658789596038818,-0.18829633020523406,0.9588158999008165,0.3057297627222093
1658789596054809,-0.18683146410315077,0.9445334554055087,0.30926985580224287
1658789596070800,-0.18915083543144906,0.9447775997558558,0.30182345311665504
1658789596086792,-0.18780804150453978,0.9486839093614101,0.2943770504310672
1658789596102783,-0.19159227893492048,0.9517357137407494,0.28253604943923083
1658789596118774,-0.1832913710231172,0.9489280537117573,0.28668650339513224
1658789596134765,-0.18439002059967935,0.9383077744716566,0.2915693904020751
1658789596150756,-0.18829633020523406,0.9423361562523844,0.29425497825589364
1658789596166748,-0.19427786678873904,0.9423361562523844,0.3010910200656136
1658789596182739,-0.19794003204394617,0.9473411154345008,0.30438696879530003
1658789596198730,-0.19012741283283763,0.9541771572442208,0.3032883192187379
1658789596214721,-0.18426794842450578,0.9538109407187001,0.2991378652628365
1658789596230713,-0.19037155718318477,0.9558861676966508,0.2953536278324558
1658789596246704,-0.18963912413214334,0.9512474250400551,0.29877164873731576
1658789596262695,-0.19037155718318477,0.9494163424124515,0.29132524605172794
1658789596278686,-0.18866254673075478,0.940749217975128,0.29217975127794293
1658789596294677,-0.1978179598687726,0.939894712748913,0.30048065918974576
1658789596310669,-0.19794003204394617,0.9530785076676587,0.29669642175936506
1658789596326599,-0.1969634546425576,0.9469748989089801,0.2995040817883572
1658789596342590,-0.19513237201495404,0.9436789501792937,0.3014572365911343
1658789596358581,-0.19671931029221046,0.9679713130388343,0.3107347219043257
1658789596374572,-0.19391165026321833,0.9589379720759901,0.3049973296711679
1658789596390564,-0.19378957808804476,0.9456321049820708,0.2977950713359272
1658789596406555,-0.19366750591287119,0.9435568780041201,0.2973067826352329
1658789596422546,-0.1919584954604412,0.9358663309681852,0.29205767910276936
1658789596438537,-0.19549858854047475,0.9395284962233923,0.29462119478141435
1658789596454528,-0.19806210421911974,0.9409933623254751,0.3079270618753336
1658789596470520,-0.1965972381170369,0.9502708476386665,0.3020675974670022
1658789596486511,-0.19720759899290474,0.9574731059739072,0.30597390707255645
1658789596502502,-0.19537651636530118,0.9507591363393608,0.30951400015259
1658789596518493,-0.19366750591287119,0.9499046311131458,0.30951400015259
1658789596534484,-0.1978179598687726,0.9395284962233923,0.3032883192187379
1658789596550476,-0.19586480506599546,0.942458228427558,0.30060273136491933
1658789596566467,-0.18915083543144906,0.9375753414206152,0.29217975127794293
1658789596582458,-0.19049362935835834,0.9409933623254751,0.2894941634241244
1658789596598449,-0.18878461890592835,0.9521019302662701,0.29596398870832363
1658789596614441,-0.19012741283283763,0.9372091248950944,0.29596398870832363
1658789596630432,-0.20062561989776473,0.9346456092164495,0.3007248035400929
1658789596646331,-0.20721751735713756,0.953566796368353,0.3036545357442586
1658789596662322,-0.20172426947432687,0.9771267261768521,0.3125658045319293
1658789596678313,-0.18756389715419264,0.9621118486305029,0.2995040817883572
1658789596694304,-0.18573281452658863,0.9363546196688795,0.28656443121995867
1658789596710294,-0.1931792172121769,0.9472190432593273,0.2850995651178758
1658789596726285,-0.1928130006866562,0.9573510337987337,0.2960860608834972
1658789596742276,-0.1940337224383919,0.9423361562523844,0.2918135347524222
1658789596758267,-0.19562066071564832,0.9337911039902345,0.2940108339055465
1658789596774257,-0.20465400167849257,0.949294270237278,0.30463111314564717
1658789596790248,-0.20379949645227757,0.9617456321049822,0.3057297627222093
1658789596806239,-0.201968413824674,0.9589379720759901,0.3091477836270693
1658789596822229,-0.1893949797817962,0.9355001144426645,0.30341039139391146
1658789596838220,-0.19501029983978047,0.9324483100633252,0.30096894789044004
1658789596854211,-0.202822919050889,0.9538109407187001,0.30804913405050716
1658789596870202,-0.20306706340123615,0.9573510337987337,0.3014572365911343
1658789596886192,-0.20294499122606258,0.9434348058289466,0.3032883192187379
1658789596902183,-0.19269092851148262,0.939040207522698,0.30060273136491933
1658789596918174,-0.19452201113908618,0.9270771343556881,0.3104905775539786
1658789596934165,-0.203677424277104,0.9402609292744337,0.3157396810864421
1658789596950155,-0.201113908598459,0.9658960860608836,0.3191577019913021
1658789596966064,-0.1969634546425576,0.9553978789959565,0.3014572365911343
1658789596982054,-0.19476615548943332,0.949294270237278,0.2995040817883572
1658789596998045,-0.19537651636530118,0.934767681391623,0.3081712062256807
1658789597014035,-0.19769588769359903,0.9285420004577709,0.30609597924773
1658789597030025,-0.1965972381170369,0.9425803006027316,0.3065842679484243
1658789597046015,-0.19012741283283763,0.9447775997558558,0.3062180514229036
1658789597062006,-0.19305714503700333,0.9417257953765166,0.30560769054703574
1658789597077996,-0.20062561989776473,0.9453879606317237,0.3162279697871364
1658789597093986,-0.19757381551842546,0.943312733653773,0.3162279697871364
1658789597109976,-0.19671931029221046,0.9439230945296408,0.31683833066300426
1658789597125967,-0.19293507286182976,0.9466086823834594,0.31232166018158214
1658789597141957,-0.1952544441901276,0.9397726405737394,0.31476310368505356
1658789597157947,-0.20050354772259116,0.9452658884565501,0.3128099488822764
1658789597173937,-0.20013733119707044,0.9397726405737394,0.3108567940794993
1658789597189928,-0.1978179598687726,0.9300068665598538,0.3117112993057143
1658789597205918,-0.19720759899290474,0.9292744335088123,0.3058518348973829
1658789597221908,-0.19562066071564832,0.9389181353475244,0.31110093842984643
1658789597237898,-0.20233463035019472,0.9456321049820708,0.31134508278019357
1658789597253889,-0.202822919050889,0.9582055390249486,0.3153734645609214
1658789597269879,-0.20086976424811187,0.9519798580910965,0.31647211413748355
1658789597285827,-0.19305714503700333,0.9406271457999544,0.30939192797741644
1658789597301818,-0.1906157015335319,0.9282978561074238,0.3012130922407872
1658789597317808,-0.2016021972991533,0.941603723201343,0.31012436102845786
1658789597333798,-0.2003814755474176,0.9600366216525522,0.310368505378805
1658789597349788,-0.19598687724116903,0.942458228427558,0.3082932784008543
1658789597365779,-0.19549858854047475,0.9301289387350273,0.313786526283665
1658789597381769,-0.203677424277104,0.9435568780041201,0.31439688715953285
1658789597397759,-0.19964904249637616,0.9619897764553293,0.3179369802395664
1658789597413749,-0.19000534065766406,0.9429465171282523,0.3041428244449529
1658789597429740,-0.19464408331425975,0.9280537117570766,0.29547570000762935
1658789597445730,-0.201968413824674,0.9434348058289466,0.3048752574959943
1658789597461720,-0.20221255817502115,0.9611352712291144,0.3087815671015486
1658789597477710,-0.20123598077363258,0.953566796368353,0.31110093842984643
1658789597493701,-0.19342336156252404,0.932204165712978,0.32196536202029424
1658789597509691,-0.201113908598459,0.9151140611886781,0.31488517586022713
1658789597525681,-0.201968413824674,0.9328145265888459,0.29633020523384435
1658789597541671,-0.20001525902189687,0.9701686121919586,0.30646219577325073
1658789597557662,-0.19598687724116903,0.9718776226443886,0.3015793087663079
1658789597573652,-0.19171435111009405,0.9402609292744337,0.3007248035400929
1658789597589642,-0.19671931029221046,0.9171892881666288,0.31305409323262356
1658789597605590,-0.20685130083161685,0.9232928969253074,0.31866941329060783
1658789597621581,-0.21136797131303897,0.9444113832303351,0.3208667124437321
1658789597637571,-0.20135805294880615,0.9562523842221715,0.3142748149843593
1658789597653561,-0.19769588769359903,0.9435568780041201,0.29877164873731576
1658789597669551,-0.19830624856946688,0.9464866102082858,0.31122301060502
1658789597685542,-0.19745174334325188,0.9459983215075916,0.31097886625467286
1658789597701532,-0.19708552681773117,0.9326924544136723,0.3014572365911343
1658789597717522,-0.20025940337224402,0.9315938048371102,0.3003585870145722
1658789597733513,-0.20099183642328544,0.9417257953765166,0.3040207522697793
1658789597749503,-0.20819409475852613,0.9522240024414437,0.3165941863126571
1658789597765493,-0.20733958953231113,0.9627222095063708,0.3170824750133514
1658789597781483,-0.19745174334325188,0.9402609292744337,0.30438696879530003
1658789597797474,-0.19391165026321833,0.9214618142977038,0.3074387731746393
1658789597813464,-0.19977111467154973,0.9276874952315559,0.3104905775539786
1658789597829454,-0.20782787823300541,0.9496604867627987,0.31403067063401213
1658789597845444,-0.20819409475852613,0.9607690547035936,0.3100022888532843
1658789597861435,-0.20148012512397973,0.9541771572442208,0.3058518348973829
1658789597877425,-0.19757381551842546,0.9348897535667966,0.3074387731746393
1658789597893415,-0.19916075379568188,0.9374532692454416,0.3125658045319293
1658789597909405,-0.20318913557640972,0.9359884031433587,0.31512932021057427
1658789597925354,-0.20892652780956755,0.9278095674067295,0.3145189593347064
1658789597941343,-0.21344319829098968,0.9355001144426645,0.312077515831235
1658789597957333,-0.21368734264133682,0.9591821164263372,0.3167162584878307
1658789597973323,-0.20794995040817899,0.9673609521629665,0.31683833066300426
1658789597989313,-0.202822919050889,0.9486839093614101,0.3074387731746393
1658789598005303,-0.19855039291981402,0.9323262378881516,0.30926985580224287
1658789598021292,-0.2048981460288397,0.9328145265888459,0.31061264972915215
1658789598037282,-0.20819409475852613,0.9351338979171437,0.3067063401235979
1658789598053272,-0.21185626001373326,0.9345235370412759,0.30731670099946573
1658789598069262,-0.202822919050889,0.945021744106203,0.31219958800640857
1658789598085251,-0.20648508430609613,0.9524681467917908,0.3174486915388721
1658789598101241,-0.20965896086060898,0.9594262607766844,0.31525139238574784
1658789598117231,-0.20733958953231113,0.954421301594568,0.3187914854657814
1658789598133221,-0.201968413824674,0.9352559700923173,0.3142748149843593
1658789598149211,-0.20306706340123615,0.9225604638742659,0.3074387731746393
1658789598165200,-0.2095368886854354,0.948439765011063,0.30841535057602787
1658789598181190,-0.20672922865644328,0.9575951781490808,0.30719462882429216
1658789598197180,-0.20355535210193043,0.950148775463493,0.2998702983138779
1658789598213170,-0.19940489814602902,0.9336690318150609,0.30548561837186217
1658789598229159,-0.20025940337224402,0.9203631647211417,0.31598382543678927
1658789598245086,-0.21026932173647683,0.9335469596398873,0.3128099488822764
1658789598261076,-0.21356527046616325,0.9459983215075916,0.30463111314564717
1658789598277066,-0.2083161669336997,0.9505149919890137,0.3082932784008543
1658789598293056,-0.19745174334325188,0.9391622796978716,0.3087815671015486
1658789598309045,-0.19928282597085545,0.9298847943846802,0.3067063401235979
1658789598325035,-0.20172426947432687,0.9425803006027316,0.3045090409704736
1658789598341025,-0.2016021972991533,0.943312733653773,0.30841535057602787
1658789598357015,-0.20477607385366614,0.9352559700923173,0.3079270618753336
1658789598373005,-0.20733958953231113,0.9348897535667966,0.30926985580224287
1658789598388994,-0.2124666208896011,0.9499046311131458,0.31647211413748355
1658789598404984,-0.21234454871442754,0.9401388570992602,0.31866941329060783
1658789598420974,-0.20379949645227757,0.9308613717860688,0.31061264972915215
1658789598436964,-0.19916075379568188,0.9320820935378045,0.31024643320363143
1658789598452953,-0.20502021820401328,0.9496604867627987,0.29462119478141435
1658789598468943,-0.20502021820401328,0.9571068894483865,0.3098802166781107
1658789598484933,-0.21258869306477468,0.9380636301213094,0.31122301060502
1658789598500923,-0.21405355916685753,0.9355001144426645,0.31439688715953285
1658789598516913,-0.20978103303578255,0.9466086823834594,0.30975814450293715
1658789598532902,-0.20782787823300541,0.951857785915923,0.32196536202029424
1658789598548892,-0.20697337300679042,0.943312733653773,0.3125658045319293
1658789598564849,-0.20770580605783184,0.9355001144426645,0.305241474021515
1658789598580839,-0.21014724956130326,0.9567406729228658,0.31110093842984643
1658789598596828,-0.20636301213092256,0.9505149919890137,0.31110093842984643
1658789598612817,-0.20587472343022828,0.9436789501792937,0.31219958800640857
1658789598628807,-0.2083161669336997,0.9502708476386665,0.30951400015259
1658789598644796,-0.2086823834592204,0.948439765011063,0.30682841229877145
1658789598660785,-0.20636301213092256,0.9409933623254751,0.3117112993057143
1658789598676775,-0.20502021820401328,0.933913176165408,0.3179369802395664
1658789598692764,-0.21051346608682397,0.936476691844053,0.31219958800640857
1658789598708753,-0.2086823834592204,0.9341573205157552,0.31122301060502
1658789598724743,-0.2167391470206761,0.9348897535667966,0.3067063401235979
1658789598740732,-0.20819409475852613,0.9358663309681852,0.31561760891126855
1658789598756721,-0.21014724956130326,0.9428244449530787,0.31976806286716997
1658789598772710,-0.20941481651026184,0.9525902189669644,0.31598382543678927
1658789598788700,-0.2066071564812697,0.9323262378881516,0.31232166018158214
1658789598804689,-0.20770580605783184,0.9231708247501338,0.317204547188525
1658789598820678,-0.2066071564812697,0.9357442587930116,0.31476310368505356
1658789598836668,-0.20794995040817899,0.939894712748913,0.31610589761196284
1658789598852657,-0.2103913939116504,0.9312275883115895,0.30975814450293715
1658789598868646,-0.21185626001373326,0.931349660486763,0.3115892271305407
1658789598884582,-0.20440985732814543,0.9387960631723509,0.31464103150988
1658789598900571,-0.2003814755474176,0.9439230945296408,0.31219958800640857
1658789598916561,-0.19964904249637616,0.9473411154345008,0.3098802166781107
1658789598932550,-0.20819409475852613,0.9408712901503016,0.3082932784008543
1658789598948539,-0.21149004348821254,0.9374532692454416,0.3205004959182114
1658789598964529,-0.2095368886854354,0.9423361562523844,0.32440680552376566
1658789598980518,-0.202822919050889,0.9395284962233923,0.3108567940794993
1658789598996507,-0.1969634546425576,0.9232928969253074,0.30548561837186217
1658789599012497,-0.20062561989776473,0.9149919890135045,0.3010910200656136
1658789599028486,-0.206240939955749,0.9276874952315559,0.3162279697871364
1658789599044475,-0.21393148699168396,0.9392843518730452,0.31854734111543426
1658789599060464,-0.23163195239185175,0.9558861676966508,0.31488517586022713
1658789599076454,-0.22211032272831321,0.970046540016785,0.31805905241474
1658789599092443,-0.21026932173647683,0.935622186617838,0.3220874341954678
1658789599108432,-0.207095445181964,0.9153582055390252,0.31854734111543426
1658789599124422,-0.20978103303578255,0.9331807431143666,0.308659494926375
1658789599140411,-0.21722743572137038,0.9423361562523844,0.30804913405050716
1658789599156400,-0.2255283436331732,0.9577172503242544,0.3195239185168228
1658789599172390,-0.2188143739986268,0.9525902189669644,0.313786526283665
1658789599188379,-0.20978103303578255,0.9362325474937059,0.30597390707255645
1658789599204345,-0.21405355916685753,0.9341573205157552,0.3012130922407872
1658789599220335,-0.21637293049515538,0.9491721980621044,0.31134508278019357
1658789599236324,-0.2150301365682461,0.952712291142138,0.3124437323567557
1658789599252313,-0.21136797131303897,0.9440451667048144,0.312077515831235
1658789599268303,-0.20978103303578255,0.9269550621805145,0.3010910200656136
1658789599284292,-0.22247653925383393,0.9340352483405816,0.3014572365911343
1658789599300281,-0.22369726100556964,0.9805447470817121,0.3132982375829707
1658789599316270,-0.21490806439307253,0.9571068894483865,0.31512932021057427
1658789599332260,-0.2091706721599147,0.9164568551155874,0.3145189593347064
1658789599348249,-0.22064545662623036,0.899488822766461,0.31635004196231
1658789599364238,-0.2267490653849089,0.948439765011063,0.3153734645609214
1658789599380228,-0.21393148699168396,0.9679713130388343,0.30304417486839075
1658789599396217,-0.20843823910887327,0.949294270237278,0.3037766079194322
1658789599412206,-0.2150301365682461,0.9365987640192266,0.30682841229877145
1658789599428196,-0.2196688792248418,0.9369649805447473,0.32367437247272424
1658789599444185,-0.21283283741512182,0.9314717326619366,0.31305409323262356
1658789599460174,-0.2124666208896011,0.9290302891584652,0.30389868009460574
1658789599476163,-0.20733958953231113,0.933913176165408,0.30841535057602787
1658789599492153,-0.21637293049515538,0.9429465171282523,0.31439688715953285
1658789599508142,-0.22027924010070965,0.9584496833752958,0.31061264972915215
1658789599524078,-0.20978103303578255,0.9436789501792937,0.30853742275120144
1658789599540067,-0.2121004043640804,0.9220721751735717,0.31122301060502
1658789599556056,-0.22125581750209822,0.9422140840772109,0.31818112458991354
1658789599572044,-0.22540627145799963,0.9579613946746015,0.3263599603265428
1658789599588033,-0.21686121919584966,0.9514915693904022,0.317204547188525
1658789599604022,-0.20428778515297186,0.9298847943846802,0.3012130922407872
1658789599620011,-0.20904859998474112,0.9203631647211417,0.2999923704890515
1658789599636000,-0.21857022964827966,0.9566186007476922,0.312077515831235
1658789599651989,-0.22076752880140393,0.9539330128938737,0.3179369802395664
1658789599667977,-0.21722743572137038,0.9359884031433587,0.31561760891126855
1658789599683966,-0.2103913939116504,0.9226825360494395,0.3098802166781107
1658789599699955,-0.21893644617380037,0.9380636301213094,0.31989013504234354
1658789599715944,-0.22198825055313964,0.9713893339436943,0.32489509422445995
1658789599731933,-0.21136797131303897,0.9623559929808501,0.31781490806439283
1658789599747922,-0.20392156862745114,0.9262226291294731,0.3075608453498129
1658789599763910,-0.203677424277104,0.8992446784161139,0.3067063401235979
1658789599779899,-0.21393148699168396,0.9275654230563823,0.3136644541084914
1658789599795888,-0.21307698176546896,0.9507591363393608,0.3218432898451207
1658789599811877,-0.21258869306477468,0.9494163424124515,0.3217212176699471
1658789599827866,-0.20379949645227757,0.9362325474937059,0.33197528038452706
1658789599843872,-0.20563057907988114,0.9251239795529109,0.33197528038452706
1658789599859861,-0.2171053635461968,0.9406271457999544,0.33417257953765134
1658789599875849,-0.21649500267032895,0.9738307774471657,0.3468680857557027
1658789599891838,-0.21393148699168396,0.9568627450980394,0.3392996108949413
1658789599907827,-0.1981841763942933,0.9190203707942324,0.31354238193331785
1658789599923816,-0.19769588769359903,0.8950942244602125,0.29718471046005934
1658789599939805,-0.2003814755474176,0.8859388113221947,0.29633020523384435
1658789599955793,-0.21893644617380037,0.9043717097734039,0.31097886625467286
1658789599971782,-0.22613870450904106,0.9616235599298086,0.3306324864576178
1658789599987771,-0.21612878614480824,0.9665064469367515,0.3225757228961621
1658789600003760,-0.20526436255436042,0.9319600213626309,0.33282978561074206
1658789600019749,-0.204531929503319,0.9036392767223624,0.3356374456397342
1658789600035738,-0.2191805905241475,0.9168230716411081,0.3309987029831385
1658789600051726,-0.21747158007171752,0.9580834668497751,0.32660410467688994
1658789600067715,-0.21051346608682397,0.9719996948195622,0.31561760891126855
1658789600083704,-0.19977111467154973,0.9540550850690472,0.3040207522697793
1658789600099693,-0.20318913557640972,0.9436789501792937,0.3002365148393986
1658789600115682,-0.20184634164950044,0.9533226520180058,0.3040207522697793
1658789600131671,-0.20123598077363258,0.9417257953765166,0.31183337148088786
1658789600147659,-0.2048981460288397,0.9447775997558558,0.3067063401235979
1658789600163604,-0.1978179598687726,0.9499046311131458,0.2965743495841915
1658789600179593,-0.19671931029221046,0.9486839093614101,0.3002365148393986
1658789600195582,-0.20404364080262472,0.9468528267338066,0.31183337148088786
1658789600211571,-0.21454184786755182,0.9562523842221715,0.31464103150988
1658789600227560,-0.20050354772259116,0.9705348287174793,0.2981612878614479
1658789600243548,-0.19037155718318477,0.9494163424124515,0.2804608224612801
1658789600259537,-0.19269092851148262,0.9223163195239188,0.3058518348973829
1658789600275526,-0.20343327992675686,0.929640650034333,0.31354238193331785
1658789600291515,-0.20733958953231113,0.9588158999008165,0.30939192797741644
1658789600307504,-0.201113908598459,0.9600366216525522,0.3053635461966886
1658789600323493,-0.1961089494163426,0.9301289387350273,0.30170138094148147
1658789600339481,-0.20563057907988114,0.9158464942397195,0.3167162584878307
1658789600355470,-0.20929274433508827,0.941603723201343,0.31903562981612854
1658789600371459,-0.20050354772259116,0.9538109407187001,0.31268787670710285
1658789600387448,-0.1906157015335319,0.9490501258869308,0.30438696879530003
1658789600403437,-0.18390173189898507,0.933058670939193,0.30634012359807716
1658789600419426,-0.19586480506599546,0.9300068665598538,0.32562752727550137
1658789600435414,-0.1998931868467233,0.9562523842221715,0.32147707331959996
1658789600451403,-0.1928130006866562,0.9494163424124515,0.31293202105745
1658789600467392,-0.19220263981078833,0.9251239795529109,0.30890363927672215
1658789600483368,-0.19501029983978047,0.9259784847791259,0.31805905241474
1658789600499356,-0.20172426947432687,0.9551537346456094,0.3234302281223771
1658789600515345,-0.1911039902342262,0.9694361791409172,0.3218432898451207
1658789600531334,-0.17975127794308365,0.9300068665598538,0.3213550011444264
1658789600547323,-0.18231479362172864,0.9027847714961474,0.3096360723277636
1658789600563312,-0.19562066071564832,0.933913176165408,0.3145189593347064
1658789600579301,-0.19647516594186332,0.9583276112001222,0.31732661936369855
1658789600595289,-0.18915083543144906,0.9479514763103687,0.3142748149843593
1658789600611278,-0.18536659800106792,0.9229266803997866,0.31525139238574784
1658789600627267,-0.19391165026321833,0.9280537117570766,0.32062256809338496
1658789600643256,-0.1986724650949876,0.9567406729228658,0.34088654917219774
1658789600659245,-0.19171435111009405,0.945876249332418,0.3263599603265428
1658789600675233,-0.1850003814755472,0.9206073090714888,0.32452887769893923
1658789600691222,-0.1943999389639126,0.9143816281376367,0.3275806820782785
1658789600707211,-0.20526436255436042,0.941603723201343,0.3250171663996335
1658789600723200,-0.1965972381170369,0.945876249332418,0.3220874341954678
1658789600739189,-0.19208056763561476,0.9379415579461359,0.3167162584878307
1658789600755178,-0.18475623712520006,0.9292744335088123,0.3259937438010221
1658789600771166,-0.19342336156252404,0.9402609292744337,0.3272144655527578
1658789600787155,-0.1986724650949876,0.9612573434042879,0.32953383688105564
1658789600803131,-0.19427786678873904,0.9447775997558558,0.3246509498741128
1658789600819120,-0.1923247119859619,0.9149919890135045,0.3195239185168228
1658789600835108,-0.19647516594186332,0.9269550621805145,0.3191577019913021
1658789600851097,-0.19501029983978047,0.9596704051270315,0.32269779507133567
1658789600867086,-0.19085984588387905,0.9617456321049822,0.31769283588921926
1658789600883075,-0.18182650492103436,0.9314717326619366,0.32159914549477353
1658789600899064,-0.1885404745555812,0.9049820706492717,0.3196459906919964
1658789600915053,-0.20233463035019472,0.9369649805447473,0.32526131074998066
1658789600931041,-0.2016021972991533,0.9690699626153965,0.32990005340657635
1658789600947030,-0.1923247119859619,0.9596704051270315,0.31732661936369855
1658789600963019,-0.1867093919279772,0.9247577630273902,0.32196536202029424
1658789600979008,-0.19073777370870548,0.9208514534218359,0.3196459906919964
1658789600994997,-0.19757381551842546,0.9335469596398873,0.32367437247272424
1658789601010985,-0.19928282597085545,0.9447775997558558,0.3262378881513692
1658789601026974,-0.20050354772259116,0.9300068665598538,0.3209887846189057
1658789601042963,-0.20257877470054186,0.9337911039902345,0.31854734111543426
1658789601058952,-0.2048981460288397,0.9608911268787672,0.3217212176699471
1658789601074941,-0.19916075379568188,0.9599145494773786,0.32733653772793136
1658789601090930,-0.18890669108110192,0.9333028152895402,0.3200122072175171
1658789601106918,-0.1957427328908219,0.9154802777141988,0.32062256809338496
1658789601122863,-0.20001525902189687,0.933058670939193,0.3258716716258485
1658789601138852,-0.20123598077363258,0.9431906614785994,0.3157396810864421
1658789601154840,-0.19427786678873904,0.9469748989089801,0.3132982375829707
1658789601170828,-0.19940489814602902,0.9427023727779051,0.3162279697871364
1658789601186817,-0.20892652780956755,0.9593041886015108,0.32648203250171637
1658789601202805,-0.205386434729534,0.9522240024414437,0.3372243839169906
1658789601218793,-0.19830624856946688,0.9341573205157552,0.32831311512931993
1658789601234782,-0.1919584954604412,0.9248798352025638,0.3125658045319293
1658789601250770,-0.19794003204394617,0.937331197070268,0.3201342793926907
1658789601266759,-0.20257877470054186,0.9490501258869308,0.3217212176699471
1658789601282747,-0.20428778515297186,0.9419699397268637,0.31805905241474
1658789601298735,-0.19964904249637616,0.9320820935378045,0.313786526283665
1658789601314724,-0.19586480506599546,0.9346456092164495,0.31903562981612854
1658789601330712,-0.202822919050889,0.9542992294193944,0.3301441977569235
1658789601346700,-0.204531929503319,0.9572289616235601,0.33331807431143634
1658789601362689,-0.20099183642328544,0.9387960631723509,0.32648203250171637
1658789601378677,-0.19769588769359903,0.9187762264438852,0.3142748149843593
1658789601394665,-0.1965972381170369,0.9275654230563823,0.31390859845883856
1658789601410654,-0.2057526512550547,0.9344014648661023,0.32440680552376566
1658789601426642,-0.20807202258335256,0.9408712901503016,0.3305104142824442
1658789601442627,-0.20013733119707044,0.9275654230563823,0.3242847333485921
1658789601458615,-0.206240939955749,0.9258564126039524,0.32648203250171637
1658789601474603,-0.2083161669336997,0.9588158999008165,0.3360036621652549
1658789601490592,-0.19940489814602902,0.955275806820783,0.3255054551003278
1658789601506580,-0.19330128938735047,0.9297627222095066,0.32025635156786425
1658789601522568,-0.20270084687571543,0.9261005569542995,0.3124437323567557
1658789601538557,-0.20697337300679042,0.9491721980621044,0.32355230029755067
1658789601554545,-0.20404364080262472,0.9578393224994279,0.3268482490272371
1658789601570533,-0.1952544441901276,0.9337911039902345,0.3222095063706414
1658789601586522,-0.1948882276646069,0.914015411612116,0.32233157854581496
1658789601602510,-0.201968413824674,0.939040207522698,0.31891355764095497
1658789601618498,-0.19855039291981402,0.96577401388571,0.3225757228961621
1658789601634487,-0.20148012512397973,0.9470969710841537,0.3263599603265428
1658789601650475,-0.20648508430609613,0.9331807431143666,0.3284351873044935
1658789601666463,-0.20892652780956755,0.9389181353475244,0.3280689707789728
1658789601682452,-0.20794995040817899,0.949294270237278,0.3272144655527578
1658789601698440,-0.19940489814602902,0.9384298466468302,0.32269779507133567
1658789601714429,-0.19513237201495404,0.9198748760204474,0.32281986724650924
1658789601730417,-0.1940337224383919,0.9087663080796524,0.3233081559472035
1658789601746405,-0.20502021820401328,0.9176775768673231,0.32867933165484065
1658789601762359,-0.21441977569237824,0.9478294041351951,0.3313649195086592
1658789601778348,-0.20782787823300541,0.9721217669947357,0.32867933165484065
1658789601794336,-0.20001525902189687,0.9524681467917908,0.3201342793926907
1658789601810324,-0.20135805294880615,0.9362325474937059,0.32953383688105564
1658789601826313,-0.1986724650949876,0.914869916838331,0.3272144655527578
1658789601842301,-0.19501029983978047,0.9002212558175025,0.32355230029755067
1658789601858289,-0.20270084687571543,0.9124284733348595,0.3217212176699471
1658789601874278,-0.20733958953231113,0.9462424658579387,0.32074464026855853
1658789601890266,-0.20392156862745114,0.9636987869077593,0.32697032120241065
1658789601906254,-0.19806210421911974,0.9553978789959565,0.32355230029755067
1658789601922243,-0.1969634546425576,0.9361104753185323,0.33490501258869276
1658789601938231,-0.20123598077363258,0.9447775997558558,0.3410086213473713
1658789601954219,-0.19855039291981402,0.930495155260548,0.3292896925307085
1658789601970208,-0.20172426947432687,0.9314717326619366,0.317204547188525
1658789601986196,-0.19977111467154973,0.9346456092164495,0.3158617532616157
1658789602002184,-0.20599679560540185,0.9329365987640195,0.3136644541084914
1658789602018173,-0.2066071564812697,0.9435568780041201,0.33405050736247777
1658789602034161,-0.201113908598459,0.9391622796978716,0.33246356908522134
1658789602050150,-0.2016021972991533,0.9281757839322502,0.3327077134355685
1658789602066138,-0.20929274433508827,0.9457541771572444,0.3297779812314028
1658789602082122,-0.20428778515297186,0.9679713130388343,0.3297779812314028
1658789602098111,-0.1995269703212026,0.9522240024414437,0.32355230029755067
1658789602114099,-0.1990386816205083,0.9262226291294731,0.31317616540779714
1658789602130087,-0.20379949645227757,0.9127946898603803,0.31598382543678927
1658789602146076,-0.20636301213092256,0.9217059586480509,0.3237964446478978
1658789602162064,-0.20941481651026184,0.9276874952315559,0.3251392385748071
1658789602178053,-0.21136797131303897,0.949294270237278,0.32941176470588207
1658789602194041,-0.203677424277104,0.9569848172732129,0.33026626993209707
1658789602210029,-0.20392156862745114,0.9539330128938737,0.3259937438010221
1658789602226018,-0.20001525902189687,0.9423361562523844,0.32733653772793136
1658789602242006,-0.20099183642328544,0.9185320820935381,0.32574959945067494
1658789602257994,-0.2116121156633861,0.9243915465018695,0.3251392385748071
1658789602273983,-0.20990310521095612,0.9384298466468302,0.3267261768520635
1658789602289971,-0.20465400167849257,0.939894712748913,0.3225757228961621
1658789602305959,-0.19964904249637616,0.9392843518730452,0.315495536736095
1658789602321948,-0.1978179598687726,0.9325703822384988,0.32904554818036136
1658789602337936,-0.20306706340123615,0.9342793926909287,0.3300221255817499
1658789602353924,-0.20819409475852613,0.9419699397268637,0.3285572594796671
1658789602369913,-0.1986724650949876,0.9481956206607158,0.3239185168230714
1658789602385901,-0.19916075379568188,0.9350118257419702,0.3162279697871364
1658789602401855,-0.20306706340123615,0.9439230945296408,0.3174486915388721
1658789602417843,-0.20099183642328544,0.9280537117570766,0.32489509422445995
1658789602433832,-0.20697337300679042,0.9284199282825973,0.32452887769893923
1658789602449820,-0.2121004043640804,0.9459983215075916,0.3347829404135192
1658789602465808,-0.20550850690470757,0.9403830014496073,0.32782482642862565
1658789602481797,-0.20221255817502115,0.9419699397268637,0.3277027542534521
1658789602497785,-0.20086976424811187,0.9401388570992602,0.31891355764095497
1658789602513774,-0.2103913939116504,0.9353780422674909,0.3165941863126571
1658789602529762,-0.2121004043640804,0.964919508659495,0.33282978561074206
1658789602545750,-0.20648508430609613,0.948439765011063,0.3251392385748071
1658789602561739,-0.1986724650949876,0.945021744106203,0.31476310368505356
1658789602577727,-0.19928282597085545,0.9386739909971773,0.3179369802395664
1658789602593715,-0.20135805294880615,0.9314717326619366,0.32074464026855853
1658789602609704,-0.21100175478751826,0.9425803006027316,0.32745860990310494
1658789602625692,-0.21637293049515538,0.9593041886015108,0.3397878995956356
1658789602641680,-0.20794995040817899,0.9560082398718244,0.3346608682383456
1658789602657669,-0.20294499122606258,0.945021744106203,0.3313649195086592
1658789602673657,-0.20440985732814543,0.9511253528648815,0.33453879606317205
1658789602689645,-0.207095445181964,0.9522240024414437,0.3263599603265428
1658789602705634,-0.2048981460288397,0.9462424658579387,0.3224536507209885
1658789602721618,-0.19745174334325188,0.9420920119020373,0.3158617532616157
1658789602737606,-0.18963912413214334,0.9298847943846802,0.31525139238574784
1658789602753594,-0.19806210421911974,0.9325703822384988,0.3175707637140457
1658789602769582,-0.201968413824674,0.9558861676966508,0.33368429083695705
1658789602785570,-0.19464408331425975,0.9337911039902345,0.31891355764095497
1658789602801558,-0.18475623712520006,0.9226825360494395,0.3115892271305407
1658789602817546,-0.17596704051270295,0.9152361333638517,0.30597390707255645
1658789602833533,-0.1698634317540244,0.9030289158464946,0.30511940184634145
1658789602849521,-0.1973296711680783,0.9084000915541317,0.31317616540779714
1658789602865509,-0.19855039291981402,0.9395284962233923,0.3313649195086592
1658789602881497,-0.1931792172121769,0.9374532692454416,0.3289234760051878
1658789602897485,-0.19671931029221046,0.938185702296483,0.34247348744945416
1658789602913473,-0.19269092851148262,0.9408712901503016,0.36066224155031623
1658789602929461,-0.18988326848249049,0.9335469596398873,0.34674601358052914
1658789602945449,-0.18487830930037363,0.9302510109102009,0.3288014038300142
1658789602961436,-0.18072785534447222,0.9179217212176702,0.3200122072175171
1658789602977424,-0.18426794842450578,0.9257343404287788,0.3196459906919964
1658789602993412,-0.19220263981078833,0.9342793926909287,0.32574959945067494
1658789603009400,-0.19098191805905262,0.9389181353475244,0.3262378881513692
1658789603025388,-0.18719768062867148,0.934767681391623,0.3272144655527578
1658789603041320,-0.18561074235141506,0.9329365987640195,0.3375906004425113
1658789603057308,-0.19073777370870548,0.9331807431143666,0.33295185778591563
1658789603073296,-0.19830624856946688,0.9641870756084536,0.3309987029831385
1658789603089284,-0.20392156862745114,0.9861600671396964,0.340520332646677
1658789603105272,-0.19293507286182976,0.9834744792858778,0.33588158999008133
1658789603121260,-0.17840848401617437,0.9641870756084536,0.32526131074998066
1658789603137248,-0.1736476691844051,0.9359884031433587,0.31647211413748355
1658789603153236,-0.18829633020523406,0.9363546196688795,0.3167162584878307
1658789603169223,-0.20148012512397973,0.9368429083695737,0.31464103150988
1658789603185211,-0.1998931868467233,0.952712291142138,0.3184252689402607
1658789603201199,-0.20148012512397973,0.9627222095063708,0.3411306935225449
1658789603217187,-0.20440985732814543,0.9779812314030671,0.34918745708400056
1658789603233175,-0.19879453727016116,0.98115510795758,0.35138475623712484
1658789603249163,-0.19671931029221046,0.9901884489204242,0.34418249790188415
1658789603265151,-0.18390173189898507,0.9713893339436943,0.33282978561074206
1658789603281139,-0.18194857709620793,0.9585717555504694,0.3313649195086592
1658789603297126,-0.20428778515297186,0.98628213931487,0.3478446631570913
1658789603313114,-0.20013733119707044,1.0169222552834363,0.36896314946211906
1658789603329102,-0.18304722667277007,0.9977569237811856,0.3607843137254898
1658789603345090,-0.15863279163805588,0.9705348287174793,0.350774395361257
1658789603361084,-0.15082017242694734,0.9655298695353629,0.3402761882963299
1658789603377071,-0.14813458457312878,0.9903105210955978,0.31732661936369855
1658789603393059,-0.14276340886549166,0.9669947356374458,0.2998702983138779
1658789603409047,-0.14398413061722737,0.9461203936827651,0.2990157930876629
1658789603425035,-0.15423819333180733,0.9436789501792937,0.3179369802395664
1658789603441023,-0.1555809872587166,0.9569848172732129,0.33160906385900635
1658789603457011,-0.13995574883649953,0.9591821164263372,0.3367360952162963
1658789603472999,-0.12127870603494317,0.9561303120469979,0.33710231174181704
1658789603488987,-0.10345616845960182,0.9678492408636608,0.35138475623712484
1658789603504974,-0.10626382848859395,0.9866483558403907,0.3645685511558705
1658789603520962,-0.1098039215686275,0.9849393453879607,0.3510185397116041
1658789603536950,-0.09979400320439469,0.9782253757534143,0.3659113450827798
1658789603552938,-0.08514534218356618,0.9533226520180058,0.3670099946593419
1658789603568926,-0.08819714656290545,0.9610131990539408,0.3676203555352098
1658789603584914,-0.08075074387731762,0.9827420462348364,0.3628595407034405
1658789603600902,-0.05877775234607441,0.9883573662928207,0.3510185397116041
1658789603616890,-0.04364080262455161,0.9650415808346686,0.35761043717097696
1658789603632877,-0.029846646829938095,0.938185702296483,0.34259555962462773
1658789603648865,-0.025940337224383825,0.9617456321049822,0.34796673533226485
1658789603664853,-0.03607232776379021,0.9795681696803236,0.3599298084992748
1658789603680847,-0.02655069810025168,0.9478294041351951,0.36823071641107763
1658789603696835,-0.0022583352407110624,0.9217059586480509,0.37152666514076405
1658789603712823,-0.0061646448462653325,0.9553978789959565,0.389715419241627
1658789603728810,-0.007995727473868897,0.980300602731365,0.390569924467842
1658789603744798,0.011657892729076025,0.9826199740596628,0.396551461051347
1658789603760786,0.018371862363622427,0.9886015106431678,0.40289921416037267
1658789603776774,0.021789883268482413,0.9879911497673,0.3909361409933627
1658789603792762,0.04315251392385733,0.9497825589379723,0.38361181048294846
1658789603808750,0.06964217593652222,0.9213397421225302,0.37396810864423546
1658789603824738,0.07037460898756365,0.9395284962233923,0.38019378957808847
1658789603840726,0.07415884641794435,0.9468528267338066,0.38239108873121275
1658789603856713,0.09613183794918712,0.9429465171282523,0.3725032425421526
1658789603872701,0.1214007782101163,0.9434348058289466,0.3838559548332956
1658789603888689,0.11956969558251274,0.945021744106203,0.4039978637369348
1658789603904677,0.12909132524605216,0.9232928969253074,0.4064393072404062
1658789603920665,0.15350576028076635,0.9010757610437174,0.39838254367895054
1658789603936653,0.15899900816357704,0.9246356908522166,0.4055848020141912
1658789603952641,0.15643549248493205,0.9400167849240866,0.4270695048447397
1658789603968629,0.18988326848249049,0.9285420004577709,0.4169375143053333
1658789603984616,0.2394445716029603,0.9434348058289466,0.39960326543068625
1658789604000579,0.21734950789654395,0.9406271457999544,0.3729915312428469
1658789604016567,0.22149996185244536,0.896070801861601,0.37396810864423546
1658789604032555,0.24835584039063097,0.869947356374456,0.3549248493171584
1658789604048543,0.2561684596017395,0.8504158083466846,0.3432059205004956
1658789604064531,0.2746013580529487,0.8659189745937281,0.3574883649958034
1658789604080519,0.2717936980239566,0.8723887998779274,0.3654230563820855
1658789604096507,0.2821698329137101,0.8981460288395517,0.3943541618982227
1658789604112495,0.29889372091248934,0.9152361333638517,0.4131532768749526
1658789604128482,0.30780498970016,0.9153582055390252,0.4166933699549862
1658789604144470,0.34625772487983486,0.9074235141527431,0.39288929579613985
1658789604160458,0.3587090867475391,0.9138933394369424,0.4022888532845048
1658789604176446,0.34845502403295914,0.9041275654230567,0.4048523689631498
1658789604192434,0.36444647898069693,0.8837415121690704,0.3976501106279091
1658789604208422,0.4048523689631498,0.8449225604638739,0.37018387121385476
1658789604224410,0.40167849240863696,0.8142824444953076,0.36945143816281334
1658789604240398,0.3676203555352098,0.8505378805218582,0.3864194705119406
1658789604256385,0.38446631570916345,0.869947356374456,0.3574883649958034
1658789604272373,0.44660105287251106,0.8124513618677041,0.3826352330815599
1658789604288361,0.4523384451056689,0.7852292668039977,0.424139772640574
1658789604304349,0.43317311360341826,0.8015869382772562,0.43439383535515397
1658789604320343,0.4649118791485467,0.8087891966124969,0.4112001220721755
1658789604336331,0.510933089188983,0.8097657740138855,0.36444647898069693
1658789604352318,0.5156939040207522,0.8026855878538184,0.4072938124666212
1658789604368306,0.5025101091020066,0.7912108033875027,0.428412298771649
1658789604384294,0.5202105745021743,0.7860837720302127,0.42902265964751685
1658789604400282,0.5629358358129242,0.7227283131151294,0.4014343480582898
1658789604416270,0.5792935072861827,0.6834210727092396,0.3738460364690619
1658789604432258,0.5497520408941785,0.7210193026626994,0.39752803845273554
1658789604448246,0.5307087815671014,0.7465323872739758,0.4148622873273826
1658789604464234,0.597970550087739,0.7118638895246816,0.3855649652857256
1658789604480221,0.6597390707255668,0.626413366903182,0.384588387884337
1658789604496209,0.6568093385214011,0.5571984435797663,0.39203479056992485
1658789604512197,0.609079118028534,0.5817349507896541,0.4065613794155798
1658789604528185,0.5828336003662162,0.6590066376745254,0.39154650186923057
1658789604544173,0.6232394903486682,0.6880598153658353,0.40375371938658766
1658789604560161,0.7077134355687802,0.5853971160448612,0.40302128633554624
1658789604576149,0.7667963683527885,0.534248874647135,0.3609063859006634
1658789604592136,0.7250476844434273,0.5622034027618827,0.3750667582207985
1658789604608124,0.654856183718624,0.5842984664682991,0.43781185626001395
1658789604624112,0.7060044251163502,0.5095902952620737,0.4402532997634854
1658789604640075,0.7676508735790035,0.44403753719386607,0.37726405737392277
1658789604656063,0.7862058442053863,0.430975814450294,0.34259555962462773
1658789604672051,0.7517814908064393,0.49286640726329445,0.3678644998855569
1658789604688039,0.726268406195163,0.4769970244907302,0.4003356984817277
1658789604704027,0.7704585336079957,0.4519722285801482,0.392278934920272
1658789604720015,0.7880369268329899,0.40497444113832337,0.4090028229190512
1658789604736003,0.8452887769893946,0.3023117418173493,0.388006408789197
1658789604751990,0.8897230487525754,0.27399099717708086,0.3687190051117719
1658789604767978,0.8223392080567633,0.3225757228961621,0.38580910963607273
1658789604783966,0.7515373464560922,0.388860914015412,0.40668345159075336
1658789604799954,0.800244144350347,0.4140077821011676,0.3950865949492641
1658789604815942,0.8590829327840082,0.41425192645151476,0.3747005416952769
1658789604831930,0.8675059128709846,0.40045777065690125,0.37616540779736063
1658789604847918,0.8518806744487675,0.36017395284962195,0.39716182192721483
1658789604863906,0.8538338292515446,0.30267795834287003,0.41766994735637475
1658789604879893,0.8599374380102232,0.2520180056458381,0.4036316472114141
1658789604895881,0.8476081483176925,0.23712520027466244,0.388006408789197
1658789604911869,0.829541466392004,0.23334096284428174,0.3867856870374613
1658789604927857,0.8489509422446018,0.25726710917830165,0.38287937743190703
1658789604943845,0.858838788433661,0.30975814450293715,0.3867856870374613
1658789604959838,0.8887464713511868,0.2976729991607536,0.3797055008773942
1658789604975826,0.8898451209277489,0.2556801709010452,0.3967956054016941
1658789604991814,0.8577401388570989,0.23956664377813386,0.4406195162890061
1658789605007802,0.8441901274128325,0.3036545357442586,0.4573434042877853
1658789605023790,0.851148241397726,0.3624933241779198,0.44110780498970037
1658789605039778,0.8762951094834825,0.3040207522697793,0.4003356984817277
1658789605055766,0.9295185778591595,0.16095216296635417,0.3821469443808656
1658789605071754,0.9376974135957887,0.06366063935301725,0.3860532539864199
1658789605087741,0.8920424200808732,0.09051651789120285,0.4157167925535976
1658789605103729,0.8771496147096975,0.1768215457389184,0.4052185854886705
1658789605119717,0.9032730601968417,0.22247653925383393,0.35382619974059626
1658789605135705,0.9073014419775696,0.22943465323872747,0.3411306935225449
1658789605151693,0.9024185549706267,0.17413595788509983,0.3489433127336534
1658789605167681,0.8996108949416346,0.089906157015335,0.37396810864423546
1658789605183669,0.9030289158464946,0.08917372396429357,0.4354924849317161
1658789605199657,0.858838788433661,0.17364766918440555,0.44782177462424677
1658789605215644,0.8985122453650725,0.18414587624933265,0.3997253376058598
1658789605231632,0.9606469825284201,0.10821698329137064,0.3566338597695884
1658789605247620,0.9645532921339743,0.007385366598001042,0.34259555962462773
1658789605263608,0.9276874952315559,-0.020447089341573133,0.36176089112687837
1658789605279571,0.8704356450751503,0.08636606393530144,0.423285267414359
1658789605295559,0.837232013427939,0.23932249942778672,0.4422064545662625
1658789605311547,0.8743419546807045,0.21112382696269183,0.38410009918364274
1658789605327535,0.9732204165712979,0.03997863736934448,0.3469901579308763
1658789605343523,0.9723659113450829,-0.07342641336690336,0.3864194705119406
1658789605359511,0.8979018844892046,-0.05682459754329727,0.4368352788586254
1658789605375498,0.8786144808117804,-0.008972304875257464,0.43659113450827824
1658789605391486,0.909742885481041,0.007995727473868897,0.3898374914168006
1658789605407474,0.9401388570992602,-0.0016479743648432077,0.3478446631570913
1658789605423462,0.9303730830853745,0.023376821545738835,0.3666437781338212
1658789605439450,0.8574959945067517,0.09332417792019498,0.40375371938658766
1658789605455438,0.8633554589150831,0.07440299076829149,0.422430762188144
1658789605471426,0.9192645151445795,-0.022034027618829555,0.425848783093004
1658789605487414,0.9574731059739072,-0.13311970702677955,0.41718165865568047
1658789605503401,0.952712291142138,-0.1732814526588844,0.40595101853971194
1658789605519389,0.9320820935378045,-0.1598535133897916,0.396551461051347
1658789605535377,0.8861829556725418,-0.04693675135423803,0.4115663385976962
1658789605551365,0.8404058899824518,0.054505226214999425,0.4124208438239112
1658789605567353,0.8592050049591817,0.025940337224383825,0.39044785229266843
1658789605583341,0.9049820706492717,-0.06842145418478696,0.4014343480582898
1658789605599334,0.9074235141527431,-0.15838864728770874,0.40131227588311624
1658789605615322,0.937331197070268,-0.18963912413214334,0.4129091325246055
1658789605631310,0.9265888456549938,-0.13604943923094526,0.4254825665674833
1658789605647298,0.9121843289845124,-0.10833905546654465,0.40424200808728195
1658789605663286,0.908888380254826,-0.1106584267948425,0.3721370260166319
1658789605679274,0.9077897306782639,-0.15680170901045232,0.3792172121766999
1658789605695262,0.8649423971923396,-0.1417868314641031,0.4131532768749526
1658789605711249,0.8739757381551838,-0.11993591210803389,0.43732356755931967
1658789605727237,0.9043717097734039,-0.14312962539101237,0.4094911116197455
1658789605743225,0.9268329900053409,-0.19354543373769761,0.4053406576638441
1658789605759213,0.9257343404287788,-0.21820401312275894,0.42938887617303756
1658789605775201,0.9218280308232245,-0.2217441062027925,0.44501411459525464
1658789605791189,0.9091325246051731,-0.21832608529793252,0.45966277561608315
1658789605807177,0.8760509651331354,-0.17926298924238937,0.4578316929884796
1658789605823165,0.8676279850461581,-0.19806210421911974,0.42780193789578114
1658789605839152,0.875318532082094,-0.22015716792553608,0.4148622873273826
1658789605855140,0.8916762035553525,-0.22113374532692465,0.4341496910048068
1658789605871128,0.9087663080796524,-0.20587472343022828,0.44538033112077535
1658789605887116,0.8865491721980625,-0.19452201113908618,0.4282902265964754
1658789605903104,0.8623788815136946,-0.20172426947432687,0.4246280613412683
1658789605919067,0.8784924086366068,-0.22027924010070965,0.4375677119096668
1658789605935054,0.8953383688105596,-0.2301670862897689,0.44782177462424677
1658789605951042,0.8784924086366068,-0.19855039291981402,0.4461127641718168
1658789605967029,0.8883802548256661,-0.18158236057068722,0.4350041962310218
1658789605983017,0.8852063782711532,-0.15887693598840302,0.4392767223620968
1658789605999004,0.8817883573662932,-0.1299458304722667,0.4549019607843139
1658789606014991,0.9055924315251396,-0.11993591210803389,0.4404974441138325
1658789606030979,0.9015640497444117,-0.09600976577401399,0.4263370717936983
1658789606046966,0.8975356679636839,-0.07513542381933336,0.43402761882963325
1658789606062954,0.9043717097734039,-0.08770885786221116,0.424139772640574
1658789606078941,0.908033875028611,-0.12420843823910888,0.4221866178377969
1658789606094928,0.9093766689555203,-0.11493095292591748,0.4289005874723433
1658789606110916,0.9149919890135045,-0.1190814068818189,0.4018005645838105
1658789606126903,0.9041275654230567,-0.09405661097123685,0.38446631570916345
1658789606142891,0.8797131303883425,-0.028503852903028815,0.3742122529945826
1658789606158878,0.8975356679636839,0.011169604028381741,0.35504692149233197
1658789606174865,0.9181658655680174,0.0012817578393224949,0.3609063859006634
1658789606190853,0.9146257724879838,-0.01239032578011745,0.40289921416037267
1658789606206840,0.9014419775692382,0.016784924086366004,0.4313420309758147
1658789606222828,0.903761348897536,0.03802548256656735,0.4321965362020297
1658789606238830,0.9286640726329445,0.0017700465400167786,0.41889066910811046
1658789606254818,0.9297627222095066,-0.020569161516746703,0.4289005874723433
1658789606270805,0.9221942473487452,0.003112840466926059,0.42560463874265686
1658789606286792,0.9052262149996189,0.0604867627985044,0.40888075074387764
1658789606302780,0.8861829556725418,0.10394445716029566,0.3927672236209663
1658789606318767,0.9120622568093388,0.08490119783321859,0.38617532616159345
1658789606334755,0.9409933623254751,0.03668268863965807,0.3809262226291299
1658789606350742,0.9237811856260016,0.042908369573510186,0.38446631570916345
1658789606366729,0.8836194399938968,0.10675211718928779,0.40009155413138053
1658789606382717,0.8979018844892046,0.12066834515907487,0.38275730525673346
1658789606398704,0.9210955977721831,0.10687418936446136,0.3623712520027462
1658789606414692,0.9289082169832916,0.09881742580300568,0.36261539635309337
1658789606430679,0.9110856794079503,0.10772869459067635,0.3662775616083005
1658789606446666,0.8933852140077825,0.1494773785000385,0.3969176775768677
1658789606462654,0.8722667277027538,0.18573281452658907,0.4157167925535976
1658789606478641,0.9229266803997866,0.1524071107042042,0.41266498817425834
1658789606494629,0.9511253528648815,0.10467689021133708,0.39752803845273554
1658789606510616,0.9237811856260016,0.07953002212558147,0.3851987487602049
1658789606526603,0.9015640497444117,0.11786068513008274,0.38776226443884987
1658789606542591,0.8991226062409403,0.17755397878995982,0.38153658350499775
1658789606558593,0.905470359349966,0.18780804150453978,0.37494468604562403
1658789606574581,0.9135271229114217,0.1436179140917071,0.3757991912718399
1658789606590569,0.8900892652780961,0.1444724193179221,0.3804379339284356
1658789606606557,0.8681162737468524,0.18341344319829123,0.40216678110933124
1658789606622545,0.8894789044022282,0.17706569008926554,0.4098573281452662
1658789606638533,0.9270771343556881,0.14007782101167354,0.4003356984817277
1658789606654521,0.9279316395819031,0.13067826352330858,0.39154650186923057
1658789606670508,0.883863584344244,0.21747158007171752,0.4039978637369348
1658789606686496,0.8543221179522389,0.2840009155413137,0.42059967956054045
1658789606702484,0.9040054932478832,0.24933241779201953,0.4053406576638441
1658789606718472,0.9280537117570766,0.19415579461356547,0.3977721828030827
1658789606734460,0.8815442130159461,0.21844815747310609,0.4057068741893648
1658789606750448,0.866529335469596,0.2573891813534752,0.4339055466544597
1658789606766436,0.8606698710612646,0.2919356069275958,0.4358587014572368
1658789606782424,0.898634317540246,0.25018692301823453,0.4157167925535976
1658789606798411,0.9134050507362481,0.1948882276646069,0.3728694590676733
1658789606814399,0.8783703364614333,0.2276035706111239,0.3696955825131605
1658789606830387,0.8352788586251618,0.31219958800640857,0.3988708323796448
1658789606846375,0.8601815823605703,0.3119554436560614,0.3867856870374613
1658789606862363,0.8878919661249718,0.2507972838941024,0.37030594338902834
1658789606878326,0.871656366826886,0.24139772640573742,0.3834897383077749
1658789606894313,0.8228274967574576,0.3397878995956356,0.4187685969329369
1658789606910301,0.8124513618677041,0.39447623407339627,0.45294880598153675
1658789606926288,0.8646982528419924,0.349065384908827,0.4422064545662625
1658789606942276,0.9079118028534374,0.26312657358663305,0.4148622873273826
1658789606958263,0.8976577401388575,0.22796978713664462,0.4005798428320748
1658789606974250,0.856275272755016,0.3096360723277636,0.396551461051347
1658789606990238,0.8139162279697869,0.40216678110933124,0.41889066910811046
1658789607006225,0.8241702906843669,0.39630731670099983,0.4094911116197455
1658789607022213,0.8620126649881739,0.30841535057602787,0.387151903562982
1658789607038200,0.8563973449301896,0.27777523460746156,0.39411001754787556
1658789607054187,0.8106202792401005,0.36444647898069693,0.4287785152971697
1658789607070175,0.7818112458991378,0.4489204242008089,0.44782177462424677
1658789607086162,0.8172121766994733,0.42059967956054045,0.42438391699092115
1658789607102150,0.8592050049591817,0.33881132219424703,0.3985046158541241
1658789607118137,0.8411383230334932,0.32733653772793136,0.4079041733424891
1658789607134124,0.7915770199130234,0.42096589608606116,0.4296330205233847
1658789607150112,0.7726558327611199,0.492988479438468,0.4552681773098346
1658789607166099,0.8319829098954754,0.4291447318226904,0.4131532768749526
1658789607182087,0.8583504997329667,0.34967574578469485,0.390569924467842
1658789607198089,0.7975585564965284,0.3867856870374613,0.41046768902113406
1658789607214077,0.7340810254062715,0.467109178301671,0.44867627985046177
1658789607230064,0.7556878004119936,0.5008010986495766,0.43732356755931967
1658789607246051,0.8310063324940868,0.4299992370489054,0.3892271305409327
1658789607262039,0.8247806515602347,0.4018005645838105,0.3778744182497906
1658789607278026,0.7698481727321278,0.44879835202563534,0.4065613794155798
1658789607294014,0.7353017471580072,0.49872587167162585,0.4191348134584576
1658789607310001,0.7628900587472343,0.49787136644541086,0.419867246509499
1658789607325988,0.7830319676508735,0.4826123445487145,0.4216983291371026
1658789607341976,0.7743648432135499,0.4767528801403831,0.4115663385976962
1658789607357963,0.7396963454642558,0.5221637293049515,0.4093690394445719
1658789607373951,0.7052719920653088,0.5654993514915692,0.43952086671244395
1658789607389938,0.7390859845883879,0.5254596780346379,0.41596093690394476
1658789607405925,0.7895017929350727,0.48395513847562377,0.38019378957808847
1658789607421913,0.7287098496986344,0.5501182574196992,0.40973525597009264
1658789607437900,0.6842755779354546,0.591989013504234,0.4341496910048068
1658789607453888,0.7414053559166858,0.5495078965438314,0.3825131609063863
1658789607469875,0.7493400473029679,0.5292439154650186,0.36823071641107763
1658789607485862,0.6679179064621961,0.5829556725413898,0.43060959792477327
1658789607501850,0.6513160906385904,0.613351644159609,0.4271915770199133
1658789607517822,0.7123521782253759,0.5977264057373919,0.3679865720607305
1658789607533809,0.7171129930571452,0.5822232394903484,0.3712825207904169
1658789607549797,0.6569314106965747,0.6284885938811327,0.3981383993286034
1658789607565784,0.6192111085679404,0.6878156710154881,0.41937895780880474
1658789607581771,0.6629129472800797,0.6662088960097661,0.4132753490501262
1658789607597759,0.718577859159228,0.5846646829938198,0.3611505302510105
1658789607613746,0.7039291981383995,0.594552529182879,0.348210879682612
1658789607629734,0.5840543221179519,0.7135728999771116,0.4099794003204398
1658789607645721,0.5449912260624092,0.7553215838864729,0.43622491798275753
1658789607661708,0.6260471503776612,0.7144274052033266,0.40082398718242196
1658789607677696,0.6829327840085453,0.6355687800411998,0.352483405813687
1658789607693683,0.6198214694438082,0.6663309681849396,0.3754329747463192
1658789607709671,0.5279011215381093,0.7479972533760586,0.4184023804074162
1658789607725658,0.5329060807202257,0.7818112458991378,0.4115663385976962
1658789607741645,0.6271457999542234,0.6990463111314567,0.36359197375448193
1658789607757633,0.6399633783474483,0.6658426794842454,0.32538338292515423
1658789607773620,0.54193942168307,0.7509269855802243,0.3742122529945826
1658789607789608,0.4855420767528802,0.814160372320134,0.3898374914168006
1658789607805595,0.5104448004882887,0.8120851453421833,0.3985046158541241
1658789607821582,0.5762417029068434,0.7179674982833602,0.3729915312428469
1658789607837585,0.579781795986877,0.7040512703135731,0.3449149309529256
1658789607853572,0.4793163958190281,0.8272220950637061,0.3989929045548184
1658789607869560,0.4296330205233847,0.8772716868848711,0.4303654535744261
1658789607885547,0.48871595330739304,0.8412603952086668,0.3977721828030827
1658789607901535,0.537666895551995,0.7714351110093842,0.3645685511558705
1658789607917522,0.5192339971007858,0.7604486152437628,0.33588158999008133
1658789607933509,0.4581979095140003,0.8566414892805367,0.3566338597695884
1658789607949497,0.4148622873273826,0.9168230716411081,0.4053406576638441
1658789607965484,0.46930647745479526,0.8495613031204696,0.37445639734492975
1658789607981472,0.5164263370717936,0.7969481956206605,0.34882124055847985
1658789607997459,0.45001907377737105,0.8413824673838404,0.36517891203173836
1658789608013446,0.38690775921263487,0.8899671931029225,0.38910505836575915
1658789608029434,0.4221866178377969,0.8681162737468524,0.3709163042648962
1658789608045421,0.4809033340962845,0.7989013504234377,0.3272144655527578
1658789608061409,0.44415960936903964,0.823559929808499,0.3325856412603949
1658789608077396,0.36395819028000265,0.9193865873197531,0.37994964522774133
1658789608093383,0.3305104142824442,0.9512474250400551,0.40375371938658766
1658789608109371,0.4094911116197455,0.8559090562294953,0.37238117036697904
1658789608125358,0.45844205386434744,0.7969481956206605,0.34259555962462773
1658789608141346,0.383733882658122,0.8808117799649047,0.3712825207904169
1658789608157318,0.33746852826733775,0.9289082169832916,0.39069199664301557
1658789608173305,0.39423208972304913,0.8976577401388575,0.35675593194476196
1658789608189293,0.44159609369039465,0.8340581368734261,0.30731670099946573
1658789608205280,0.4077821011673155,0.8350347142748147,0.31024643320363143
1658789608221267,0.32819104295414636,0.8975356679636839,0.36054016937514266
1658789608237255,0.29169146257724865,0.9495384145876251,0.37030594338902834
1658789608253242,0.36261539635309337,0.8930189974822618,0.343083848325322
1658789608269230,0.42609292744335114,0.8246585793850612,0.3392996108949413
1658789608285217,0.3649347676813912,0.8539559014267182,0.35382619974059626
1658789608301204,0.2976729991607536,0.9250019073777374,0.383733882658122
1658789608317192,0.31903562981612854,0.9302510109102009,0.36810864423590406
1658789608333179,0.3705500877393755,0.8689707789730674,0.33453879606317205
1658789608349166,0.36566720073243264,0.8478522926680396,0.3397878995956356
1658789608365154,0.30475318532082074,0.9022964827954532,0.3707942320897226
1658789608381141,0.2847333485923551,0.9457541771572444,0.36603341725795335
1658789608397129,0.3469901579308763,0.9130388342107274,0.305241474021515
1658789608413116,0.3770199130235756,0.8697032120241088,0.2822919050888837
1658789608429103,0.34760051880674414,0.8687266346227203,0.30060273136491933
1658789608445091,0.3222095063706414,0.8811779964904254,0.32111085679407925
1658789608461078,0.3028000305180436,0.8843518730449382,0.33112077515831206
1658789608477081,0.2821698329137101,0.8990005340657667,0.3469901579308763
1658789608493068,0.2872968642710001,0.9082780193789581,0.34674601358052914
1658789608509056,0.3119554436560614,0.8834973678187232,0.3435721370260163
1658789608525043,0.2670328831921873,0.9167009994659345,0.3692072938124662
1658789608541031,0.22076752880140393,0.9643091477836272,0.4007019150072484
1658789608557018,0.2687418936446173,0.9420920119020373,0.352483405813687
1658789608573005,0.3292896925307085,0.9285420004577709,0.3175707637140457
1658789608588993,0.3132982375829707,0.8968032349126425,0.31903562981612854
1658789608604980,0.25897611963073164,0.9081559472037846,0.3167162584878307
1658789608620967,0.2305333028152896,0.9363546196688795,0.3132982375829707
1658789608636955,0.24847791256580454,0.9379415579461359,0.308659494926375
1658789608652942,0.27228198672465087,0.9013199053940646,0.30975814450293715
1658789608668930,0.2533607995727474,0.8936293583581296,0.32489509422445995
1658789608684917,0.20599679560540185,0.9329365987640195,0.349919890135042
1658789608700904,0.2133211261158161,0.9270771343556881,0.34381628137636344
1658789608716892,0.25812161440451664,0.9035172045471889,0.3029221026932172
1658789608732879,0.2537270160982681,0.9057145037003131,0.3107347219043257
1658789608748867,0.1957427328908219,0.9480735484855423,0.3443045700770577
1658789608764854,0.18377965972381194,0.9672388799877929,0.3466239414053556
1658789608780841,0.22076752880140393,0.9392843518730452,0.3150072480354007
1658789608796844,0.22955672541390104,0.9225604638742659,0.31403067063401213
1658789608812832,0.20477607385366614,0.9188982986190588,0.3175707637140457
1658789608828819,0.1873197528038455,0.9409933623254751,0.3355153734645606
1658789608844806,0.1818265049210348,0.9383077744716566,0.32538338292515423
1658789608860794,0.17621118486305054,0.9202410925459681,0.313786526283665
1658789608876781,0.16559090562294987,0.9217059586480509,0.33026626993209707
1658789608892768,0.15558098725871705,0.9235370412756545,0.3305104142824442
1658789608908756,0.15887693598840347,0.9417257953765166,0.3239185168230714
1658789608924743,0.16009765774013918,0.9495384145876251,0.33209735255970063
1658789608940731,0.166689555199512,0.9503929198138401,0.3062180514229036
1658789608956718,0.1742580300602734,0.9516136415655758,0.2990157930876629
1658789608972705,0.15558098725871705,0.9434348058289466,0.30682841229877145
1658789608988693,0.12042420080872773,0.9417257953765166,0.31866941329060783
1658789609004680,0.09295796139467427,0.9687037460898758,0.351628900587472
1658789609020668,0.11053635461966849,0.9530785076676587,0.33453879606317205
1658789609036655,0.14349584191653353,0.9318379491874573,0.3023117418173493
1658789609052642,0.14520485236896352,0.9324483100633252,0.28656443121995867
1658789609068630,0.10028229190508853,0.954421301594568,0.30267795834287003
1658789609084617,0.07061875333791079,0.9827420462348364,0.3128099488822764
1658789609100605,0.08331425955596217,0.9834744792858778,0.29962615396353076
1658789609116577,0.12481879911497629,0.9528343633173115,0.28375677119096654
1658789609132564,0.11322194247348705,0.9312275883115895,0.2797283894102387
1658789609148552,0.06976424811169579,0.9561303120469979,0.29803921568627434
1658789609164539,0.04901197833218873,0.9748073548485543,0.2990157930876629
1658789609180526,0.06939803158617508,0.9561303120469979,0.2927901121538108
1658789609196514,0.06158541237506654,0.9311055161364159,0.28790722514686795
1658789609212501,0.01483176928358887,0.9676050965133136,0.3141527428091857
1658789609228489,-1.831082627603564E-4,0.97431906614786,0.31012436102845786
1658789609244476,0.021789883268482413,0.9528343633173115,0.3010910200656136
1658789609260463,0.040344853894865196,0.9682154573891815,0.28461127641718154
1658789609276451,0.05413900968947871,0.9707789730678265,0.25226214999618524
1658789609292438,0.026184481574730967,0.9737087052719922,0.26849774929427017
1658789609308426,-0.015686274509803866,0.9745632104982072,0.28326848249027226
1658789609324413,-0.02386511024643312,0.9818875410086214,0.28754100862134724
1658789609340400,-0.0038452735179674846,0.9684596017395286,0.2833905546654458
1658789609356388,0.007995727473868897,0.9547875181200887,0.2671549553673609
1658789609372375,-0.03070115205615309,0.9650415808346686,0.29010452429999223
1658789609388363,-0.08929579613946759,1.0178988326848248,0.30804913405050716
1658789609404350,-0.05926604104676869,1.0204623483634698,0.30060273136491933
1658789609420337,0.007629510948348184,0.9730983443961243,0.25885404745555807
1658789609436340,0.0036011291676203427,0.9512474250400551,0.24298466468299385
1658789609452327,-0.05230792706187515,0.9754177157244222,0.2647135118638895
1658789609468315,-0.09906157015335326,1.034622720683604,0.28119325551232155
1658789609484302,-0.08709849698634331,1.046585793850614,0.2590981918059052
1658789609500290,-0.06475928892957983,1.0099641412985427,0.26654459449149304
1658789609516277,-0.07440299076829193,1.0000762951094835,0.2948653391317615
1658789609532264,-0.09674219882505541,1.0180209048599984,0.31769283588921926
1658789609548252,-0.11346608682383463,1.0635538261997404,0.29034866865033937
1658789609564239,-0.07843137254901977,1.0823529411764703,0.2565346761272602
1658789609580227,-0.07061875333791123,1.0526894026092926,0.24310673685816742
1658789609596214,-0.11639581902800034,1.0370641641870755,0.2612954909590295
1658789609612201,-0.13971160448615239,1.0470740825513083,0.2868085755703058
1658789609628189,-0.11432059205004963,1.0532997634851604,0.3032883192187379
1658789609644176,-0.07525749599450693,1.0428015564202333,0.2872968642710001
1658789609660164,-0.06903181506065481,1.0202182040131227,0.2804608224612801
1658789609676151,-0.10467689021133753,1.0539101243610283,0.2914473182269015
1658789609692138,-0.11212329289692535,1.0573281452658883,0.2926680399786372
1658789609708126,-0.094300755321584,1.036087586785687,0.2826581216144044
1658789609724113,-0.0905165178912033,1.0163118944075684,0.2842450598916608
1658789609740100,-0.10174715800717182,1.0265659571221484,0.30170138094148147
1658789609756073,-0.09869535362783255,1.0487830930037383,0.2871747920958265
1658789609772060,-0.06842145418478696,1.0574502174410618,0.28827344167238866
1658789609788047,-0.06060883497367797,1.0319371328297855,0.30731670099946573
1658789609804035,-0.062317845426107965,1.00166323338674,0.31525139238574784
1658789609820022,-0.04571602960250232,0.9909208819714657,0.3040207522697793
1658789609836010,-0.036194399938963784,1.0015411612115663,0.2977950713359272
1658789609851997,-0.019836728465705278,0.9993438620584421,0.28961623559929794
1658789609867984,-0.004333562218661768,1.001052872510872,0.2938887617303729
1658789609883972,-0.005676356145571049,1.004226749065385,0.3019455252918286
1658789609899959,0.0016479743648432077,0.9944609750514992,0.31061264972915215
1658789609915947,0.021179522392614558,0.9966582742046235,0.31390859845883856
1658789609931934,0.053772793163958,0.97602807660029,0.3029221026932172
1658789609947921,0.06842145418478651,0.9796902418554971,0.30084687571526647
1658789609963909,0.05658045319295013,1.0023956664377813,0.3132982375829707
1658789609979896,0.049256122682535874,1.0105745021744106,0.3289234760051878
1658789609995884,0.07525749599450648,0.9922636758983749,0.3237964446478978
1658789610011871,0.11578545815213204,0.9490501258869308,0.3100022888532843
1658789610027858,0.11725032425421489,0.9490501258869308,0.3230640115968564
1658789610043846,0.09674219882505497,0.9900663767452507,0.33160906385900635
1658789610059833,0.13543907835507785,0.96748302433814,0.3338063630121306
1658789610075836,0.17938506141756339,0.9389181353475244,0.31805905241474
1658789610091823,0.19366750591287119,0.9245136186770431,0.3104905775539786
1658789610107811,0.1730373083085377,0.9491721980621044,0.30646219577325073
1658789610123798,0.16729991607537986,0.9577172503242544,0.33868925001907346
1658789610139785,0.20233463035019472,0.9425803006027316,0.32831311512931993
1658789610155773,0.2360265506981003,0.9417257953765166,0.3259937438010221
1658789610171760,0.25934233615625235,0.9237811856260016,0.3330739299610892
1658789610187748,0.2792401007095444,0.9084000915541317,0.32660410467688994
1658789610203735,0.26263828488593877,0.9192645151445795,0.3449149309529256
1658789610219722,0.2435950255588617,0.9169451438162817,0.37604333562218706
1658789610235710,0.26105134660868234,0.9130388342107274,0.37653162432288134
1658789610251697,0.3141527428091857,0.8853284504463268,0.3548027771419848
1658789610267685,0.3540703440909434,0.8797131303883425,0.3344167238879985
1658789610283672,0.37982757305256776,0.868238345922026,0.32233157854581496
1658789610299659,0.3721370260166319,0.8621347371633474,0.3377126726176849
1658789610315647,0.3414969100480656,0.8700694285496295,0.34125276569771845
1658789610331634,0.3561455710688941,0.882154573891814,0.34760051880674414
1658789610347622,0.3989929045548184,0.8482185091935603,0.3489433127336534
1658789610363609,0.4170595864805069,0.8035400930800334,0.36139467460135766
1658789610379596,0.4303654535744261,0.7760738536659799,0.349919890135042
1658789610395568,0.44879835202563534,0.7910887312123291,0.3449149309529256
1658789610411556,0.45917448691538887,0.8009765774013884,0.3382009613183792
1658789610427543,0.4664988174258031,0.8238040741588462,0.3397878995956356
1658789610443531,0.43280689707789755,0.8765392538338297,0.42401770046540044
1658789610459518,0.41474021515220905,0.8635996032654303,0.4455024032959489
1658789610475505,0.4926222629129473,0.8157473105973905,0.4141298542763412
1658789610491493,0.597970550087739,0.7366445410849165,0.3699397268635076
1658789610507480,0.606515602349889,0.7069810025177388,0.33490501258869276
1658789610523468,0.565255207141222,0.7324940871290151,0.32745860990310494
1658789610539455,0.54706645304036,0.7428702220187686,0.31183337148088786
1658789610555442,0.5283894102388036,0.75043869687953,0.33197528038452706
1658789610571430,0.54023041123064,0.7250476844434273,0.3477225909819177
1658789610587417,0.5828336003662162,0.7154039826047152,0.35602349889372054
1658789610603405,0.6239719233997096,0.6677958342870225,0.349065384908827
1658789610619392,0.6348363469901583,0.609079118028534,0.33282978561074206
1658789610635379,0.6050507362478061,0.6554665445944918,0.3657892729076062
1658789610651367,0.5744106202792398,0.7256580453192951,0.42023346303501974
1658789610667354,0.6305638208590834,0.7150377660791944,0.39166857404440414
1658789610683342,0.7193102922102694,0.6373998626688033,0.35345998321507555
1658789610699329,0.7163805600061037,0.5844205386434727,0.34845502403295914
1658789610715332,0.648874647135119,0.6244602121004039,0.38324559395742774
1658789610731319,0.6508278019378961,0.6572976272220954,0.3611505302510105
1658789610747306,0.6847638666361489,0.6413061722743576,0.32526131074998066
1658789610763294,0.7141832608529795,0.5487754634927899,0.3150072480354007
1658789610779281,0.7147936217288473,0.5554894331273363,0.3305104142824442
1658789610795269,0.6886701762417031,0.5965056839856562,0.3738460364690619
1658789610811256,0.7221179522392616,0.5607385366597999,0.3494316014343477
1658789610827243,0.7602044708934157,0.4967727168688487,0.32074464026855853
1658789610843231,0.7073472190432595,0.5650110627908749,0.3583428702220184
1658789610859218,0.6699931334401468,0.6464332036316476,0.4052185854886705
1658789610875206,0.7620355535210193,0.5873502708476384,0.38788433661402344
1658789610891193,0.8601815823605703,0.47101548790722525,0.33160906385900635
1658789610907180,0.8217288471808954,0.42096589608606116,0.31781490806439283
1658789610923168,0.7278553444724194,0.4979934386205844,0.34967574578469485
1658789610939155,0.7233386739909973,0.5960173952849619,0.34723430228122343
1658789610955143,0.7571526665140764,0.6001678492408633,0.36310368505378765
1658789610971130,0.7420157167925536,0.5390096894789043,0.4032654306858934
1658789610987117,0.7929198138399327,0.4265812161440454,0.3804379339284356
1658789611003105,0.857129777981231,0.37409018081940903,0.35016403448538913
1658789611019092,0.8202639810788126,0.42560463874265686,0.34296177615014845
1658789611035064,0.7661860074769207,0.5241168841077286,0.3714045929655905
1658789611051052,0.7890135042343784,0.5271686884870679,0.36823071641107763
1658789611067039,0.8404058899824518,0.4492866407263296,0.345647364003967
1658789611083027,0.8585946440833139,0.37482261387045046,0.3468680857557027
1658789611099014,0.8174563210498205,0.3926451514457927,0.3909361409933627
1658789611115001,0.7774166475928892,0.4682078278782331,0.40375371938658766
1658789611130989,0.8034180209048598,0.48493171587701234,0.3817807278553449
1658789611146976,0.8882581826504925,0.37640955214770777,0.3410086213473713
1658789611162963,0.9187762264438852,0.2649576562142366,0.3305104142824442
1658789611178951,0.8687266346227203,0.2935225452048522,0.35126268406195127
1658789611194938,0.8152590218966962,0.40302128633554624,0.39923704890516554
1658789611210926,0.8327153429465168,0.43952086671244395,0.3872739757381556
1658789611226913,0.8760509651331354,0.33319600213626277,0.3771419851987492
1658789611242900,0.894361791409171,0.2200350957503625,0.3528496223392077
1658789611258888,0.8714122224765388,0.24383916990920884,0.33539330128938705
1658789611274875,0.8411383230334932,0.3241626611734185,0.36139467460135766
1658789611290863,0.870801861600671,0.3338063630121306,0.3562676432440677
1658789611306850,0.8947280079346918,0.28961623559929794,0.3623712520027462
1658789611322837,0.8729991607537952,0.2494544899671931,0.3926451514457927
1658789611338825,0.8705577172503238,0.2545815213244831,0.40753795681696836
1658789611354828,0.883863584344244,0.2931563286793315,0.4170595864805069
1658789611370815,0.909742885481041,0.2642252231631952,0.39203479056992485
1658789611386802,0.9252460517280845,0.19342336156252404,0.3778744182497906
1658789611402790,0.9118181124589917,0.15728999771114704,0.37482261387045046
1658789611418777,0.8858167391470211,0.2175936522468911,0.3795834287022206
1658789611434764,0.8859388113221947,0.2654459449149309,0.3792172121766999
1658789611450752,0.898634317540246,0.22772564278629748,0.3699397268635076
1658789611466739,0.9345235370412759,0.1284809643701843,0.3842221713588163
1658789611482727,0.9127946898603803,0.08001831082627575,0.3787289234760056
1658789611498714,0.8775158312352183,0.12237735561150487,0.3637140459296555
1658789611514701,0.883863584344244,0.17926298924238981,0.3494316014343477
1658789611530689,0.9226825360494395,0.1830472266727705,0.3397878995956356
1658789611546676,0.9252460517280845,0.170962081330587,0.3709163042648962
1658789611562664,0.8831311512932025,0.15484855420767563,0.4072938124666212
1658789611578651,0.8859388113221947,0.11371023117418133,0.40582894636453837
1658789611594638,0.9076676585030903,0.09564354924849283,0.3902037079423213
1658789611610626,0.9380636301213094,0.07782101167315147,0.3934996566720077
1658789611626613,0.9563744563973451,0.06695658808270366,0.3704280155642019
1658789611642601,0.931349660486763,0.09979400320439424,0.35345998321507555
1658789611658588,0.8898451209277489,0.16217288471808988,0.37201495384145833
1658789611674560,0.8864271000228889,0.16180666819256917,0.38202487220569203
1658789611690548,0.9285420004577709,0.0928358892195007,0.40338750286106695
1658789611706535,0.9435568780041201,0.03814755474174092,0.39154650186923057
1658789611722522,0.9138933394369424,0.06317235065232296,0.3936217288471813
1658789611738510,0.8902113374532696,0.10943770504310635,0.39667353322652055
1658789611754497,0.9013199053940646,0.11309987029831348,0.38580910963607273
1658789611770485,0.9380636301213094,0.057190814068817986,0.37396810864423546
1658789611786472,0.9523460746166172,-0.0071412222476539,0.36639963378347407
1658789611802459,0.9479514763103687,-0.021911955443655984,0.3678644998855569
1658789611818447,0.8949721522850389,0.08465705348287145,0.37982757305256776
1658789611834434,0.8662851911192488,0.14789044022278208,0.38690775921263487
1658789611850422,0.9154802777141988,0.08917372396429357,0.37311360341802047
1658789611866409,0.9496604867627987,-0.011657892729076025,0.3783627069504849
1658789611882396,0.9274433508812088,-0.017273212787060288,0.3969176775768677
1658789611898384,0.9153582055390252,0.01605249103532458,0.39411001754787556
1658789611914371,0.9242694743266959,0.03399710078583951,0.3783627069504849
1658789611930359,0.9303730830853745,0.017029068436713146,0.37653162432288134
1658789611946346,0.9164568551155874,0.004455634393835339,0.3876401922636763
1658789611962333,0.9195086594949267,0.04180971999694805,0.40668345159075336
1658789611978321,0.9053482871747924,0.06585793850614152,0.40119020370794267
1658789611994323,0.9300068665598538,0.011657892729076025,0.3930113679713134
1658789612010311,0.9491721980621044,-0.05145342183566015,0.3972838941023884
1658789612026298,0.9309834439612423,-0.04583810177767589,0.4014343480582898
1658789612042286,0.907179369802396,0.007019150072480329,0.39032578011749486
1658789612058273,0.9160906385900667,0.03985656519417091,0.3742122529945826
1658789612074260,0.9224383916990924,0.007751583123521755,0.3623712520027462
1658789612090248,0.9151140611886781,-0.020935378042267416,0.37274738689249975
1658789612106235,0.9112077515831238,-0.02679484245059882,0.3969176775768677
1658789612122223,0.9359884031433587,-0.02923628595407024,0.4043640802624555
1658789612138210,0.9497825589379723,-0.050720988784618726,0.4055848020141912
1658789612154197,0.9384298466468302,-0.056946669718470844,0.39667353322652055
1658789612170185,0.914015411612116,-0.030945296406500233,0.3766536964980549
1658789612186172,0.9127946898603803,-0.006897077897306758,0.36273746852826694
1658789612202160,0.902906843671321,0.012024109254596738,0.37909514000152633
1658789612218147,0.9048599984740981,-0.029602502479590953,0.3967956054016941
1658789612234134,0.9252460517280845,-0.09320210574502186,0.38910505836575915
1658789612250122,0.930495155260548,-0.11187914854657821,0.3969176775768677
1658789612266109,0.9129167620355538,-0.03814755474174092,0.4107118333714812
1658789612282096,0.9019302662699324,0.019470511940184565,0.4174258030060276
1658789612298084,0.9235370412756545,-0.02386511024643312,0.39618524452582626
1658789612314056,0.9462424658579387,-0.11419851987487606,0.39252307927061914
1658789612330043,0.919142442969406,-0.11590753032730605,0.4199893186846726
1658789612346031,0.8981460288395517,-0.04718089570458517,0.4389105058365761
1658789612362018,0.8974135957885103,-0.002990768291752488,0.41254291599908477
1658789612378006,0.907179369802396,-0.04754711223010588,0.3843442435339899
1658789612393993,0.9062027924010074,-0.10626382848859395,0.37726405737392277
1658789612409980,0.9149919890135045,-0.12823682001983672,0.3930113679713134
1658789612425968,0.9214618142977038,-0.10870527199206537,0.4115663385976962
1658789612441955,0.9236591134508281,-0.08819714656290545,0.42230869001297044
1658789612457943,0.9228046082246131,-0.07721065079728406,0.429266803997864
1658789612473930,0.8915541313801789,-0.06622415503166268,0.4356145571068897
1658789612489917,0.8993667505912875,-0.06890974288548124,0.44745555809872606
1658789612505905,0.9193865873197531,-0.09112687876707115,0.4417181658655682
1658789612521892,0.940749217975128,-0.12042420080872818,0.4270695048447397
1658789612537880,0.9232928969253074,-0.12420843823910888,0.41547264820325047
1658789612553867,0.904615854123751,-0.11602960250247962,0.42304112306401187
1658789612569854,0.8860608834973682,-0.09796292057679112,0.4379339284351875
1658789612585842,0.8841077286945911,-0.10235751888303968,0.4330510414282447
1658789612601829,0.8997329671168082,-0.14032196536202024,0.42316319523918544
1658789612617817,0.9036392767223624,-0.18011749446860437,0.43109788662546755
1658789612633819,0.8898451209277489,-0.16791027695124727,0.4509956511787596
1658789612649807,0.8889906157015339,-0.11602960250247962,0.45465781643396674
1658789612665794,0.8800793469138632,-0.06256198977645555,0.4472114137483789
1658789612681781,0.8848401617456325,-0.07379262989242408,0.4296330205233847
1658789612697769,0.8889906157015339,-0.08441290913252475,0.430121309224079
1658789612713756,0.913160906385901,-0.10174715800717182,0.4347600518806747
1658789612729744,0.9208514534218359,-0.09869535362783255,0.4523384451056689
1658789612745731,0.9096208133058674,-0.0707408255130848,0.4379339284351875
1658789612761718,0.9207293812466624,-0.06414892805371197,0.4005798428320748
1658789612777706,0.9041275654230567,-0.0575570305943387,0.37946135652704704
1658789612793693,0.9015640497444117,-0.04193179217212162,0.3910582131685363
1658789612809681,0.9231708247501338,-0.04180971999694805,0.40009155413138053
1658789612825668,0.9245136186770431,-0.05133134966048658,0.39337758449683413
1658789612841655,0.9187762264438852,-0.049256122682535874,0.3898374914168006
1658789612857643,0.9070572976272224,-0.021667811093308842,0.38190280003051846
1658789612873630,0.902052338445106,-0.004821850919356052,0.3936217288471813
1658789612889618,0.9101091020065617,-0.0018921187151903496,0.4043640802624555
1658789612905605,0.9197528038452738,-0.003112840466926059,0.40509651331349694
1658789612921592,0.9236591134508281,-0.0038452735179674846,0.3998474097810334
1658789612937580,0.9154802777141988,0.013366903181506018,0.39630731670099983
1658789612953582,0.9115739681086446,0.025696192874036683,0.38825055313954415
1658789612969570,0.9055924315251396,0.03558403906309593,0.394842450598917
1658789612985557,0.9025406271458003,0.04632639047837017,0.3976501106279091
1658789613001545,0.911451895933471,0.04974441138323016,0.391424429694057
1658789613017532,0.9179217212176702,0.04827954528114731,0.37946135652704704
1658789613033519,0.9145037003128103,0.05401693751430514,0.3612726024261841
1658789613049507,0.9052262149996189,0.05938811322194226,0.36859693293659834
1658789613065494,0.8891126878767075,0.10199130235751852,0.3817807278553449
1658789613081482,0.8900892652780961,0.13373006790264785,0.3917906462195777
1658789613097469,0.9230487525749602,0.11627374685282632,0.37738612954909634
1658789613113456,0.9285420004577709,0.09381246662088927,0.3793392843518735
1658789613129444,0.9103532463569088,0.11773861295490917,0.3921568627450984
1658789613145431,0.8874036774242775,0.1826810101472498,0.393987945372702
1658789613161419,0.872510872053101,0.2507972838941024,0.39044785229266843
1658789613177406,0.9141374837872895,0.238101777676051,0.3683527885862512
1658789613193393,0.9387960631723509,0.16095216296635417,0.3288014038300142
1658789613209381,0.8869153887235832,0.17730983443961268,0.3406424048218506
1658789613225368,0.8576180666819253,0.23065537499046318,0.3800717174029149
1658789613241356,0.9027847714961474,0.22687113756008248,0.34369420920118987
1658789613257343,0.9014419775692382,0.2485999847409781,0.33795681696803204
1658789613273315,0.8187991149767297,0.32831311512931993,0.36517891203173836
1658789613289302,0.8339360646982525,0.3246509498741128,0.3707942320897226
1658789613305290,0.8987563897154196,0.2969405661097122,0.32745860990310494
1658789613321277,0.9146257724879838,0.2881513694972151,0.34637979705500843
1658789613337265,0.8462653543907832,0.33746852826733775,0.3867856870374613
1658789613353252,0.838086518654154,0.33417257953765134,0.397405966277562
1658789613369239,0.8780041199359125,0.3074387731746393,0.37018387121385476
1658789613385227,0.8694590676737617,0.35138475623712484,0.3451590753032727
1658789613401214,0.820996414129854,0.4317082475013354,0.3728694590676733
1658789613417202,0.8151369497215226,0.4447699702449075,0.383733882658122
1658789613433189,0.8577401388570989,0.39789425497825626,0.3712825207904169
1658789613449176,0.8782482642862597,0.34845502403295914,0.3600518806744484
1658789613465164,0.825268940260929,0.38873884184023844,0.3704280155642019
1658789613481151,0.7739986266880292,0.47907225146868093,0.3792172121766999
1658789613497139,0.7890135042343784,0.5160601205462729,0.36859693293659834
1658789613513126,0.8394293125810632,0.4586861982146946,0.34918745708400056
1658789613529113,0.7967040512703134,0.46552224002441456,0.3771419851987492
1658789613545101,0.7671625848783092,0.4721141374837874,0.3838559548332956
1658789613561088,0.790844586861982,0.49457541771572444,0.36481269550621764
1658789613577076,0.8367437247272447,0.46295872434576957,0.3258716716258485
1658789613593078,0.8198977645532919,0.45551232166018174,0.3247730220492864
1658789613609066,0.7625238422217135,0.5259479667353322,0.3518730449378191
1658789613625053,0.7069810025177388,0.6331273365377283,0.40424200808728195
1658789613641040,0.7376211184863051,0.594552529182879,0.3804379339284356
1658789613657028,0.8223392080567633,0.4867627985046159,0.3308766308079649
1658789613673015,0.8198977645532919,0.46601052872510884,0.31305409323262356
1658789613689003,0.7127183947508966,0.6128633554589147,0.3696955825131605
1658789613704990,0.6796368352788589,0.690135042343786,0.40924696726939835
1658789613720977,0.7698481727321278,0.6070038910505833,0.3466239414053556
1658789613736965,0.8111085679407948,0.5161821927214465,0.3019455252918286
1658789613752952,0.7223620965896087,0.5424277103837642,0.33588158999008133
1658789613768940,0.6613260090028232,0.6315403982604719,0.3587090867475391
1658789613784927,0.6962386511024645,0.6726787212939653,0.36224917982757265
1658789613800914,0.74702067597467,0.6190890363927668,0.33209735255970063
1658789613816902,0.7284657053482873,0.5803921568627448,0.3262378881513692
1658789613832889,0.6587624933241782,0.6530251010910204,0.3561455710688941
1658789613848877,0.5858854047455555,0.7410391393911651,0.42609292744335114
1658789613864864,0.6491187914854661,0.6986800946059359,0.3898374914168006
1658789613880851,0.7567864499885557,0.6074921797512776,0.3187914854657814
1658789613896839,0.7216296635385673,0.6171358815899897,0.30951400015259
1658789613912811,0.6187228198672461,0.6951400015259024,0.3570000762951091
1658789613928798,0.6304417486839098,0.7188220035095751,0.34381628137636344
1658789613944786,0.6614480811779968,0.7171129930571452,0.3224536507209885
1658789613960773,0.6199435416189818,0.7063706416418709,0.3599298084992748
1658789613976760,0.611642633707179,0.6791485465781646,0.3696955825131605
1658789613992748,0.6422827496757462,0.6740215152208746,0.34833295185778557
1658789614008735,0.643747615777829,0.6819562066071567,0.31635004196231
1658789614024723,0.5841763942931255,0.7488517586022736,0.3443045700770577
1658789614040710,0.5441367208361942,0.7813229571984435,0.39240100709544556
1658789614056697,0.5900358587014569,0.7599603265430686,0.3633478294041348
1658789614072685,0.6519264515144583,0.7024643320363166,0.31732661936369855
1658789614088672,0.6118867780575261,0.7238269626916916,0.32648203250171637
1658789614104660,0.5219195849546043,0.8220950637064162,0.39667353322652055
1658789614120647,0.5298542763408864,0.8238040741588462,0.37018387121385476
1658789614136634,0.6161593041886011,0.7550774395361257,0.30597390707255645
1658789614152622,0.6272678721293969,0.7089341573205159,0.29962615396353076
1658789614168609,0.5464560921644921,0.76752880140383,0.33075455863279135
1658789614184597,0.49542992294193944,0.8373540856031125,0.3616388189517048
1658789614200584,0.5011673151750973,0.8454108491645682,0.36652170595864764
1658789614216571,0.5374227512016478,0.7653315022507057,0.3494316014343477
1658789614232574,0.5824673838406955,0.7072251468680859,0.3029221026932172
1658789614248561,0.5828336003662162,0.7355458915083544,0.275089646753643
1658789614264549,0.5071488517586022,0.8417486839093611,0.3074387731746393
1658789614280536,0.4464789806973375,0.8794689860379954,0.35089646753643056
1658789614296524,0.47260242618448167,0.8274662394140533,0.3460135805294877
1658789614312511,0.5449912260624092,0.7329823758297094,0.3117112993057143
1658789614328498,0.5235065232318608,0.7467765316243229,0.3136644541084914
1658789614344486,0.4447699702449075,0.8336919203479054,0.3523613336385134
1658789614360473,0.40802624551766264,0.883863584344244,0.3523613336385134
1658789614376461,0.44831006332494105,0.8618905928130003,0.3377126726176849
1658789614392448,0.4914015411612116,0.8119630731670098,0.30597390707255645
1658789614408435,0.45880827038986816,0.8533455405508503,0.32904554818036136
1658789614424423,0.41681544213015975,0.8775158312352183,0.35968566414892766
1658789614440410,0.4367132066834518,0.8710460059510181,0.31293202105745
1658789614456398,0.47345693141069667,0.8603036545357439,0.28375677119096654
1658789614472385,0.45294880598153675,0.858838788433661,0.2890058747234301
1658789614488372,0.3989929045548184,0.901197833218891,0.30170138094148147
1658789614504360,0.3549248493171584,0.9058365758754867,0.3506523231860834
1658789614520347,0.4024109254596784,0.8623788815136946,0.31696040283817783
1658789614536335,0.46674296177615027,0.8349126420996411,0.275944151979858
1658789614552307,0.4282902265964754,0.8563973449301896,0.2826581216144044
1658789614568294,0.3674982833600362,0.8963149462119482,0.3012130922407872
1658789614584282,0.3452811474784463,0.9585717555504694,0.31219958800640857
1658789614600269,0.3552910658426791,0.9221942473487452,0.31696040283817783
1658789614616256,0.391424429694057,0.8557869840543217,0.2948653391317615
1658789614632244,0.384588387884337,0.8657969024185546,0.2953536278324558
1658789614648231,0.31488517586022713,0.9368429083695737,0.32867933165484065
1658789614664219,0.30768291752498644,0.9551537346456094,0.32111085679407925
1658789614680206,0.3800717174029149,0.9169451438162817,0.27411306935225443
1658789614696193,0.39154650186923057,0.8783703364614333,0.26861982146944374
1658789614712181,0.3048752574959943,0.9036392767223624,0.30780498970016
1658789614728168,0.27447928587777515,0.9455100328068973,0.3153734645609214
1658789614744156,0.306950484473945,0.942458228427558,0.28998245212481866
1658789614760143,0.3528496223392077,0.8834973678187232,0.26446936751354233
1658789614776130,0.34503700312809915,0.878736552986954,0.275089646753643
1658789614792118,0.2918135347524222,0.9293965056839859,0.2809491111619744
1658789614808105,0.2818036163881894,0.9615014877546351,0.2775310902571144
1658789614824092,0.29413290608072007,0.9463645380331123,0.27154955367360945
1658789614840080,0.2985275043869686,0.9206073090714888,0.2860761425192644
1658789614856067,0.27533379110399014,0.9062027924010074,0.2910811017013808
1658789614872070,0.28155947203784226,0.899488822766461,0.27118333714808873
1658789614888057,0.26190585183489734,0.932204165712978,0.28497749294270225
1658789614904045,0.2339513237201496,0.949294270237278,0.3045090409704736
1658789614920032,0.27313649195086587,0.935622186617838,0.2658121614404516
1658789614936020,0.29755092698558006,0.930495155260548,0.2537270160982681
1658789614952007,0.2511635004196231,0.939894712748913,0.2666666666666666
1658789614967994,0.22162203402761893,0.9513694972152287,0.27655451285572585
1658789614983982,0.24115358205539028,0.9561303120469979,0.2653238727397573
1658789614999969,0.26861982146944374,0.9149919890135045,0.23846799420157172
1658789615015957,0.25506981002517737,0.9087663080796524,0.23273060196841389
1658789615031944,0.20013733119707044,0.9586938277256429,0.27313649195086587
1658789615047931,0.17242694743266984,0.9788357366292821,0.28461127641718154
1658789615063919,0.21283283741512182,0.9636987869077593,0.26178377965972377
1658789615079906,0.2532387273975738,0.9203631647211417,0.2507972838941024
1658789615095893,0.22235446707866036,0.9207293812466624,0.2571450370031281
1658789615111881,0.1713282978561077,0.9712672617685207,0.2578774700541695
1658789615127868,0.14959945067521208,1.007888914320592,0.27692072938124657
1658789615143856,0.15948729686427132,0.9870145723659114,0.26056305790798806
1658789615159843,0.19366750591287119,0.9575951781490808,0.24371709773403527
1658789615175830,0.20404364080262472,0.9319600213626309,0.2322423132677196
1658789615191803,0.1587548638132299,0.9468528267338066,0.24933241779201953
1658789615207790,0.10968184939345349,0.9685816739147022,0.2659342336156252
1658789615223777,0.12103456168459559,0.9607690547035936,0.25983062485694663
1658789615239765,0.15655756466010562,0.9374532692454416,0.23504997329671173
1658789615255752,0.13763637750820212,0.9569848172732129,0.241519798580911
1658789615271740,0.0709849698634315,1.001052872510872,0.2898603799496451
1658789615287727,0.06829938200961294,1.001907377737087,0.2931563286793315
1658789615303714,0.12396429388876129,0.970901045243,0.2444495307850767
1658789615319702,0.12506294346532432,0.9528343633173115,0.2377355611505303
1658789615335689,0.06524757763027367,0.9948271915770199,0.2611734187838559
1658789615351677,0.06500343327992653,1.024368657969024,0.26312657358663305
1658789615367664,0.09161516746776499,0.9893339436942092,0.23529411764705888
1658789615383651,0.1062638284885935,0.9395284962233923,0.21844815747310609
1658789615399639,0.07696650644693648,0.9425803006027316,0.2162508583199818
1658789615415626,0.005676356145571049,1.0290074006256198,0.2653238727397573
1658789615431614,0.005554283970397478,1.0271763179980162,0.25726710917830165
1658789615447601,0.06732280460822437,0.9679713130388343,0.22223239490348679
1658789615463588,0.08111696040283789,0.939040207522698,0.22687113756008248
1658789615479576,0.033752956435492365,0.9826199740596628,0.23407339589532317
1658789615495563,0.008850232700083893,1.032669565880827,0.25299458304722666
1658789615511535,0.015197985809109582,1.012161440451667,0.2348058289463646
1658789615527523,0.03179980163271523,0.9621118486305029,0.21832608529793252
1658789615543510,0.017761501487754572,0.951003280689708,0.21490806439307253
1658789615559497,-0.02032501716639956,0.98970016021973,0.2276035706111239
1658789615575485,-0.03533989471274879,1.0102082856488899,0.24042114900434886
1658789615591472,-0.0109254596780346,0.9792019531548029,0.21185626001373326
1658789615607460,0.013977264057373873,0.9457541771572444,0.1948882276646069
1658789615623447,-0.02264438849469741,0.9534447241931794,0.20306706340123615
1658789615639434,-0.09503318837262542,1.038895246814679,0.2490882734416724
1658789615655422,-0.09442282749675757,1.0543984130617226,0.26727702754253446
1658789615671409,-0.03204394598306237,0.9976348516060121,0.22540627145799963
1658789615687397,-0.006652933546959616,0.9446555275806823,0.19586480506599546
1658789615703384,-0.06732280460822482,0.9883573662928207,0.2243076218814375
1658789615719371,-0.08599984740978117,1.0459754329747462,0.22601663233386748
1658789615735359,-0.06036469062333083,1.0459754329747462,0.22027924010070965
1658789615751346,-0.04974441138323016,1.0152132448310063,0.19049362935835834
1658789615767334,-0.07769893949797835,1.0071564812695506,0.19049362935835834
1658789615783321,-0.09881742580300612,1.0323033493553062,0.20343327992675686
1658789615799308,-0.09832913710231184,1.0524452582589454,0.20794995040817899
1658789615815296,-0.09381246662088971,1.0263218127718012,0.19891660944533474
1658789615831298,-0.10785076676585037,1.0238803692683298,0.20978103303578255
1658789615847286,-0.10955977721828036,1.040360112916762,0.21454184786755182
1658789615863273,-0.1165178912031739,1.072220950637064,0.23065537499046318
1658789615879261,-0.12066834515907532,1.0900434882124053,0.24603646906233312
1658789615895248,-0.11456473640039677,1.0684367132066832,0.22357518883039607
1658789615911235,-0.10235751888303968,1.0434119172961012,0.2066071564812697
1658789615927223,-0.1098039215686275,1.0584267948424504,0.20794995040817899
1658789615943210,-0.10955977721828036,1.0650186923018232,0.21026932173647683
1658789615959198,-0.10955977721828036,1.063675898374914,0.21283283741512182
1658789615975185,-0.10870527199206537,1.0392614633401998,0.2141756313420311
1658789615991172,-0.10626382848859395,1.0518348973830776,0.21771572442206466
1658789616007160,-0.07647821774624264,1.037186236362249,0.21356527046616325
1658789616023147,-0.06964217593652267,1.0059357595178149,0.201968413824674
1658789616039135,-0.09234760051880686,1.0272983901731898,0.20990310521095612
1658789616055122,-0.09796292057679112,1.0473182269016554,0.22223239490348679
1658789616071109,-0.06732280460822482,1.0259555962462805,0.2205233844510568
1658789616087097,-0.04180971999694805,0.9948271915770199,0.22504005493247892
1658789616103084,-0.05157549401083372,1.0103303578240634,0.24493781948577098
1658789616119072,-0.07989623865110262,1.0452429999237047,0.28253604943923083
1658789616135059,-0.08172732127870619,1.036942092011902,0.2990157930876629
1658789616151062,-0.023498893720912406,0.9995880064087892,0.28119325551232155
1658789616167049,0.012756542305638163,0.9813992523079271,0.25690089265278093
1658789616183036,0.0042114900434881974,0.9904325932707714,0.2494544899671931
1658789616199024,0.010803387502861028,0.98970016021973,0.22626077668421463
1658789616215011,0.03204394598306237,0.9748073548485543,0.2066071564812697
1658789616230999,0.03558403906309593,0.9612573434042879,0.22211032272831321
1658789616246986,0.00982681010147246,0.9927519645990692,0.2533607995727474
1658789616262973,0.023743038071259548,0.9864042114900435,0.2654459449149309
1658789616278961,0.06829938200961294,0.966628519111925,0.2671549553673609
1658789616294948,0.09625391012436069,0.9702906843671322,0.26825360494392303
1658789616310936,0.08453498130769788,0.9798123140306707,0.2737468528267337
1658789616326923,0.07171740291447293,1.0192416266117341,0.2940108339055465
1658789616342910,0.09784084840161711,1.011306935225452,0.271671625848783
1658789616358898,0.13800259403372284,0.9793240253299764,0.26520180056458376
1658789616374885,0.14520485236896352,0.9387960631723509,0.27020675974670016
1658789616390873,0.1167620355535206,0.9627222095063708,0.28033875028610655
1658789616406860,0.10638590066376707,0.9807888914320593,0.28241397726405726
1658789616422847,0.12616159304188646,0.9840848401617457,0.2831464103150987
1658789616438835,0.16156252384222203,0.9468528267338066,0.2909590295262072
1658789616454822,0.19916075379568188,0.9163347829404138,0.27875181200885013
1658789616470794,0.22333104448004892,0.9132829785610745,0.25641260395208665
1658789616486782,0.19342336156252404,0.9601586938277258,0.2813153276874951
1658789616502769,0.16644541084916487,0.9958037689784085,0.30438696879530003
1658789616518756,0.18426794842450622,0.9857938506141757,0.31439688715953285
1658789616534744,0.21930266269932108,0.9445334554055087,0.3262378881513692
1658789616550731,0.2594644083314259,0.9186541542687117,0.31610589761196284
1658789616566719,0.2957198443579765,0.8855725947966739,0.2919356069275958
1658789616582706,0.2931563286793315,0.9270771343556881,0.2868085755703058
1658789616598693,0.2590981918059052,0.9608911268787672,0.29376668955519936
1658789616614681,0.25897611963073164,0.946730754558633,0.29681849393453863
1658789616630668,0.3082932784008543,0.8845960173952854,0.2847333485923551
1658789616646656,0.3552910658426791,0.8180666819256883,0.28925001907377723
1658789616662643,0.33539330128938705,0.8458991378652625,0.30768291752498644
1658789616678630,0.277653162432288,0.9318379491874573,0.32819104295414636
1658789616694618,0.29498741130693507,0.9344014648661023,0.32111085679407925
1658789616710605,0.36603341725795335,0.863965819790951,0.3124437323567557
1658789616726593,0.40375371938658766,0.8251468680857554,0.3297779812314028
1658789616742580,0.3821469443808656,0.8676279850461581,0.33075455863279135
1658789616758567,0.3392996108949413,0.9411154345006487,0.3642023346303498
1658789616774555,0.34259555962462773,0.9292744335088123,0.36737621118486263
1658789616790557,0.3943541618982227,0.878736552986954,0.34039826047150346
1658789616806545,0.42694743266956614,0.8379644464789804,0.33026626993209707
1658789616822532,0.42731364919508685,0.8601815823605703,0.32611581597619566
1658789616838520,0.42194247348744973,0.852857251850156,0.3233081559472035
1658789616854507,0.45136186770428033,0.8341802090485997,0.2990157930876629
1658789616870494,0.46259250782024885,0.8083009079118026,0.3036545357442586
1658789616886482,0.4556343938353553,0.8096437018387119,0.3053635461966886
1658789616902469,0.43830014496070824,0.8659189745937281,0.3382009613183792
