Timestamp (microseconds),Gyro X (°/s),Gyro Y (°/s),Gyro Z (°/s)
1658789591529785,-0.7629510948347615,-1.0681315327688026,-0.7019150072480898
1658789591545782,-0.5188067444876197,-1.2512397955290453,-0.8850232700083325
1658789591561779,0.33569848172737693,-1.4343480582895154,-1.0070954451819034
1658789591577776,1.983672846570471,-1.1902037079423735,-1.4953841458761872
1658789591593773,1.1902037079423735,-1.6784924086366573,-1.4953841458761872
1658789591609769,0.33569848172737693,-1.6784924086366573,-1.2512397955290453
1658789591625766,1.1902037079423735,-1.0070954451819034,-0.8239871824216607
1658789591641763,1.6174563210497581,-0.7629510948347615,-0.8239871824216607
1658789591657760,0.2746623941404778,-0.2746623941404778,-0.7629510948347615
1658789591673757,1.1291676203554744,-0.3967345693140487,-0.5798428320745188
1658789591689754,3.0212863355459376,0.15259021896690683,-0.7629510948347615
1658789591705751,2.288853284504512,-0.213626306553806,-0.33569848172737693
1658789591721748,0.15259021896690683,-0.7019150072480898,0.45777065690094787
1658789591737745,-0.5188067444876197,-0.5188067444876197,0.3967345693140487
1658789591753742,0.2746623941404778,-0.33569848172737693,-0.03051804379333589
1658789591769739,1.8616006713969,-0.5188067444876197,-0.03051804379333589
1658789591785736,1.1902037079423735,-0.5798428320745188,-0.03051804379333589
1658789591801733,-0.8850232700083325,-0.03051804379333589,-0.15259021896690683
1658789591817730,-0.9460593575952316,0.03051804379333589,-0.2746623941404778
1658789591833727,0.6408789196611906,-0.15259021896690683,-0.213626306553806
1658789591849731,2.410925459678083,-0.45777065690094787,-0.03051804379333589
1658789591865728,1.0070954451819034,-0.5188067444876197,-0.5188067444876197
1658789591881725,0.3967345693140487,-0.2746623941404778,-0.9460593575952316
1658789591897722,0.7629510948347615,-0.6408789196611906,-0.5188067444876197
1658789591913719,2.105745021744042,-0.213626306553806,-0.2746623941404778
1658789591929716,1.2512397955290453,-0.213626306553806,-0.15259021896690683
1658789591945713,-0.15259021896690683,0.03051804379333589,0.09155413138023505
1658789591961710,-1.0070954451819034,-0.5188067444876197,-0.213626306553806
1658789591977707,0.15259021896690683,-1.0681315327688026,-0.8850232700083325
1658789591993703,0.8850232700083325,-0.45777065690094787,-0.8239871824216607
1658789592009700,0.8850232700083325,-0.2746623941404778,-0.33569848172737693
1658789592025697,1.0681315327688026,-0.33569848172737693,-0.5798428320745188
1658789592041694,1.6174563210497581,-0.45777065690094787,-0.5798428320745188
1658789592057691,1.1291676203554744,-0.5798428320745188,-0.5188067444876197
1658789592073688,-0.5798428320745188,-0.15259021896690683,-0.45777065690094787
1658789592089685,0.45777065690094787,-0.03051804379333589,-0.15259021896690683
1658789592105682,1.1902037079423735,-0.5188067444876197,-0.15259021896690683
1658789592121679,0.9460593575952316,-0.6408789196611906,-0.6408789196611906
1658789592137676,-0.7019150072480898,-0.6408789196611906,-0.8239871824216607
1658789592153673,-0.6408789196611906,-0.09155413138023505,-0.9460593575952316
1658789592169677,1.0681315327688026,-0.213626306553806,-1.0070954451819034
1658789592185674,1.8005645838102282,-0.9460593575952316,-1.2512397955290453
1658789592201671,0.213626306553806,-1.1902037079423735,-1.3122758831159445
1658789592217668,0.7629510948347615,-0.7629510948347615,-1.3122758831159445
1658789592233665,1.2512397955290453,-0.33569848172737693,-0.5188067444876197
1658789592249662,2.227817196917613,-0.5188067444876197,-0.6408789196611906
1658789592265659,2.9602502479590385,-0.7019150072480898,-1.2512397955290453
1658789592281656,1.6784924086366573,-0.8239871824216607,-1.3122758831159445
1658789592297653,-0.3967345693140487,-0.7629510948347615,-1.0070954451819034
1658789592313650,-1.0070954451819034,-1.1291676203554744,-0.6408789196611906
1658789592329647,0.45777065690094787,-0.8239871824216607,-0.7019150072480898
1658789592345644,1.0681315327688026,-1.2512397955290453,-0.6408789196611906
1658789592361641,1.3733119707026162,-1.1902037079423735,-0.5188067444876197
1658789592377637,1.4953841458761872,-0.5188067444876197,-0.6408789196611906
1658789592393634,1.8616006713969,-0.2746623941404778,-0.7629510948347615
1658789592409631,1.739528496223329,-0.7019150072480898,-0.5188067444876197
1658789592425628,-0.5798428320745188,-0.9460593575952316,-0.6408789196611906
1658789592441625,-1.8005645838102282,-1.3122758831159445,-0.5798428320745188
1658789592457622,-0.7019150072480898,-1.0070954451819034,-0.5188067444876197
1658789592473619,0.7629510948347615,-0.6408789196611906,-0.7019150072480898
1658789592489502,1.5564202334630863,-1.3122758831159445,-0.6408789196611906
1658789592505498,1.739528496223329,-1.4343480582895154,-0.33569848172737693
1658789592521494,1.1291676203554744,-1.0681315327688026,-0.15259021896690683
1658789592537491,1.739528496223329,-0.7019150072480898,-0.3967345693140487
1658789592553487,1.3733119707026162,-0.8239871824216607,-0.8850232700083325
1658789592569484,1.4343480582895154,-1.2512397955290453,-0.6408789196611906
1658789592585480,2.410925459678083,-0.9460593575952316,-0.2746623941404778
1658789592601477,1.4953841458761872,-0.7019150072480898,-0.6408789196611906
1658789592617473,-0.213626306553806,-1.2512397955290453,-0.9460593575952316
1658789592633470,-1.0681315327688026,-1.3733119707026162,-0.7019150072480898
1658789592649466,-0.213626306553806,-0.15259021896690683,-0.5798428320745188
1658789592665463,2.105745021744042,-0.03051804379333589,-0.5188067444876197
1658789592681459,2.3498893720911838,-0.09155413138023505,-0.33569848172737693
1658789592697456,1.8005645838102282,0.09155413138023505,-0.33569848172737693
1658789592713452,3.2043945983061803,-0.15259021896690683,-0.6408789196611906
1658789592729448,3.6316472114137923,-0.45777065690094787,-0.8239871824216607
1658789592745445,2.5940337224383256,-0.15259021896690683,-0.33569848172737693
1658789592761441,-0.03051804379333589,0.213626306553806,-0.2746623941404778
1658789592777438,-0.15259021896690683,1.0070954451819034,-0.8850232700083325
1658789592793434,0.5188067444876197,0.6408789196611906,-1.6784924086366573
1658789592809265,1.1902037079423735,-0.15259021896690683,-1.983672846570471
1658789592825261,0.15259021896690683,-0.45777065690094787,-1.3733119707026162
1658789592841257,-0.6408789196611906,-0.15259021896690683,-1.2512397955290453
1658789592857253,1.3733119707026162,-0.03051804379333589,-0.9460593575952316
1658789592873249,3.6316472114137923,-0.7019150072480898,-0.3967345693140487
1658789592889245,3.6316472114137923,-0.8850232700083325,-0.09155413138023505
1658789592905241,1.0681315327688026,-1.1291676203554744,-0.09155413138023505
1658789592921237,-0.3967345693140487,-0.9460593575952316,-0.09155413138023505
1658789592937233,-0.3967345693140487,-1.0681315327688026,-0.15259021896690683
1658789592953229,1.4343480582895154,-0.3967345693140487,-0.5798428320745188
1658789592969225,-0.09155413138023505,-0.45777065690094787,-0.7019150072480898
1658789592985221,-1.3733119707026162,-0.6408789196611906,-0.5188067444876197
1658789593001217,-1.1902037079423735,-0.8850232700083325,-0.8850232700083325
1658789593017212,0.15259021896690683,-1.9226367589837992,-1.0070954451819034
1658789593033208,0.7019150072480898,-2.7771419851987957,-0.7019150072480898
1658789593049204,-0.8850232700083325,-1.8616006713969,0.7019150072480898
1658789593065200,-0.15259021896690683,-1.3733119707026162,1.6784924086366573
1658789593081196,0.09155413138023505,-0.6408789196611906,1.8005645838102282
1658789593097192,0.7629510948347615,-0.5188067444876197,1.0070954451819034
1658789593113188,2.7161058976118966,-0.09155413138023505,-0.3967345693140487
1658789593128997,3.3875028610666504,0.3967345693140487,-1.3122758831159445
1658789593144992,0.9460593575952316,0.9460593575952316,-1.5564202334630863
1658789593160987,0.2746623941404778,0.8239871824216607,-1.6174563210497581
1658789593176983,0.2746623941404778,-0.03051804379333589,-1.8616006713969
1658789593192978,0.5188067444876197,-0.9460593575952316,-2.04470893415737
1658789593208973,0.6408789196611906,-0.6408789196611906,-1.4343480582895154
1658789593224968,0.09155413138023505,0.09155413138023505,-0.9460593575952316
1658789593240963,-0.213626306553806,0.45777065690094787,-0.9460593575952316
1658789593256958,0.45777065690094787,-0.33569848172737693,-0.9460593575952316
1658789593272953,1.8616006713969,-0.9460593575952316,-1.3122758831159445
1658789593288948,1.0070954451819034,-0.45777065690094787,-1.4953841458761872
1658789593304943,-0.03051804379333589,-0.33569848172737693,-1.8616006713969
1658789593320938,-1.1902037079423735,-0.9460593575952316,-2.166781109330941
1658789593336933,-0.33569848172737693,-1.3733119707026162,-2.532997634851654
1658789593352928,0.7629510948347615,-0.7019150072480898,-2.04470893415737
1658789593368923,1.4343480582895154,0.7629510948347615,-1.6784924086366573
1658789593384918,1.983672846570471,0.9460593575952316,-1.1291676203554744
1658789593400913,2.7771419851987957,0.213626306553806,-1.3122758831159445
1658789593416908,2.5940337224383256,0.213626306553806,-1.6784924086366573
1658789593432903,1.1902037079423735,-0.33569848172737693,-1.739528496223329
1658789593448791,1.8005645838102282,-0.7019150072480898,-1.4953841458761872
1658789593464786,1.4343480582895154,-1.4343480582895154,-0.7629510948347615
1658789593480780,1.8616006713969,-1.8005645838102282,-0.9460593575952316
1658789593496775,0.33569848172737693,-1.4953841458761872,-1.3122758831159445
1658789593512769,-1.4953841458761872,-1.0070954451819034,-1.2512397955290453
1658789593528764,-1.2512397955290453,-0.8239871824216607,-1.3122758831159445
1658789593544758,-0.09155413138023505,-0.9460593575952316,-1.1291676203554744
1658789593560753,-0.5798428320745188,-1.4343480582895154,-1.0070954451819034
1658789593576748,-0.8239871824216607,-1.0681315327688026,-0.8850232700083325
1658789593592742,-0.5798428320745188,-1.0681315327688026,-1.2512397955290453
1658789593608737,-0.09155413138023505,-1.0681315327688026,-1.0070954451819034
1658789593624731,0.6408789196611906,-0.7629510948347615,-0.5188067444876197
1658789593640726,0.8850232700083325,0.03051804379333589,-0.2746623941404778
1658789593656720,2.288853284504512,0.03051804379333589,-0.213626306553806
1658789593672715,3.570611123826893,-0.45777065690094787,-0.5188067444876197
1658789593688709,3.0212863355459376,-0.7629510948347615,-0.5798428320745188
1658789593704704,1.3733119707026162,-0.3967345693140487,-0.5798428320745188
1658789593720698,0.33569848172737693,-0.3967345693140487,-0.8239871824216607
1658789593736693,0.33569848172737693,-1.5564202334630863,-1.0070954451819034
1658789593752688,1.5564202334630863,-1.2512397955290453,-1.1902037079423735
1658789593768524,-0.5798428320745188,-0.7629510948347615,-1.1902037079423735
1658789593784518,-0.33569848172737693,-0.6408789196611906,-0.9460593575952316
1658789593800512,-2.3498893720911838,-0.8850232700083325,-0.6408789196611906
1658789593816506,-1.2512397955290453,-0.7019150072480898,-0.213626306553806
1658789593832500,1.739528496223329,-0.03051804379333589,-0.15259021896690683
1658789593848494,3.5095750362402214,0.15259021896690683,-0.8850232700083325
1658789593864488,3.3875028610666504,-1.0070954451819034,-1.4953841458761872
1658789593880482,2.105745021744042,-1.6174563210497581,-1.4953841458761872
1658789593896476,0.09155413138023505,-1.6174563210497581,-1.4343480582895154
1658789593912470,-1.2512397955290453,-1.2512397955290453,-0.8239871824216607
1658789593928465,-0.33569848172737693,-1.4953841458761872,-0.7019150072480898
1658789593944459,1.3122758831159445,-1.2512397955290453,-0.5798428320745188
1658789593960453,1.3733119707026162,-0.7019150072480898,-0.5188067444876197
1658789593976447,1.3733119707026162,-0.33569848172737693,-0.3967345693140487
1658789593992441,1.0070954451819034,-0.8850232700083325,-0.33569848172737693
1658789594008435,1.3733119707026162,-1.3122758831159445,-0.7019150072480898
1658789594024429,0.7629510948347615,-1.0070954451819034,-1.1291676203554744
1658789594040423,-0.2746623941404778,-0.5188067444876197,-1.6784924086366573
1658789594056417,-0.5798428320745188,-0.5188067444876197,-1.6174563210497581
1658789594072411,1.9226367589837992,-0.7629510948347615,-1.2512397955290453
1658789594088287,2.4719615472647547,-0.7629510948347615,-0.9460593575952316
1658789594104281,0.5188067444876197,-0.45777065690094787,-1.0070954451819034
1658789594120274,0.15259021896690683,-0.3967345693140487,-1.3122758831159445
1658789594136268,1.3733119707026162,-0.5188067444876197,-1.2512397955290453
1658789594152261,1.8005645838102282,-0.8850232700083325,-1.2512397955290453
1658789594168255,1.6174563210497581,-0.8850232700083325,-1.2512397955290453
1658789594184249,2.227817196917613,0.03051804379333589,-1.5564202334630863
1658789594200242,1.5564202334630863,-0.213626306553806,-2.227817196917613
1658789594216236,0.9460593575952316,-1.1902037079423735,-2.227817196917613
1658789594232229,-0.33569848172737693,-1.3122758831159445,-1.8616006713969
1658789594248223,-0.7629510948347615,-0.9460593575952316,-1.3122758831159445
1658789594264217,-0.7629510948347615,-0.6408789196611906,-1.2512397955290453
1658789594280210,0.15259021896690683,-0.5798428320745188,-1.3122758831159445
1658789594296204,2.105745021744042,-0.8239871824216607,-0.8850232700083325
1658789594312197,1.3122758831159445,-0.03051804379333589,-0.3967345693140487
1658789594328191,0.9460593575952316,0.45777065690094787,-0.5798428320745188
1658789594344185,1.6784924086366573,0.5798428320745188,-0.9460593575952316
1658789594360178,2.288853284504512,0.213626306553806,-0.8850232700083325
1658789594376172,1.6784924086366573,0.03051804379333589,-0.45777065690094787
1658789594392165,0.15259021896690683,0.33569848172737693,-0.03051804379333589
1658789594408081,-1.1902037079423735,-0.03051804379333589,0.09155413138023505
1658789594424074,0.2746623941404778,-0.2746623941404778,0.45777065690094787
1658789594440067,0.8850232700083325,-0.5188067444876197,0.8850232700083325
1658789594456060,0.7019150072480898,-0.03051804379333589,1.0681315327688026
1658789594472053,0.09155413138023505,-0.15259021896690683,0.9460593575952316
1658789594488046,-0.8239871824216607,-0.15259021896690683,0.8239871824216607
1658789594504039,-0.3967345693140487,0.09155413138023505,0.6408789196611906
1658789594520033,0.3967345693140487,0.09155413138023505,0.6408789196611906
1658789594536026,1.6174563210497581,-0.15259021896690683,0.7629510948347615
1658789594552019,1.739528496223329,-0.213626306553806,1.2512397955290453
1658789594568012,0.9460593575952316,-0.7019150072480898,0.8239871824216607
1658789594584005,0.3967345693140487,-0.3967345693140487,0.7629510948347615
1658789594599998,-0.45777065690094787,-0.5188067444876197,1.1902037079423735
1658789594615991,-1.0070954451819034,-0.7019150072480898,1.1291676203554744
1658789594631984,0.45777065690094787,-0.15259021896690683,0.7019150072480898
1658789594647977,1.1291676203554744,-0.5188067444876197,0.33569848172737693
1658789594663971,-0.2746623941404778,-0.7019150072480898,0.2746623941404778
1658789594679964,-2.04470893415737,-1.6174563210497581,0.3967345693140487
1658789594695957,-1.5564202334630863,-1.1902037079423735,0.2746623941404778
1658789594711950,0.03051804379333589,-0.7629510948347615,0.213626306553806
1658789594727813,0.45777065690094787,-1.1291676203554744,0.15259021896690683
1658789594743806,0.5798428320745188,-1.4343480582895154,-0.5798428320745188
1658789594759799,0.45777065690094787,-1.0070954451819034,-0.9460593575952316
1658789594775791,0.5798428320745188,-0.8239871824216607,-0.9460593575952316
1658789594791784,1.3122758831159445,-0.3967345693140487,-0.8850232700083325
1658789594807777,0.7629510948347615,-0.7019150072480898,-0.33569848172737693
1658789594823769,-1.3122758831159445,-1.4953841458761872,-0.3967345693140487
1658789594839762,-2.5940337224383256,-1.0070954451819034,-0.8239871824216607
1658789594855754,-1.983672846570471,-0.7629510948347615,-1.3122758831159445
1658789594871747,-0.09155413138023505,-1.0070954451819034,-1.1902037079423735
1658789594887740,0.45777065690094787,-1.3733119707026162,-1.1902037079423735
1658789594903732,-0.15259021896690683,-1.5564202334630863,-1.4343480582895154
1658789594919725,1.0681315327688026,-0.7629510948347615,-1.3122758831159445
1658789594935718,1.6784924086366573,-1.0681315327688026,-0.8239871824216607
1658789594951710,2.532997634851654,-1.5564202334630863,-0.7629510948347615
1658789594967703,1.983672846570471,-1.1291676203554744,-0.7629510948347615
1658789594983696,1.8005645838102282,-0.45777065690094787,-0.6408789196611906
1658789594999688,1.1902037079423735,-0.7629510948347615,-0.8239871824216607
1658789595015681,0.9460593575952316,-0.8850232700083325,-0.8850232700083325
1658789595031674,-0.45777065690094787,-1.3122758831159445,-0.8850232700083325
1658789595047577,-0.5188067444876197,-0.9460593575952316,-0.9460593575952316
1658789595063569,-0.15259021896690683,-0.7629510948347615,-1.0070954451819034
1658789595079562,-0.45777065690094787,-0.8850232700083325,-0.33569848172737693
1658789595095554,0.33569848172737693,-0.9460593575952316,0.3967345693140487
1658789595111547,0.5798428320745188,-0.3967345693140487,0.09155413138023505
1658789595127540,1.6174563210497581,-0.213626306553806,-0.5188067444876197
1658789595143532,1.6174563210497581,-0.45777065690094787,-0.7629510948347615
1658789595159525,1.0681315327688026,-1.3733119707026162,-0.9460593575952316
1658789595175518,1.4343480582895154,-1.1902037079423735,-0.7019150072480898
1658789595191510,0.8239871824216607,-0.8850232700083325,-0.45777065690094787
1658789595207503,0.15259021896690683,-1.0681315327688026,-0.6408789196611906
1658789595223496,1.1291676203554744,-0.9460593575952316,-0.8850232700083325
1658789595239488,1.9226367589837992,-0.8239871824216607,-1.0070954451819034
1658789595255481,1.3122758831159445,-0.8239871824216607,-1.0070954451819034
1658789595271474,0.15259021896690683,-0.5798428320745188,-0.8239871824216607
1658789595287466,-1.6174563210497581,-0.8850232700083325,-0.5798428320745188
1658789595303459,-1.0070954451819034,-1.0070954451819034,-1.1291676203554744
1658789595319451,0.2746623941404778,-1.0070954451819034,-1.1902037079423735
1658789595335444,-0.45777065690094787,-0.8239871824216607,-0.6408789196611906
1658789595351437,0.3967345693140487,0.03051804379333589,-0.45777065690094787
1658789595367309,3.0823224231326094,0.15259021896690683,-0.5798428320745188
1658789595383301,4.303044174868319,0.03051804379333589,-0.5798428320745188
1658789595399294,2.8381780727854675,-0.15259021896690683,-0.8850232700083325
1658789595415286,0.3967345693140487,-0.09155413138023505,-0.8239871824216607
1658789595431278,-0.09155413138023505,-0.15259021896690683,-0.7019150072480898
1658789595447270,0.2746623941404778,-0.2746623941404778,-0.7629510948347615
1658789595463262,1.1291676203554744,-0.7629510948347615,-0.9460593575952316
1658789595479254,1.4343480582895154,-0.7019150072480898,-1.2512397955290453
1658789595495247,1.9226367589837992,-1.0070954451819034,-1.4343480582895154
1658789595511239,1.3733119707026162,-0.8239871824216607,-1.3122758831159445
1658789595527231,-0.45777065690094787,-1.0681315327688026,-1.0681315327688026
1658789595543223,0.45777065690094787,-0.8239871824216607,-1.0070954451819034
1658789595559215,1.1902037079423735,-0.7019150072480898,-0.8239871824216607
1658789595575207,1.9226367589837992,-0.5188067444876197,-0.8239871824216607
1658789595591199,1.4953841458761872,-0.45777065690094787,-1.1291676203554744
1658789595607192,1.0681315327688026,-1.2512397955290453,-1.8005645838102282
1658789595623184,1.8005645838102282,-1.4953841458761872,-2.04470893415737
1658789595639176,0.5188067444876197,-1.1902037079423735,-1.6784924086366573
1658789595655168,-1.3733119707026162,-1.0681315327688026,-1.2512397955290453
1658789595671160,-1.1902037079423735,-1.1291676203554744,-0.7629510948347615
1658789595687103,1.5564202334630863,-0.45777065690094787,-0.6408789196611906
1658789595703095,2.8381780727854675,-0.5188067444876197,-0.7019150072480898
1658789595719086,2.3498893720911838,-0.7019150072480898,-1.0070954451819034
1658789595735078,1.2512397955290453,-0.5188067444876197,-0.7629510948347615
1658789595751070,2.04470893415737,-0.2746623941404778,-0.09155413138023505
1658789595767061,2.7161058976118966,-0.6408789196611906,0.213626306553806
1658789595783053,3.1433585107195086,-0.09155413138023505,-0.15259021896690683
1658789595799045,6.195162890058782,1.8616006713969,-0.5798428320745188
1658789595815036,9.002822919050914,2.04470893415737,-0.3967345693140487
1658789595831028,7.782101167315204,1.0681315327688026,-0.5188067444876197
1658789595847020,4.547188525215461,1.0681315327688026,-0.7019150072480898
1658789595863011,1.1291676203554744,0.5798428320745188,-0.6408789196611906
1658789595879003,0.7629510948347615,0.15259021896690683,-0.8239871824216607
1658789595894995,-0.45777065690094787,-0.5798428320745188,-0.8239871824216607
1658789595910987,-0.5798428320745188,-0.8239871824216607,-0.09155413138023505
1658789595926978,0.3967345693140487,-1.3122758831159445,0.7019150072480898
1658789595942970,0.8850232700083325,-1.1902037079423735,0.8850232700083325
1658789595958962,-0.7019150072480898,-0.9460593575952316,0.33569848172737693
1658789595974953,-2.04470893415737,-1.0070954451819034,0.45777065690094787
1658789595990945,-2.4719615472647547,-0.8239871824216607,0.33569848172737693
1658789596006836,-1.1902037079423735,-0.213626306553806,0.03051804379333589
1658789596022827,0.7019150072480898,0.03051804379333589,-0.45777065690094787
1658789596038818,0.3967345693140487,-0.45777065690094787,-0.3967345693140487
1658789596054809,0.8239871824216607,-0.7629510948347615,-0.15259021896690683
1658789596070800,0.45777065690094787,-1.3122758831159445,-0.09155413138023505
1658789596086792,-0.09155413138023505,-1.6784924086366573,-0.45777065690094787
1658789596102783,-0.5798428320745188,-1.3122758831159445,-0.5188067444876197
1658789596118774,0.6408789196611906,-0.33569848172737693,-0.7019150072480898
1658789596134765,0.213626306553806,-0.09155413138023505,-1.1291676203554744
1658789596150756,0.03051804379333589,0.03051804379333589,-1.0681315327688026
1658789596166748,0.33569848172737693,-0.03051804379333589,-1.3733119707026162
1658789596182739,-0.6408789196611906,-0.3967345693140487,-1.8616006713969
1658789596198730,-1.4953841458761872,-0.9460593575952316,-1.9226367589837992
1658789596214721,-0.5798428320745188,-0.7629510948347615,-1.8616006713969
1658789596230713,1.6784924086366573,0.09155413138023505,-1.2512397955290453
1658789596246704,1.6784924086366573,-0.213626306553806,-0.8239871824216607
1658789596262695,-0.3967345693140487,-0.213626306553806,-0.9460593575952316
1658789596278686,-0.8850232700083325,0.03051804379333589,-0.9460593575952316
1658789596294677,-0.5188067444876197,-0.2746623941404778,-1.1291676203554744
1658789596310669,0.6408789196611906,-0.3967345693140487,-1.0681315327688026
1658789596326599,0.2746623941404778,-0.45777065690094787,-1.0070954451819034
1658789596342590,-0.2746623941404778,-0.7019150072480898,-1.4343480582895154
1658789596358581,-1.1291676203554744,-1.4953841458761872,-1.4953841458761872
1658789596374572,-0.5798428320745188,-1.5564202334630863,-1.0070954451819034
1658789596390564,-0.33569848172737693,-1.0681315327688026,-0.15259021896690683
1658789596406555,1.0681315327688026,-0.8239871824216607,-0.03051804379333589
1658789596422546,1.739528496223329,-0.3967345693140487,-0.2746623941404778
1658789596438537,0.7629510948347615,-0.2746623941404778,-0.5798428320745188
1658789596454528,0.8850232700083325,-0.7019150072480898,-0.7019150072480898
1658789596470520,1.3733119707026162,-0.8850232700083325,-1.0681315327688026
1658789596486511,0.7019150072480898,-1.3122758831159445,-0.7629510948347615
1658789596502502,-0.8239871824216607,-2.105745021744042,-0.5798428320745188
1658789596518493,0.09155413138023505,-1.6784924086366573,-0.8239871824216607
1658789596534484,0.6408789196611906,-1.2512397955290453,-0.7629510948347615
1658789596550476,0.7019150072480898,-1.4343480582895154,-0.5798428320745188
1658789596566467,0.5188067444876197,-1.4953841458761872,-0.8850232700083325
1658789596582458,1.3733119707026162,-1.1902037079423735,-1.5564202334630863
1658789596598449,0.9460593575952316,-1.3733119707026162,-1.5564202334630863
1658789596614441,0.15259021896690683,-0.9460593575952316,-1.6174563210497581
1658789596630432,1.0681315327688026,-0.45777065690094787,-1.8005645838102282
1658789596646331,2.04470893415737,-0.6408789196611906,-1.8616006713969
1658789596662322,1.739528496223329,-1.3733119707026162,-1.739528496223329
1658789596678313,-0.09155413138023505,-1.0070954451819034,-1.0681315327688026
1658789596694304,-1.2512397955290453,0.03051804379333589,-0.8239871824216607
1658789596710294,-1.0681315327688026,-0.09155413138023505,-0.45777065690094787
1658789596726285,-0.2746623941404778,-0.6408789196611906,0.03051804379333589
1658789596742276,-1.0070954451819034,-0.5188067444876197,-0.2746623941404778
1658789596758267,-1.4343480582895154,0.03051804379333589,-0.6408789196611906
1658789596774257,-0.5798428320745188,-0.2746623941404778,-0.5798428320745188
1658789596790248,0.7019150072480898,-0.2746623941404778,-0.5798428320745188
1658789596806239,0.8850232700083325,-0.213626306553806,-0.15259021896690683
1658789596822229,0.5188067444876197,0.03051804379333589,0.3967345693140487
1658789596838220,-0.5188067444876197,0.5798428320745188,0.2746623941404778
1658789596854211,1.1291676203554744,0.45777065690094787,0.213626306553806
1658789596870202,0.6408789196611906,0.2746623941404778,0.3967345693140487
1658789596886192,-1.6784924086366573,0.2746623941404778,0.5798428320745188
1658789596902183,-2.3498893720911838,0.5188067444876197,0.213626306553806
1658789596918174,-1.4953841458761872,0.7019150072480898,0.03051804379333589
1658789596934165,-0.8239871824216607,0.03051804379333589,-0.213626306553806
1658789596950155,-0.33569848172737693,-0.6408789196611906,-0.15259021896690683
1658789596966064,-1.739528496223329,-0.5798428320745188,-0.213626306553806
1658789596982054,-1.2512397955290453,0.15259021896690683,0.3967345693140487
1658789596998045,-0.2746623941404778,-0.15259021896690683,0.6408789196611906
1658789597014035,-0.15259021896690683,-0.2746623941404778,0.15259021896690683
1658789597030025,-0.2746623941404778,-0.45777065690094787,-0.09155413138023505
1658789597046015,0.7629510948347615,-0.213626306553806,-0.33569848172737693
1658789597062006,0.3967345693140487,0.09155413138023505,-0.5188067444876197
1658789597077996,0.6408789196611906,-0.33569848172737693,-0.15259021896690683
1658789597093986,0.3967345693140487,-0.6408789196611906,-0.03051804379333589
1658789597109976,-0.213626306553806,-0.9460593575952316,-0.33569848172737693
1658789597125967,0.7019150072480898,-0.45777065690094787,-0.45777065690094787
1658789597141957,-0.15259021896690683,-0.8239871824216607,-0.2746623941404778
1658789597157947,-0.5188067444876197,-1.2512397955290453,-0.2746623941404778
1658789597173937,0.2746623941404778,-0.5798428320745188,-0.15259021896690683
1658789597189928,0.3967345693140487,-0.6408789196611906,-0.33569848172737693
1658789597205918,1.2512397955290453,-0.5188067444876197,-0.8239871824216607
1658789597221908,0.9460593575952316,-0.9460593575952316,-1.0681315327688026
1658789597237898,0.9460593575952316,-1.3733119707026162,-1.4343480582895154
1658789597253889,0.33569848172737693,-1.3733119707026162,-1.3122758831159445
1658789597269879,0.15259021896690683,-1.4953841458761872,-0.9460593575952316
1658789597285827,-0.8239871824216607,-1.3733119707026162,-0.8850232700083325
1658789597301818,-0.03051804379333589,-1.1291676203554744,-0.9460593575952316
1658789597317808,1.5564202334630863,-1.3733119707026162,-0.8850232700083325
1658789597333798,2.04470893415737,-1.3122758831159445,-0.7019150072480898
1658789597349788,1.0070954451819034,-0.8850232700083325,-0.9460593575952316
1658789597365779,1.3122758831159445,-0.2746623941404778,-1.0681315327688026
1658789597381769,2.9602502479590385,-0.8850232700083325,-0.7629510948347615
1658789597397759,2.7161058976118966,-1.8005645838102282,-0.5188067444876197
1658789597413749,0.6408789196611906,-1.4343480582895154,-0.5188067444876197
1658789597429740,-0.45777065690094787,-0.7019150072480898,-0.7629510948347615
1658789597445730,0.2746623941404778,-0.7019150072480898,-0.9460593575952316
1658789597461720,0.9460593575952316,-1.0070954451819034,-0.7629510948347615
1658789597477710,0.3967345693140487,-0.7019150072480898,-0.3967345693140487
1658789597493701,-0.213626306553806,-0.45777065690094787,-0.2746623941404778
1658789597509691,1.8005645838102282,-0.15259021896690683,-0.45777065690094787
1658789597525681,2.8992141603723667,-0.8239871824216607,-0.7629510948347615
1658789597541671,2.288853284504512,-1.8005645838102282,-1.3122758831159445
1658789597557662,-0.15259021896690683,-1.3122758831159445,-1.3733119707026162
1658789597573652,-1.739528496223329,-0.2746623941404778,-0.5798428320745188
1658789597589642,-0.9460593575952316,0.09155413138023505,-0.2746623941404778
1658789597605590,0.7629510948347615,-0.2746623941404778,-0.7019150072480898
1658789597621581,1.8005645838102282,-0.8850232700083325,-1.1291676203554744
1658789597637571,2.7161058976118966,-0.2746623941404778,-1.1291676203554744
1658789597653561,2.7161058976118966,0.33569848172737693,-1.0681315327688026
1658789597669551,1.6784924086366573,-0.09155413138023505,-0.7019150072480898
1658789597685542,0.5798428320745188,-1.0070954451819034,-0.9460593575952316
1658789597701532,-0.3967345693140487,-0.45777065690094787,-1.0681315327688026
1658789597717522,-0.2746623941404778,-0.3967345693140487,-1.3733119707026162
1658789597733513,-0.03051804379333589,-0.33569848172737693,-1.6174563210497581
1658789597749503,1.3733119707026162,-0.5188067444876197,-1.5564202334630863
1658789597765493,1.4953841458761872,-0.7629510948347615,-1.1291676203554744
1658789597781483,1.6784924086366573,-0.5188067444876197,-0.9460593575952316
1658789597797474,-0.09155413138023505,-0.9460593575952316,-1.2512397955290453
1658789597813464,0.09155413138023505,-1.0070954451819034,-1.5564202334630863
1658789597829454,0.7629510948347615,-1.1902037079423735,-1.4953841458761872
1658789597845444,0.2746623941404778,-1.2512397955290453,-1.3122758831159445
1658789597861435,-0.213626306553806,-0.3967345693140487,-1.0070954451819034
1658789597877425,-1.0681315327688026,0.213626306553806,-1.0681315327688026
1658789597893415,-1.6174563210497581,-0.03051804379333589,-1.1291676203554744
1658789597909405,0.45777065690094787,0.15259021896690683,-0.8239871824216607
1658789597925354,2.166781109330941,0.3967345693140487,-0.9460593575952316
1658789597941343,3.2043945983061803,0.2746623941404778,-1.1902037079423735
1658789597957333,2.532997634851654,-0.3967345693140487,-1.2512397955290453
1658789597973323,2.227817196917613,-0.6408789196611906,-1.0681315327688026
1658789597989313,0.7629510948347615,-0.7019150072480898,-0.6408789196611906
1658789598005303,-0.9460593575952316,-1.0070954451819034,-0.5798428320745188
1658789598021292,-0.8850232700083325,-0.9460593575952316,-0.5188067444876197
1658789598037282,0.45777065690094787,-0.6408789196611906,-0.5188067444876197
1658789598053272,1.5564202334630863,-0.33569848172737693,-0.6408789196611906
1658789598069262,2.5940337224383256,-0.3967345693140487,-0.8850232700083325
1658789598085251,1.739528496223329,-1.1902037079423735,-1.0681315327688026
1658789598101241,0.8239871824216607,-1.6174563210497581,-0.6408789196611906
1658789598117231,1.1291676203554744,-1.5564202334630863,0.09155413138023505
1658789598133221,0.45777065690094787,-1.6784924086366573,0.213626306553806
1658789598149211,0.15259021896690683,-1.4953841458761872,0.03051804379333589
1658789598165200,0.45777065690094787,-1.3733119707026162,0.03051804379333589
1658789598181190,1.1291676203554744,-1.3122758831159445,0.03051804379333589
1658789598197180,0.7629510948347615,-0.5798428320745188,0.33569848172737693
1658789598213170,0.8850232700083325,-0.2746623941404778,0.7019150072480898
1658789598229159,0.7019150072480898,-0.8850232700083325,0.5188067444876197
1658789598245086,1.739528496223329,-1.1291676203554744,-0.15259021896690683
1658789598261076,2.3498893720911838,-0.8850232700083325,-0.45777065690094787
1658789598277066,1.4953841458761872,-1.0070954451819034,-0.3967345693140487
1658789598293056,1.3122758831159445,-1.1291676203554744,-0.33569848172737693
1658789598309045,0.09155413138023505,-0.8850232700083325,-0.5188067444876197
1658789598325035,-0.7019150072480898,-0.6408789196611906,-0.9460593575952316
1658789598341025,0.3967345693140487,0.03051804379333589,-0.9460593575952316
1658789598357015,1.8005645838102282,0.33569848172737693,-0.7019150072480898
1658789598373005,1.8616006713969,-0.09155413138023505,-0.8239871824216607
1658789598388994,1.4343480582895154,-0.3967345693140487,-1.1291676203554744
1658789598404984,0.8850232700083325,-0.5798428320745188,-1.1902037079423735
1658789598420974,0.09155413138023505,-0.6408789196611906,-1.3122758831159445
1658789598436964,1.1291676203554744,-0.3967345693140487,-1.739528496223329
1658789598452953,1.1291676203554744,-0.2746623941404778,-1.6784924086366573
1658789598468943,-0.45777065690094787,-0.9460593575952316,-1.4343480582895154
1658789598484933,-1.3733119707026162,0.213626306553806,-1.3122758831159445
1658789598500923,-0.9460593575952316,0.5188067444876197,-1.0681315327688026
1658789598516913,0.7019150072480898,0.2746623941404778,-0.9460593575952316
1658789598532902,1.3122758831159445,-0.2746623941404778,-1.0681315327688026
1658789598548892,1.983672846570471,-0.15259021896690683,-0.6408789196611906
1658789598564849,1.8005645838102282,0.09155413138023505,-0.5188067444876197
1658789598580839,1.0070954451819034,-0.3967345693140487,-0.8239871824216607
1658789598596828,-0.09155413138023505,-0.9460593575952316,-0.3967345693140487
1658789598612817,-1.2512397955290453,-0.8239871824216607,-0.09155413138023505
1658789598628807,-0.7019150072480898,-0.45777065690094787,0.03051804379333589
1658789598644796,0.15259021896690683,-0.33569848172737693,0.5798428320745188
1658789598660785,0.213626306553806,-0.7019150072480898,0.8239871824216607
1658789598676775,0.8239871824216607,-0.5798428320745188,0.6408789196611906
1658789598692764,0.8850232700083325,-0.8850232700083325,0.7629510948347615
1658789598708753,1.0681315327688026,-0.9460593575952316,0.7629510948347615
1658789598724743,0.9460593575952316,-0.45777065690094787,0.5188067444876197
1658789598740732,0.5188067444876197,-0.5798428320745188,0.213626306553806
1658789598756721,-0.3967345693140487,-1.0070954451819034,0.03051804379333589
1658789598772710,-1.2512397955290453,-1.3733119707026162,0.03051804379333589
1658789598788700,-1.6784924086366573,-0.9460593575952316,0.15259021896690683
1658789598804689,-0.45777065690094787,-0.3967345693140487,0.09155413138023505
1658789598820678,0.7019150072480898,-0.8850232700083325,-0.3967345693140487
1658789598836668,1.0681315327688026,-1.2512397955290453,-0.5798428320745188
1658789598852657,1.1291676203554744,-0.6408789196611906,-0.8239871824216607
1658789598868646,2.8381780727854675,-0.03051804379333589,-0.8239871824216607
1658789598884582,2.4719615472647547,-0.7019150072480898,-1.1291676203554744
1658789598900571,0.7019150072480898,-1.3733119707026162,-1.4343480582895154
1658789598916561,-0.33569848172737693,-1.1291676203554744,-1.4343480582895154
1658789598932550,-0.45777065690094787,-0.5188067444876197,-1.3122758831159445
1658789598948539,0.45777065690094787,-0.6408789196611906,-0.9460593575952316
1658789598964529,1.1291676203554744,-0.9460593575952316,-0.7019150072480898
1658789598980518,2.105745021744042,-0.8239871824216607,-1.0070954451819034
1658789598996507,1.6174563210497581,-0.33569848172737693,-1.2512397955290453
1658789599012497,1.4953841458761872,0.03051804379333589,-1.3733119707026162
1658789599028486,2.5940337224383256,-0.2746623941404778,-1.8616006713969
1658789599044475,3.2654306858930795,-0.5188067444876197,-2.5940337224383256
1658789599060464,1.8616006713969,-0.8239871824216607,-3.0212863355459376
1658789599076454,-0.5798428320745188,-1.1902037079423735,-3.0212863355459376
1658789599092443,-1.739528496223329,-0.5798428320745188,-2.4719615472647547
1658789599108432,-0.3967345693140487,-0.213626306553806,-1.8616006713969
1658789599124422,2.5940337224383256,-0.15259021896690683,-1.9226367589837992
1658789599140411,3.4485389486533222,-0.3967345693140487,-2.166781109330941
1658789599156400,1.9226367589837992,-0.7019150072480898,-2.166781109330941
1658789599172390,0.8239871824216607,-1.1291676203554744,-1.739528496223329
1658789599188379,1.5564202334630863,-0.33569848172737693,-1.4953841458761872
1658789599204345,3.3264667734797513,0.09155413138023505,-1.1902037079423735
1658789599220335,4.119935912108076,-0.3967345693140487,-0.8850232700083325
1658789599236324,2.288853284504512,-1.0070954451819034,-0.7019150072480898
1658789599252313,0.6408789196611906,-0.8850232700083325,-0.7629510948347615
1658789599268303,0.3967345693140487,-0.5798428320745188,-0.7019150072480898
1658789599284292,1.1291676203554744,-0.7629510948347615,-0.7629510948347615
1658789599300281,1.0070954451819034,-1.5564202334630863,-0.8239871824216607
1658789599316270,-1.3122758831159445,-1.739528496223329,-0.33569848172737693
1658789599332260,-2.9602502479590385,-0.6408789196611906,0.09155413138023505
1658789599348249,-1.1291676203554744,-0.33569848172737693,-0.33569848172737693
1658789599364238,2.166781109330941,-0.8239871824216607,-0.3967345693140487
1658789599380228,2.655069810025225,-0.9460593575952316,-0.45777065690094787
1658789599396217,0.45777065690094787,-0.45777065690094787,-0.3967345693140487
1658789599412206,-1.8005645838102282,-0.8850232700083325,0.09155413138023505
1658789599428196,-0.213626306553806,-0.9460593575952316,0.213626306553806
1658789599444185,0.8239871824216607,-0.9460593575952316,-0.09155413138023505
1658789599460174,1.1902037079423735,-0.6408789196611906,-0.5188067444876197
1658789599476163,-0.2746623941404778,-1.1291676203554744,-0.5798428320745188
1658789599492153,0.213626306553806,-0.7629510948347615,-0.33569848172737693
1658789599508142,2.166781109330941,-0.15259021896690683,-0.09155413138023505
1658789599524078,1.4343480582895154,-0.15259021896690683,0.09155413138023505
1658789599540067,-0.8850232700083325,-0.2746623941404778,0.03051804379333589
1658789599556056,-1.4343480582895154,-0.6408789196611906,0.213626306553806
1658789599572044,1.1902037079423735,-0.3967345693140487,0.45777065690094787
1658789599588033,1.6784924086366573,-0.3967345693140487,1.0070954451819034
1658789599604022,2.166781109330941,0.213626306553806,1.0070954451819034
1658789599620011,1.0070954451819034,-0.09155413138023505,0.8239871824216607
1658789599636000,0.33569848172737693,-1.0070954451819034,0.7019150072480898
1658789599651989,-0.45777065690094787,-1.0681315327688026,0.6408789196611906
1658789599667977,-1.8005645838102282,-0.9460593575952316,0.8239871824216607
1658789599683966,-1.5564202334630863,-0.7629510948347615,0.7019150072480898
1658789599699955,-0.5188067444876197,-1.1291676203554744,0.6408789196611906
1658789599715944,0.9460593575952316,-1.1291676203554744,0.9460593575952316
1658789599731933,-0.09155413138023505,-0.8850232700083325,1.6784924086366573
1658789599747922,-1.0070954451819034,-0.2746623941404778,2.166781109330941
1658789599763910,-0.213626306553806,-0.09155413138023505,1.983672846570471
1658789599779899,2.04470893415737,-0.3967345693140487,1.6174563210497581
1658789599795888,2.7771419851987957,-0.7629510948347615,1.0681315327688026
1658789599811877,0.8850232700083325,-0.8239871824216607,0.5798428320745188
1658789599827866,-0.2746623941404778,-1.1291676203554744,0.7019150072480898
1658789599843872,-0.09155413138023505,-1.6784924086366573,1.2512397955290453
1658789599859861,1.1291676203554744,-2.227817196917613,1.1291676203554744
1658789599875849,1.3122758831159445,-3.0823224231326094,0.6408789196611906
1658789599891838,0.7019150072480898,-3.1433585107195086,1.1291676203554744
1658789599907827,-1.1291676203554744,-3.3875028610666504,1.6174563210497581
1658789599923816,-1.6784924086366573,-3.875791561760934,1.0681315327688026
1658789599939805,1.4953841458761872,-3.4485389486533222,0.15259021896690683
1658789599955793,4.791332875562603,-3.0823224231326094,-1.0681315327688026
1658789599971782,6.378271152819025,-4.42511635004189,-2.5940337224383256
1658789599987771,2.7771419851987957,-5.3406576638437855,-3.5095750362402214
1658789600003760,-2.532997634851654,-6.073090714885211,-3.4485389486533222
1658789600019749,-0.03051804379333589,-4.791332875562603,-3.2654306858930795
1658789600035738,5.645838101777599,-4.486152437628789,-2.8381780727854675
1658789600051726,7.598992904554734,-5.2185854886702145,-2.532997634851654
1658789600067715,5.401693751430457,-5.2185854886702145,-1.6174563210497581
1658789600083704,1.3122758831159445,-4.42511635004189,-1.1291676203554744
1658789600099693,-0.03051804379333589,-3.6316472114137923,-1.1902037079423735
1658789600115682,1.6784924086366573,-3.692683299000464,-0.3967345693140487
1658789600131671,1.8005645838102282,-3.997863736934505,0.213626306553806
1658789600147659,0.33569848172737693,-4.180971999694748,0.2746623941404778
1658789600163604,0.6408789196611906,-4.058899824521177,0.45777065690094787
1658789600179593,0.8850232700083325,-3.814755474174035,0.5798428320745188
1658789600195582,2.7161058976118966,-2.9602502479590385,0.8239871824216607
1658789600211571,3.997863736934505,-3.2654306858930795,1.4953841458761872
1658789600227560,2.3498893720911838,-3.3875028610666504,1.9226367589837992
1658789600243548,-0.5188067444876197,-2.105745021744042,2.04470893415737
1658789600259537,-1.739528496223329,-1.4343480582895154,2.227817196917613
1658789600275526,1.5564202334630863,-1.2512397955290453,2.410925459678083
1658789600291515,3.4485389486533222,-1.6174563210497581,2.655069810025225
1658789600307504,2.288853284504512,-1.5564202334630863,2.3498893720911838
1658789600323493,-0.09155413138023505,-0.45777065690094787,2.105745021744042
1658789600339481,-0.09155413138023505,-0.33569848172737693,2.166781109330941
1658789600355470,2.410925459678083,-0.7629510948347615,2.410925459678083
1658789600371459,2.7771419851987957,-0.8239871824216607,2.288853284504512
1658789600387448,0.33569848172737693,-0.2746623941404778,1.4953841458761872
1658789600403437,-2.7771419851987957,0.2746623941404778,1.4953841458761872
1658789600419426,-3.6316472114137923,-0.45777065690094787,1.739528496223329
1658789600435414,-2.8992141603723667,-0.8239871824216607,1.6174563210497581
1658789600451403,-4.303044174868319,-0.7019150072480898,1.4343480582895154
1658789600467392,-3.0823224231326094,0.5188067444876197,1.3733119707026162
1658789600483368,-0.5798428320745188,1.0070954451819034,1.5564202334630863
1658789600499356,2.04470893415737,0.8239871824216607,1.4953841458761872
1658789600515345,2.105745021744042,0.5188067444876197,1.9226367589837992
1658789600531334,0.2746623941404778,0.5188067444876197,2.166781109330941
1658789600547323,1.0681315327688026,1.1291676203554744,1.5564202334630863
1658789600563312,2.7161058976118966,0.5188067444876197,1.0070954451819034
1658789600579301,1.739528496223329,-0.2746623941404778,0.6408789196611906
1658789600595289,-3.0212863355459376,-0.213626306553806,0.5188067444876197
1658789600611278,-3.692683299000464,0.2746623941404778,0.2746623941404778
1658789600627267,-1.8616006713969,-0.2746623941404778,0.213626306553806
1658789600643256,0.15259021896690683,-0.7019150072480898,-0.2746623941404778
1658789600659245,-0.09155413138023505,-0.2746623941404778,-0.15259021896690683
1658789600675233,-0.9460593575952316,0.2746623941404778,0.03051804379333589
1658789600691222,1.9226367589837992,0.33569848172737693,-0.213626306553806
1658789600707211,2.8992141603723667,-0.213626306553806,-0.213626306553806
1658789600723200,1.6784924086366573,-0.7019150072480898,-0.7019150072480898
1658789600739189,-1.4343480582895154,-0.45777065690094787,-1.6174563210497581
1658789600755178,-1.0681315327688026,0.33569848172737693,-1.6174563210497581
1658789600771166,0.09155413138023505,-0.15259021896690683,-1.1291676203554744
1658789600787155,0.7019150072480898,-0.8239871824216607,-0.8850232700083325
1658789600803131,-0.15259021896690683,-0.6408789196611906,-0.8850232700083325
1658789600819120,-2.04470893415737,-0.2746623941404778,-1.0681315327688026
1658789600835108,-0.5188067444876197,-0.45777065690094787,-1.1291676203554744
1658789600851097,0.5188067444876197,-1.3122758831159445,-1.4343480582895154
1658789600867086,1.0681315327688026,-0.7019150072480898,-1.1902037079423735
1658789600883075,0.9460593575952316,-0.33569848172737693,-0.9460593575952316
1658789600899064,0.2746623941404778,-0.2746623941404778,-1.1902037079423735
1658789600915053,0.2746623941404778,-0.7629510948347615,-1.4343480582895154
1658789600931041,2.04470893415737,-0.9460593575952316,-1.6174563210497581
1658789600947030,1.0070954451819034,-0.45777065690094787,-1.3122758831159445
1658789600963019,-0.213626306553806,-0.15259021896690683,-1.0681315327688026
1658789600979008,-1.0070954451819034,-0.5188067444876197,-0.8239871824216607
1658789600994997,0.8239871824216607,-0.5188067444876197,-0.8239871824216607
1658789601010985,1.3122758831159445,-0.33569848172737693,-1.3733119707026162
1658789601026974,0.7629510948347615,0.213626306553806,-1.6174563210497581
1658789601042963,0.8850232700083325,0.15259021896690683,-1.8616006713969
1658789601058952,1.9226367589837992,-0.213626306553806,-1.5564202334630863
1658789601074941,1.6784924086366573,-0.33569848172737693,-1.0070954451819034
1658789601090930,0.45777065690094787,0.213626306553806,-0.9460593575952316
1658789601106918,-0.45777065690094787,-0.03051804379333589,-1.0681315327688026
1658789601122863,1.6174563210497581,-0.33569848172737693,-1.3122758831159445
1658789601138852,2.532997634851654,-0.213626306553806,-1.4343480582895154
1658789601154840,1.9226367589837992,-0.03051804379333589,-1.4953841458761872
1658789601170828,0.5188067444876197,0.15259021896690683,-1.6784924086366573
1658789601186817,-1.0070954451819034,-0.3967345693140487,-1.2512397955290453
1658789601202805,-0.6408789196611906,-0.8239871824216607,-0.6408789196611906
1658789601218793,0.3967345693140487,-0.213626306553806,-0.09155413138023505
1658789601234782,2.655069810025225,0.7629510948347615,-0.33569848172737693
1658789601250770,2.5940337224383256,0.09155413138023505,-0.3967345693140487
1658789601266759,2.105745021744042,-0.5188067444876197,-0.09155413138023505
1658789601282747,1.0681315327688026,-0.09155413138023505,-0.03051804379333589
1658789601298735,0.7019150072480898,0.2746623941404778,-0.45777065690094787
1658789601314724,-0.03051804379333589,0.33569848172737693,-0.8850232700083325
1658789601330712,0.03051804379333589,0.213626306553806,-0.33569848172737693
1658789601346700,-0.09155413138023505,-0.15259021896690683,-0.03051804379333589
1658789601362689,-0.213626306553806,0.33569848172737693,0.45777065690094787
1658789601378677,-0.2746623941404778,-0.09155413138023505,0.45777065690094787
1658789601394665,-0.03051804379333589,-0.7019150072480898,-0.5188067444876197
1658789601410654,0.5798428320745188,-0.45777065690094787,-0.7629510948347615
1658789601426642,0.5188067444876197,-0.213626306553806,-0.3967345693140487
1658789601442627,1.0681315327688026,0.5188067444876197,-0.3967345693140487
1658789601458615,1.4953841458761872,0.33569848172737693,-0.8850232700083325
1658789601474603,1.2512397955290453,-0.7629510948347615,-1.1291676203554744
1658789601490592,0.33569848172737693,-0.5798428320745188,-0.9460593575952316
1658789601506580,-1.2512397955290453,-0.213626306553806,-0.7629510948347615
1658789601522568,-0.5188067444876197,0.09155413138023505,-0.5798428320745188
1658789601538557,0.5188067444876197,-0.3967345693140487,-0.5188067444876197
1658789601554545,0.2746623941404778,-0.5798428320745188,-0.5188067444876197
1658789601570533,0.33569848172737693,-0.09155413138023505,-0.2746623941404778
1658789601586522,-0.213626306553806,-0.09155413138023505,-0.3967345693140487
1658789601602510,1.9226367589837992,-0.45777065690094787,-0.45777065690094787
1658789601618498,2.5940337224383256,-0.45777065690094787,-0.33569848172737693
1658789601634487,-0.03051804379333589,-0.3967345693140487,-0.09155413138023505
1658789601650475,-0.7629510948347615,0.03051804379333589,0.5188067444876197
1658789601666463,0.213626306553806,-0.33569848172737693,0.7019150072480898
1658789601682452,1.2512397955290453,-0.6408789196611906,0.8239871824216607
1658789601698440,1.4953841458761872,0.09155413138023505,0.8239871824216607
1658789601714429,0.09155413138023505,0.213626306553806,0.8850232700083325
1658789601730417,0.5188067444876197,0.2746623941404778,0.7019150072480898
1658789601746405,1.5564202334630863,-0.213626306553806,0.09155413138023505
1658789601762359,1.4953841458761872,-0.9460593575952316,-0.6408789196611906
1658789601778348,-0.15259021896690683,-1.1902037079423735,-1.0070954451819034
1658789601794336,-1.8005645838102282,-0.6408789196611906,-0.5798428320745188
1658789601810324,-3.2654306858930795,-0.9460593575952316,0.03051804379333589
1658789601826313,-0.8239871824216607,-0.3967345693140487,0.2746623941404778
1658789601842301,0.45777065690094787,-0.2746623941404778,-0.09155413138023505
1658789601858289,2.105745021744042,-0.3967345693140487,-1.2512397955290453
1658789601874278,2.8992141603723667,-0.6408789196611906,-1.8616006713969
1658789601890266,1.983672846570471,-0.9460593575952316,-2.04470893415737
1658789601906254,0.5188067444876197,-0.45777065690094787,-1.3122758831159445
1658789601922243,-0.5188067444876197,-0.8850232700083325,-0.9460593575952316
1658789601938231,-0.03051804379333589,-1.0681315327688026,-0.8239871824216607
1658789601954219,0.8239871824216607,-1.0681315327688026,-0.213626306553806
1658789601970208,0.45777065690094787,-0.9460593575952316,-0.33569848172737693
1658789601986196,1.6174563210497581,-0.45777065690094787,-0.5798428320745188
1658789602002184,1.0070954451819034,-0.45777065690094787,-0.7019150072480898
1658789602018173,0.2746623941404778,-0.5188067444876197,-1.0070954451819034
1658789602034161,0.5798428320745188,-0.09155413138023505,-0.7629510948347615
1658789602050150,1.2512397955290453,-0.2746623941404778,-0.5798428320745188
1658789602066138,1.0681315327688026,-0.8239871824216607,-0.6408789196611906
1658789602082122,1.2512397955290453,-1.1291676203554744,-0.6408789196611906
1658789602098111,0.213626306553806,-0.7019150072480898,-0.09155413138023505
1658789602114099,-0.33569848172737693,-0.03051804379333589,0.5188067444876197
1658789602130087,2.288853284504512,0.7019150072480898,0.45777065690094787
1658789602146076,3.7537193865873633,0.5188067444876197,-0.2746623941404778
1658789602162064,3.5095750362402214,0.5798428320745188,-1.1291676203554744
1658789602178053,2.8992141603723667,0.3967345693140487,-1.3733119707026162
1658789602194041,1.9226367589837992,-0.03051804379333589,-1.1291676203554744
1658789602210029,0.09155413138023505,-0.45777065690094787,-0.33569848172737693
1658789602226018,0.3967345693140487,-0.45777065690094787,0.15259021896690683
1658789602242006,0.2746623941404778,-0.7629510948347615,0.09155413138023505
1658789602257994,0.2746623941404778,-0.8239871824216607,-0.213626306553806
1658789602273983,1.1291676203554744,-1.0070954451819034,-0.2746623941404778
1658789602289971,1.2512397955290453,-0.7019150072480898,-0.33569848172737693
1658789602305959,1.4343480582895154,-0.8239871824216607,-0.2746623941404778
1658789602321948,1.0070954451819034,-1.1291676203554744,-0.3967345693140487
1658789602337936,-0.5188067444876197,-1.6784924086366573,-0.8239871824216607
1658789602353924,-0.33569848172737693,-1.8005645838102282,-0.8239871824216607
1658789602369913,0.15259021896690683,-1.5564202334630863,-0.5798428320745188
1658789602385901,0.7019150072480898,-0.33569848172737693,-0.7629510948347615
1658789602401855,0.5188067444876197,-0.3967345693140487,-0.6408789196611906
1658789602417843,0.03051804379333589,-0.8239871824216607,-0.33569848172737693
1658789602433832,0.15259021896690683,-0.09155413138023505,-0.7019150072480898
1658789602449820,1.0070954451819034,-0.213626306553806,-1.0681315327688026
1658789602465808,1.739528496223329,-0.2746623941404778,-0.6408789196611906
1658789602481797,1.0070954451819034,-0.45777065690094787,-0.33569848172737693
1658789602497785,2.04470893415737,-0.09155413138023505,-0.15259021896690683
1658789602513774,0.8239871824216607,0.45777065690094787,-0.2746623941404778
1658789602529762,-0.45777065690094787,-0.03051804379333589,-0.33569848172737693
1658789602545750,-0.213626306553806,-0.33569848172737693,0.45777065690094787
1658789602561739,0.7019150072480898,0.7019150072480898,0.7019150072480898
1658789602577727,3.3264667734797513,1.3122758831159445,1.1902037079423735
1658789602593715,3.0823224231326094,0.7019150072480898,1.5564202334630863
1658789602609704,1.6784924086366573,0.09155413138023505,1.0070954451819034
1658789602625692,2.532997634851654,0.213626306553806,1.2512397955290453
1658789602641680,2.410925459678083,-0.33569848172737693,2.166781109330941
1658789602657669,1.4343480582895154,-0.8239871824216607,2.7771419851987957
1658789602673657,-1.0681315327688026,-1.9226367589837992,3.0212863355459376
1658789602689645,0.03051804379333589,-1.1902037079423735,3.6316472114137923
1658789602705634,-0.5188067444876197,-1.0070954451819034,4.058899824521177
1658789602721618,0.2746623941404778,-0.7019150072480898,3.997863736934505
1658789602737606,-0.03051804379333589,-0.7629510948347615,4.486152437628789
1658789602753594,-1.6174563210497581,-0.7629510948347615,4.242008087281647
1658789602769582,-0.45777065690094787,-0.2746623941404778,3.875791561760934
1658789602785570,0.5188067444876197,0.09155413138023505,4.242008087281647
1658789602801558,1.2512397955290453,0.33569848172737693,4.364080262455218
1658789602817546,1.6174563210497581,0.2746623941404778,4.058899824521177
1658789602833533,1.1902037079423735,0.5188067444876197,3.2043945983061803
1658789602849521,0.8239871824216607,0.3967345693140487,1.8005645838102282
1658789602865509,-0.33569848172737693,-1.0070954451819034,0.8239871824216607
1658789602881497,-2.532997634851654,-1.8005645838102282,-0.5798428320745188
1658789602897485,-6.134126802471883,-1.9226367589837992,-0.9460593575952316
1658789602913473,-4.364080262455218,-1.8005645838102282,-0.6408789196611906
1658789602929461,-1.5564202334630863,-0.9460593575952316,-0.45777065690094787
1658789602945449,-0.2746623941404778,-0.33569848172737693,-0.2746623941404778
1658789602961436,1.0070954451819034,-0.2746623941404778,-0.5188067444876197
1658789602977424,1.1902037079423735,-0.2746623941404778,-0.8239871824216607
1658789602993412,2.3498893720911838,0.213626306553806,-1.8005645838102282
1658789603009400,1.983672846570471,0.3967345693140487,-1.983672846570471
1658789603025388,1.6784924086366573,-0.09155413138023505,-1.9226367589837992
1658789603041320,2.3498893720911838,-0.45777065690094787,-2.105745021744042
1658789603057308,1.739528496223329,-0.7019150072480898,-2.3498893720911838
1658789603073296,1.3733119707026162,-0.7019150072480898,-2.288853284504512
1658789603089284,-0.03051804379333589,-1.2512397955290453,-1.1291676203554744
1658789603105272,0.09155413138023505,-1.0070954451819034,0.7629510948347615
1658789603121260,1.3122758831159445,0.45777065690094787,1.6174563210497581
1658789603137248,1.4953841458761872,2.5940337224383256,1.9226367589837992
1658789603153236,3.875791561760934,5.523765926604028,2.5940337224383256
1658789603169223,5.279621576256886,4.852368963149502,3.0823224231326094
1658789603185211,4.730296787975931,3.692683299000464,2.7771419851987957
1658789603201199,1.9226367589837992,1.5564202334630863,2.7771419851987957
1658789603217187,0.09155413138023505,-0.8850232700083325,3.936827649347606
1658789603233175,0.09155413138023505,-1.983672846570471,5.584802014190927
1658789603249163,0.03051804379333589,-2.7161058976118966,6.683451590753066
1658789603265151,-2.166781109330941,-3.2043945983061803,8.45349813076973
1658789603281139,-4.486152437628789,-4.119935912108076,10.223544670786623
1658789603297126,-3.0212863355459376,-3.7537193865873633,11.749446860456146
1658789603313114,-3.3875028610666504,-3.5095750362402214,12.726024261844714
1658789603329102,-6.317235065232353,-4.486152437628789,13.885709925993751
1658789603345090,-5.157549401083315,-4.60822461280236,15.838864728770886
1658789603361084,-0.9460593575952316,-4.974441138323073,17.54787518120088
1658789603377071,0.6408789196611906,-4.974441138323073,19.378957808804444
1658789603393059,-1.3122758831159445,-4.9134050507361735,20.599679560540153
1658789603409047,-4.42511635004189,-4.42511635004189,21.14900434882111
1658789603425035,-5.76791027695117,-4.303044174868319,21.57625696192872
1658789603441023,-5.2185854886702145,-4.303044174868319,22.003509575036105
1658789603457011,-3.570611123826893,-4.303044174868319,22.430762188143717
1658789603472999,-2.227817196917613,-4.242008087281647,23.041123064011572
1658789603488987,-5.0354772259097444,-6.683451590753066,24.07873655298681
1658789603504974,-4.9134050507361735,-8.51453421835663,24.811169604028237
1658789603520962,-6.805523765926637,-9.124895094224485,26.092927443350845
1658789603536950,-9.430075532158298,-9.246967269398056,27.191577019912984
1658789603552938,-8.575570305943302,-8.087281605249018,27.679865720607268
1658789603568926,-7.476920729381163,-7.476920729381163,28.778515297169406
1658789603584914,-8.148317692835917,-6.744487678339738,30.121309224078686
1658789603600902,-10.467689021133765,-5.645838101777599,30.792706187533213
1658789603616890,-9.308003356984727,-4.9134050507361735,31.64721141374821
1658789603632877,-6.561379415579495,-4.058899824521177,33.905546654459386
1658789603648865,-3.6316472114137923,-3.7537193865873633,34.57694361791391
1658789603664853,-3.1433585107195086,-3.3264667734797513,34.76005188067438
1658789603680847,-3.997863736934505,-3.3875028610666504,35.73662928206295
1658789603696835,-3.936827649347606,-3.4485389486533222,36.10284580758366
1658789603712823,-0.33569848172737693,-4.852368963149502,35.85870145723652
1658789603728810,1.3122758831159445,-6.439307240405924,36.469062333104375
1658789603744798,-0.7629510948347615,-7.17174029144735,37.9949645227739
1658789603760786,-3.7537193865873633,-8.148317692835917,38.42221713588151
1658789603776774,-5.706874189364498,-7.782101167315204,39.27672236209651
1658789603792762,-8.880750743877343,-7.843137254901876,41.290913252460314
1658789603808750,-9.796292057679011,-7.354848554207592,42.633707179369594
1658789603824738,-8.087281605249018,-7.049668116273779,42.99992370489031
1658789603840726,-8.392462043183059,-7.904173342488775,43.30510414282435
1658789603856713,-11.322194247348762,-8.880750743877343,43.61028458075816
1658789603872701,-11.932555123216616,-9.55214770733187,44.098573281452445
1658789603888689,-10.284580758373295,-10.833905546654478,44.95307850766744
1658789603904677,-9.796292057679011,-12.726024261844714,46.723125047684334
1658789603920665,-11.444266422522333,-14.435034714274707,47.21141374837862
1658789603936653,-14.862287327382319,-17.24269474326684,45.624475471122196
1658789603952641,-11.07804989700162,-17.853055619134693,44.89204242008077
1658789603968629,-3.0212863355459376,-14.98435950255589,46.29587243457672
1658789603984616,4.669260700389032,-11.566338597695903,48.24902723735386
1658789604000579,4.60822461280236,-9.796292057679011,48.92042420080861
1658789604016567,3.2654306858930795,-7.782101167315204,48.67627985046147
1658789604032555,6.927595941100208,-3.936827649347606,48.73731593804814
1658789604048543,12.481879911497572,-0.6408789196611906,49.591821164263365
1658789604064531,8.697642481116873,-1.8005645838102282,49.83596551461051
1658789604080519,4.058899824521177,-3.3875028610666504,48.31006332494053
1658789604096507,0.2746623941404778,-5.157549401083315,48.06591897459339
1658789604112495,-1.9226367589837992,-6.439307240405924,48.06591897459339
1658789604128482,-3.2043945983061803,-7.049668116273779,49.225604638742425
1658789604144470,-4.42511635004189,-7.232776379034021,51.667048142213844
1658789604160458,-5.2185854886702145,-8.209353780422589,53.68123903257765
1658789604176446,-4.180971999694748,-8.6366063935302,55.45128557259477
1658789604192434,1.4953841458761872,-4.791332875562603,57.64858472571905
1658789604208422,0.8239871824216607,-3.3875028610666504,58.258945601586674
1658789604224410,2.8992141603723667,-0.8850232700083325,57.28236820019811
1658789604240398,2.7161058976118966,-1.1902037079423735,57.70962081330572
1658789604256385,0.3967345693140487,-2.655069810025225,59.662775616082854
1658789604272373,-8.148317692835917,-5.76791027695117,60.21210040436381
1658789604288361,-10.528725108720437,-7.782101167315204,59.662775616082854
1658789604304349,-9.308003356984727,-11.627374685282575,60.70038910505809
1658789604320343,-10.528725108720437,-15.167467765316132,62.53147173266234
1658789604336331,-16.02197299153113,-16.02197299153113,61.982146944380474
1658789604352318,-16.02197299153113,-15.655756466010416,61.43282215609952
1658789604368306,-13.031204699778755,-15.960936903944457,64.301518272679
1658789604384294,-13.824673838406852,-15.594720378423744,66.62088960097662
1658789604400282,-14.496070801861606,-13.275349050125897,66.86503395132377
1658789604416270,-12.787060349431613,-9.67421988250544,65.76638437476186
1658789604432258,-9.55214770733187,-8.819714656290444,64.60669871061282
1658789604448246,-3.875791561760934,-10.406652933546866,65.8884565499352
1658789604464234,-3.692683299000464,-9.491111619745197,68.08575570305948
1658789604480221,-12.298771648737329,-9.246967269398056,68.75715266651423
1658789604496209,-20.538643472953254,-9.613183794918768,66.19363698786947
1658789604512197,-14.007782101167322,-9.002822919050914,61.86007476920713
1658789604528185,-4.730296787975931,-8.758678568703772,60.944533455405235
1658789604544173,-6.256198977645454,-11.749446860456146,63.81322957198472
1658789604560161,-15.777828641183987,-15.838864728770886,66.55985351338995
1658789604576149,-24.505989166094423,-14.98435950255589,65.40016784924092
1658789604592136,-29.938200961318216,-13.76363775082018,62.28732738231474
1658789604608124,-27.557793545433697,-13.45845731288614,61.18867780575238
1658789604624112,-18.158236057068734,-11.444266422522333,61.37178606851285
1658789604640075,-12.909132524605184,-7.843137254901876,60.88349736781856
1658789604656063,-14.373998626688035,-8.087281605249018,60.21210040436381
1658789604672051,-17.059586480506596,-9.73525597009234,58.9913786526281
1658789604688039,-14.92332341496899,-10.406652933546866,58.38101777676047
1658789604704027,-16.510261692225413,-8.575570305943302,58.01480125123953
1658789604720015,-20.11139085984587,-10.040436408026153,55.69542992294191
1658789604736003,-19.80621042191183,-12.298771648737329,51.667048142213844
1658789604751990,-12.115663385976859,-7.660028992141633,46.90623331044458
1658789604767978,-1.9226367589837992,-1.9226367589837992,43.36614023041102
1658789604783966,7.354848554207592,-3.5095750362402214,44.52582589456006
1658789604799954,9.124895094224485,-5.889982452124741,47.08934157320505
1658789604815942,1.3733119707026162,-5.95101853971164,46.23483634699005
1658789604831930,-10.406652933546866,-6.317235065232353,43.12199588006388
1658789604847918,-15.777828641183987,-6.439307240405924,41.474021515220784
1658789604863906,-13.824673838406852,-5.096513313496644,43.36614023041102
1658789604879893,-12.176699473563758,-4.486152437628789,44.7089341573203
1658789604895881,-11.261158159761862,-3.5095750362402214,42.877851529716736
1658789604911869,-5.645838101777599,-1.983672846570471,39.09361409933604
1658789604927857,4.547188525215461,-0.6408789196611906,37.2014953841458
1658789604943845,5.584802014190927,-1.0070954451819034,37.26253147173247
1658789604959838,-2.410925459678083,-1.9226367589837992,38.910505836575794
1658789604975826,-6.9886320286868795,-1.9226367589837992,38.54428931105508
1658789604991814,-9.002822919050914,-3.3264667734797513,36.95735103379866
1658789605007802,-6.500343327992596,-4.9134050507361735,36.22491798275723
1658789605023790,-3.570611123826893,-4.974441138323073,38.48325322346818
1658789605039778,-2.9602502479590385,-5.76791027695117,42.02334630350174
1658789605055766,-9.369039444571627,-7.537956816968062,42.69474326695649
1658789605071754,-14.679179064621849,-10.040436408026153,40.43640802624532
1658789605087741,-14.251926451514464,-8.758678568703772,37.1404592965589
1658789605103729,-4.303044174868319,-3.692683299000464,35.30937666895534
1658789605119717,7.232776379034021,1.5564202334630863,34.57694361791391
1658789605135705,4.9134050507361735,0.5188067444876197,34.08865491721963
1658789605151693,-5.828946364538069,-2.7771419851987957,34.69901579308748
1658789605167681,-14.068818188753994,-4.9134050507361735,35.79766536964962
1658789605183669,-18.036163881895163,-5.889982452124741,34.33279926756677
1658789605199657,-12.970168612191856,-3.6316472114137923,33.3562218661782
1658789605215644,-2.3498893720911838,-0.03051804379333589,35.49248493171581
1658789605231632,4.42511635004189,2.4719615472647547,36.04180971999676
1658789605247620,0.8239871824216607,0.33569848172737693,34.57694361791391
1658789605263608,-5.889982452124741,-0.8850232700083325,32.86793316548392
1658789605279571,-10.101472495613052,-0.03051804379333589,31.70824750133511
1658789605295559,-5.096513313496644,2.7771419851987957,31.586175326161538
1658789605311547,2.8992141603723667,4.547188525215461,34.63797970550081
1658789605327535,2.655069810025225,1.3733119707026162,35.91973754482319
1658789605343523,-7.660028992141633,-3.570611123826893,34.33279926756677
1658789605359511,-14.068818188753994,-4.669260700389032,33.3562218661782
1658789605375498,-6.378271152819025,-1.739528496223329,33.29518577859153
1658789605391486,8.758678568703772,4.9134050507361735,32.80689707789725
1658789605407474,11.322194247348762,9.063859006637585,31.097886625467254
1658789605423462,1.6174563210497581,7.17174029144735,29.20576791027679
1658789605439450,-9.73525597009234,4.60822461280236,28.107118333714652
1658789605455438,-16.571297779812312,0.3967345693140487,29.938200961318216
1658789605471426,-14.740215152208748,-0.03051804379333589,31.280994888227497
1658789605487414,-9.002822919050914,-0.6408789196611906,31.158922713053926
1658789605503401,-0.03051804379333589,1.4343480582895154,29.571984435797503
1658789605519389,7.049668116273779,5.0354772259097444,27.74090180819394
1658789605535377,9.979400320439481,8.148317692835917,25.848783093003703
1658789605551365,7.049668116273779,9.185931181811156,24.689097428854666
1658789605567353,4.669260700389032,6.622415503166167,26.092927443350845
1658789605583341,5.645838101777599,5.401693751430457,27.313649195086555
1658789605599334,0.33569848172737693,1.983672846570471,26.886396581978943
1658789605615322,-2.3498893720911838,1.1902037079423735,25.726710917830133
1658789605631310,-3.814755474174035,3.3875028610666504,23.83459220263967
1658789605647298,-5.645838101777599,6.439307240405924,22.552834363317288
1658789605663286,-2.7771419851987957,10.528725108720437,21.637293049515392
1658789605679274,-1.0070954451819034,10.223544670786623,20.843823910887295
1658789605695262,-3.570611123826893,4.974441138323073,19.684138246738257
1658789605711249,-9.979400320439481,1.2512397955290453,19.562066071564686
1658789605727237,-8.880750743877343,2.4719615472647547,18.097199969481835
1658789605743225,-8.880750743877343,2.8381780727854675,14.312962539101136
1658789605759213,-13.45845731288614,-1.0681315327688026,11.01701380941472
1658789605775201,-13.153276874952326,-1.6784924086366573,9.308003356984727
1658789605791189,-3.936827649347606,1.5564202334630863,7.232776379034021
1658789605807177,3.2654306858930795,3.814755474174035,4.791332875562603
1658789605823165,8.209353780422589,1.8616006713969,2.410925459678083
1658789605839152,11.505302510109004,-0.33569848172737693,-0.03051804379333589
1658789605855140,7.232776379034021,-2.105745021744042,-1.6784924086366573
1658789605871128,2.4719615472647547,-3.6316472114137923,-4.119935912108076
1658789605887116,2.4719615472647547,-3.6316472114137923,-7.232776379034021
1658789605903104,5.157549401083315,-2.9602502479590385,-9.246967269398056
1658789605919067,4.60822461280236,-4.303044174868319,-10.467689021133765
1658789605935054,2.7771419851987957,-5.706874189364498,-13.45845731288614
1658789605951042,3.4485389486533222,-6.622415503166167,-16.937514305333025
1658789605967029,5.706874189364498,-5.645838101777599,-19.073777370870403
1658789605983017,9.67421988250544,-2.04470893415737,-20.904859998473967
1658789605999004,10.284580758373295,-2.8992141603723667,-22.186617837796575
1658789606014991,9.002822919050914,-5.95101853971164,-22.8580148012511
1658789606030979,8.148317692835917,-6.561379415579495,-24.322880903333953
1658789606046966,5.95101853971164,-6.073090714885211,-24.567025253681095
1658789606062954,8.697642481116873,-4.242008087281647,-24.933241779201808
1658789606078941,11.322194247348762,-6.439307240405924,-26.092927443350845
1658789606094928,13.702601663233281,-7.721065079728305,-27.069504844739413
1658789606110916,15.045395590142562,-6.012054627298312,-28.290226596475122
1658789606126903,19.378957808804444,-1.5564202334630863,-29.633020523384403
1658789606142891,20.843823910887295,-0.8850232700083325,-28.534370946822264
1658789606158878,13.275349050125897,-3.0212863355459376,-27.61882963302037
1658789606174865,4.974441138323073,-3.936827649347606,-28.107118333714652
1658789606190853,1.8616006713969,-5.523765926604028,-28.656443121995835
1658789606206840,-1.3733119707026162,-7.17174029144735,-27.313649195086555
1658789606222828,-1.6784924086366573,-6.439307240405924,-26.092927443350845
1658789606238830,2.9602502479590385,-6.317235065232353,-26.886396581978943
1658789606254818,8.148317692835917,-6.134126802471883,-28.16815442130155
1658789606270805,16.1440451667047,-4.852368963149502,-28.412298771648693
1658789606286792,23.285267414358714,-2.166781109330941,-28.778515297169406
1658789606302780,24.933241779201808,0.15259021896690683,-28.717479209582507
1658789606318767,22.67490653849086,-1.4343480582895154,-27.80193789578084
1658789606334755,15.899900816357558,-4.852368963149502,-27.74090180819394
1658789606350742,10.650797283894008,-5.523765926604028,-29.022659647516548
1658789606366729,8.270389868009488,-3.2654306858930795,-28.412298771648693
1658789606382717,4.547188525215461,-1.6174563210497581,-27.191577019912984
1658789606398704,2.7161058976118966,-0.5188067444876197,-27.92401007095441
1658789606414692,1.6174563210497581,-1.4953841458761872,-26.092927443350845
1658789606430679,-0.213626306553806,-0.9460593575952316,-24.383916990920852
1658789606446666,-0.8239871824216607,-0.7629510948347615,-24.505989166094423
1658789606462654,1.0070954451819034,-2.105745021744042,-24.13977264057371
1658789606478641,3.3875028610666504,-2.04470893415737,-22.430762188143717
1658789606494629,6.744487678339738,-1.2512397955290453,-22.186617837796575
1658789606510616,9.124895094224485,-0.33569848172737693,-22.430762188143717
1658789606526603,11.993591210803288,0.6408789196611906,-22.67490653849086
1658789606542591,11.566338597695903,1.4953841458761872,-23.041123064011572
1658789606558593,8.270389868009488,1.2512397955290453,-23.346303501945386
1658789606574581,3.7537193865873633,1.4953841458761872,-24.13977264057371
1658789606590569,0.8239871824216607,1.739528496223329,-25.42153047989609
1658789606606557,1.983672846570471,1.4343480582895154,-24.933241779201808
1658789606622545,2.8992141603723667,1.4343480582895154,-23.590447852292527
1658789606638533,3.4485389486533222,1.0681315327688026,-25.42153047989609
1658789606654521,5.76791027695117,1.983672846570471,-28.107118333714652
1658789606670508,10.467689021133765,4.669260700389032,-28.473334859235365
1658789606686496,12.481879911497572,3.997863736934505,-25.970855268177274
1658789606702484,9.246967269398056,1.2512397955290453,-24.811169604028237
1658789606718472,2.288853284504512,0.09155413138023505,-27.313649195086555
1658789606734460,0.5798428320745188,0.09155413138023505,-28.717479209582507
1658789606750448,3.1433585107195086,0.09155413138023505,-27.679865720607268
1658789606766436,7.2938124666209205,-0.03051804379333589,-27.252613107499656
1658789606782424,7.049668116273779,0.5188067444876197,-26.764324406805372
1658789606798411,7.354848554207592,3.7537193865873633,-27.557793545433697
1658789606814399,8.33142595559616,5.584802014190927,-29.20576791027679
1658789606830387,7.965209430075447,3.1433585107195086,-27.92401007095441
1658789606846375,4.119935912108076,2.166781109330941,-25.909819180590375
1658789606862363,-0.15259021896690683,3.3875028610666504,-26.153963530937517
1658789606878326,-3.0212863355459376,4.058899824521177,-27.130540932326085
1658789606894313,-2.166781109330941,3.570611123826893,-26.459143968871558
1658789606910301,-0.213626306553806,1.4953841458761872,-24.383916990920852
1658789606926288,-0.45777065690094787,0.7629510948347615,-23.529411764705856
1658789606942276,-1.739528496223329,0.8850232700083325,-24.567025253681095
1658789606958263,2.7161058976118966,2.288853284504512,-25.726710917830133
1658789606974250,9.063859006637585,3.3264667734797513,-26.82536049439227
1658789606990238,13.58052948805971,3.2654306858930795,-27.130540932326085
1658789607006225,12.481879911497572,3.0212863355459376,-26.337071793697987
1658789607022213,4.974441138323073,2.288853284504512,-26.52018005645823
1658789607038200,3.570611123826893,1.9226367589837992,-29.20576791027679
1658789607054187,9.246967269398056,2.04470893415737,-30.60959792477297
1658789607070175,10.650797283894008,1.4343480582895154,-28.778515297169406
1658789607086162,8.270389868009488,2.7161058976118966,-27.92401007095441
1658789607102150,4.058899824521177,3.7537193865873633,-29.633020523384403
1658789607118137,2.5940337224383256,3.692683299000464,-31.219958800640825
1658789607134124,8.45349813076973,3.0823224231326094,-31.464103150988194
1658789607150112,10.101472495613052,1.3122758831159445,-30.060273136491787
1658789607166099,4.364080262455218,1.9226367589837992,-28.96162355992965
1658789607182087,-2.532997634851654,2.410925459678083,-31.525139238574866
1658789607198089,0.9460593575952316,2.3498893720911838,-34.76005188067461
1658789607214077,7.721065079728305,0.5798428320745188,-33.60036621652557
1658789607230064,10.467689021133765,-0.6408789196611906,-30.853742275120112
1658789607246051,7.660028992141633,1.0070954451819034,-30.73167009994654
1658789607262039,7.598992904554734,4.058899824521177,-33.41725795376533
1658789607278026,9.73525597009234,3.6316472114137923,-35.00419623102175
1658789607294014,13.58052948805971,3.0212863355459376,-34.57694361791414
1658789607310001,10.650797283894008,1.8616006713969,-33.72243839169914
1658789607325988,3.936827649347606,0.2746623941404778,-34.21072709239343
1658789607341976,4.303044174868319,1.1291676203554744,-35.614557106889606
1658789607357963,9.308003356984727,2.105745021744042,-36.89631494621199
1658789607373951,12.542915999084471,1.4343480582895154,-36.774242771038416
1658789607389938,11.627374685282575,1.0681315327688026,-36.16388189517056
1658789607405925,8.209353780422589,2.04470893415737,-36.89631494621199
1658789607421913,9.430075532158298,1.3733119707026162,-39.276722362096734
1658789607437900,11.810482948043045,1.0681315327688026,-38.78843366140245
1658789607453888,11.688410772869474,3.814755474174035,-37.933928435187454
1658789607469875,10.345616845960194,5.645838101777599,-40.314335851071974
1658789607485862,12.4208438239109,2.9602502479590385,-41.962310215915295
1658789607501850,14.98435950255589,0.9460593575952316,-40.2532997634853
1658789607517822,12.787060349431613,2.532997634851654,-38.48325322346841
1658789607533809,12.115663385976859,3.997863736934505,-40.37537193865887
1658789607549797,13.397421225299468,3.936827649347606,-41.840238040741724
1658789607565784,15.045395590142562,2.8992141603723667,-40.314335851071974
1658789607581771,12.603952086671143,1.8616006713969,-38.60532539864198
1658789607597759,6.683451590753066,2.655069810025225,-40.2532997634853
1658789607613746,7.17174029144735,3.997863736934505,-43.61028458075839
1658789607629734,13.946746013580423,3.7537193865873633,-44.647898069733856
1658789607645721,15.838864728770886,2.4719615472647547,-41.0467689021134
1658789607661708,12.054627298390187,3.4485389486533222,-38.30014496070817
1658789607677696,4.60822461280236,4.974441138323073,-40.497444113832444
1658789607693683,5.0354772259097444,4.669260700389032,-43.67132066834529
1658789607709671,10.223544670786623,3.2043945983061803,-42.93888761730386
1658789607725658,10.650797283894008,2.410925459678083,-39.398794537270305
1658789607741645,11.688410772869474,5.2185854886702145,-38.60532539864198
1658789607757633,15.472648203250174,8.6366063935302,-40.80262455176626
1658789607773620,18.280308232242305,8.087281605249018,-41.59609369039458
1658789607789608,16.815442130159454,6.012054627298312,-39.64293888761745
1658789607805595,13.153276874952326,4.9134050507361735,-38.056000610361025
1658789607821582,7.354848554207592,4.364080262455218,-38.178072785534596
1658789607837585,5.706874189364498,5.3406576638437855,-39.15465018692316
1658789607853572,9.002822919050914,3.7537193865873633,-39.88708323796459
1658789607869560,12.23773556115043,1.739528496223329,-37.750820172426984
1658789607885547,9.67421988250544,2.5940337224383256,-34.94316014343485
1658789607901535,9.73525597009234,3.997863736934505,-35.614557106889606
1658789607917522,10.467689021133765,4.058899824521177,-36.22491798275746
1658789607933509,7.782101167315204,2.7771419851987957,-36.16388189517056
1658789607949497,10.711833371480907,2.166781109330941,-34.332799267567
1658789607965484,10.345616845960194,2.9602502479590385,-30.914778362706784
1658789607981472,8.697642481116873,3.2043945983061803,-29.877164873731545
1658789607997459,8.6366063935302,2.4719615472647547,-29.633020523384403
1658789608013446,8.33142595559616,0.7019150072480898,-27.98504615854108
1658789608029434,9.73525597009234,0.5188067444876197,-25.787747005416804
1658789608045421,7.049668116273779,1.0681315327688026,-25.665674830243233
1658789608061409,4.180971999694748,0.7629510948347615,-27.191577019912984
1658789608077396,5.76791027695117,-1.0681315327688026,-27.008468757152514
1658789608093383,7.4158846417944915,-1.3733119707026162,-24.750133516441565
1658789608109371,5.462729839017356,-0.8850232700083325,-22.369726100556818
1658789608125358,5.584802014190927,-0.15259021896690683,-23.407339589532285
1658789608141346,7.4158846417944915,-1.739528496223329,-24.13977264057371
1658789608157318,7.660028992141633,-4.547188525215461,-22.369726100556818
1658789608173305,5.401693751430457,-3.875791561760934,-20.660715648126825
1658789608189293,1.9226367589837992,-1.6174563210497581,-20.599679560540153
1658789608205280,0.03051804379333589,-0.3967345693140487,-21.637293049515392
1658789608221267,2.4719615472647547,-1.739528496223329,-21.881437399862534
1658789608237255,2.532997634851654,-2.9602502479590385,-20.477607385366582
1658789608253242,-2.410925459678083,-1.8005645838102282,-18.524452582589447
1658789608269230,-4.852368963149502,-0.3967345693140487,-19.195849546043974
1658789608285217,-0.7019150072480898,-1.4343480582895154,-20.477607385366582
1658789608301204,3.6316472114137923,-4.180971999694748,-18.89066910811016
1658789608317192,4.303044174868319,-3.875791561760934,-17.24269474326684
1658789608333179,3.570611123826893,-1.2512397955290453,-17.66994735637445
1658789608349166,5.096513313496644,-0.5188067444876197,-19.01274128328373
1658789608365154,6.134126802471883,-2.8992141603723667,-19.1348134584573
1658789608381141,8.758678568703772,-3.6316472114137923,-17.79201953154802
1658789608397129,6.683451590753066,-1.1902037079423735,-16.876478217746126
1658789608413116,4.242008087281647,2.8381780727854675,-17.60891126878755
1658789608429103,4.974441138323073,4.42511635004189,-17.730983443961122
1658789608445091,4.669260700389032,4.058899824521177,-16.937514305333025
1658789608461078,2.7161058976118966,4.058899824521177,-17.36476691844041
1658789608477081,2.4719615472647547,3.2043945983061803,-18.82963302052326
1658789608493068,3.692683299000464,2.532997634851654,-19.439993896391115
1658789608509056,3.4485389486533222,2.8381780727854675,-19.256885633630873
1658789608525043,5.2185854886702145,1.0681315327688026,-20.11139085984587
1658789608541031,7.904173342488775,-1.4343480582895154,-20.17242694743254
1658789608557018,7.904173342488775,-1.4953841458761872,-18.280308232242305
1658789608573005,4.669260700389032,0.33569848172737693,-17.54787518120088
1658789608588993,4.303044174868319,1.4953841458761872,-17.914091706721592
1658789608604980,6.927595941100208,2.4719615472647547,-18.402380407415876
1658789608620967,6.439307240405924,2.04470893415737,-17.48683909361398
1658789608636955,1.6784924086366573,2.7161058976118966,-17.181658655680167
1658789608652942,-0.03051804379333589,4.9134050507361735,-17.66994735637445
1658789608668930,2.7771419851987957,5.096513313496644,-17.36476691844041
1658789608684917,5.2185854886702145,2.410925459678083,-17.42580300602731
1658789608700904,3.7537193865873633,0.7019150072480898,-17.730983443961122
1658789608716892,4.791332875562603,3.1433585107195086,-19.073777370870403
1658789608732879,2.7161058976118966,3.0823224231326094,-19.867246509498727
1658789608748867,5.828946364538069,1.8005645838102282,-19.745174334325156
1658789608764854,7.721065079728305,0.8239871824216607,-17.975127794308264
1658789608780841,6.683451590753066,2.5940337224383256,-17.42580300602731
1658789608796844,4.669260700389032,3.814755474174035,-18.402380407415876
1658789608812832,4.852368963149502,3.936827649347606,-18.95170519569683
1658789608828819,5.401693751430457,3.2654306858930795,-18.76859693293659
1658789608844806,4.791332875562603,3.6316472114137923,-18.89066910811016
1658789608860794,2.166781109330941,4.303044174868319,-19.9282825970854
1658789608876781,2.8992141603723667,4.242008087281647,-20.416571297779683
1658789608892768,6.073090714885211,3.814755474174035,-20.416571297779683
1658789608908756,3.0212863355459376,3.0823224231326094,-20.843823910887295
1658789608924743,2.9602502479590385,1.9226367589837992,-22.064545662623004
1658789608940731,3.814755474174035,2.8381780727854675,-22.61387045090396
1658789608956718,3.936827649347606,4.119935912108076,-22.430762188143717
1658789608972705,4.486152437628789,4.60822461280236,-22.247653925383247
1658789608988693,5.462729839017356,4.974441138323073,-22.369726100556818
1658789609004680,5.401693751430457,3.3264667734797513,-21.637293049515392
1658789609020668,6.622415503166167,2.8381780727854675,-20.965896086060866
1658789609036655,7.2938124666209205,4.180971999694748,-20.904859998473967
1658789609052642,9.85732814526591,5.096513313496644,-21.45418478675515
1658789609068630,11.20012207217519,4.669260700389032,-22.125581750209676
1658789609084617,10.040436408026153,3.4485389486533222,-21.637293049515392
1658789609100605,9.430075532158298,3.875791561760934,-21.27107652399468
1658789609116577,6.012054627298312,5.157549401083315,-21.759365224688963
1658789609132564,7.476920729381163,6.9886320286868795,-22.67490653849086
1658789609148552,8.148317692835917,5.584802014190927,-22.064545662623004
1658789609164539,7.843137254901876,3.3875028610666504,-21.51522087434182
1658789609180526,4.730296787975931,3.2654306858930795,-22.125581750209676
1658789609196514,3.570611123826893,4.119935912108076,-23.590447852292527
1658789609212501,5.95101853971164,3.814755474174035,-24.07873655298681
1658789609228489,7.598992904554734,3.875791561760934,-23.529411764705856
1658789609244476,4.42511635004189,3.7537193865873633,-23.224231326771815
1658789609260463,4.730296787975931,4.119935912108076,-24.567025253681095
1658789609276451,5.828946364538069,5.95101853971164,-25.05531395437538
1658789609292438,5.706874189364498,7.660028992141633,-24.13977264057371
1658789609308426,5.645838101777599,7.660028992141633,-23.224231326771815
1658789609324413,3.692683299000464,6.683451590753066,-23.224231326771815
1658789609340400,4.058899824521177,7.782101167315204,-24.01770046540014
1658789609356388,5.76791027695117,8.45349813076973,-24.933241779201808
1658789609372375,6.744487678339738,8.087281605249018,-25.543602655069662
1658789609388363,8.880750743877343,6.073090714885211,-23.89562829022657
1658789609404350,9.67421988250544,5.279621576256886,-21.759365224688963
1658789609420337,8.270389868009488,6.683451590753066,-22.308690012970146
1658789609436340,7.782101167315204,7.965209430075447,-23.102159151598244
1658789609452327,9.491111619745197,6.744487678339738,-21.881437399862534
1658789609468315,8.148317692835917,5.706874189364498,-21.026932173647538
1658789609484302,4.669260700389032,8.270389868009488,-19.745174334325156
1658789609500290,-1.0070954451819034,10.101472495613052,-18.58548867017612
1658789609516277,-1.1902037079423735,10.528725108720437,-17.24269474326684
1658789609532264,0.09155413138023505,10.711833371480907,-15.411612115663274
1658789609548252,4.058899824521177,10.528725108720437,-12.603952086671143
1658789609564239,7.049668116273779,11.01701380941472,-8.941786831464015
1658789609580227,7.537956816968062,13.031204699778755,-6.256198977645454
1658789609596214,7.782101167315204,13.336385137712568,-3.570611123826893
1658789609612201,5.889982452124741,9.67421988250544,-0.09155413138023505
1658789609628189,4.242008087281647,6.073090714885211,2.8992141603723667
1658789609644176,4.669260700389032,4.303044174868319,5.401693751430457
1658789609660164,3.2043945983061803,1.8005645838102282,8.270389868009488
1658789609676151,-0.3967345693140487,-2.3498893720911838,11.261158159761862
1658789609692138,-3.2654306858930795,-4.547188525215461,13.702601663233281
1658789609708126,-7.965209430075447,-5.2185854886702145,15.411612115663274
1658789609724113,-9.979400320439481,-6.134126802471883,17.42580300602731
1658789609740100,-13.397421225299468,-9.369039444571627,20.23346303501944
1658789609756073,-16.815442130159454,-11.688410772869474,22.67490653849086
1658789609772060,-17.24269474326684,-11.810482948043045,24.383916990920852
1658789609788047,-16.815442130159454,-11.749446860456146,26.764324406805372
1658789609804035,-14.98435950255589,-12.726024261844714,30.243381399252257
1658789609820022,-13.031204699778755,-14.435034714274707,32.31860837720296
1658789609836010,-12.115663385976859,-15.533684290836845,33.05104142824439
1658789609851997,-9.369039444571627,-15.167467765316132,33.844510566872486
1658789609867984,-8.33142595559616,-14.129854276340893,35.248340581368666
1658789609883972,-8.087281605249018,-14.129854276340893,37.2014953841458
1658789609899959,-9.308003356984727,-15.045395590142562,38.42221713588151
1658789609915947,-10.772869459067579,-15.594720378423744,39.45983062485675
1658789609931934,-8.51453421835663,-14.618142977035177,40.00915541313793
1658789609947921,-7.354848554207592,-13.214312962538997,41.412985427633885
1658789609963909,-6.378271152819025,-12.970168612191856,42.938887617303635
1658789609979896,-7.537956816968062,-13.214312962538997,44.7699702449072
1658789609995884,-9.369039444571627,-12.726024261844714,46.41794460975029
1658789610011871,-9.124895094224485,-10.101472495613052,47.15037766079172
1658789610027858,-8.026245517662346,-10.589761196307336,47.33348592355219
1658789610043846,-7.049668116273779,-13.45845731288614,48.004882887006715
1658789610059833,-9.246967269398056,-14.740215152208748,49.53078507667624
1658789610075836,-10.040436408026153,-12.848096437018285,50.629434653238604
1658789610091823,-6.8665598535133086,-10.833905546654478,49.95803768978385
1658789610107811,-6.744487678339738,-12.054627298390187,50.507362478064806
1658789610123798,-6.378271152819025,-13.58052948805971,51.483939879453374
1658789610139785,-11.07804989700162,-13.58052948805971,51.4229037918667
1658789610155773,-13.885709925993751,-12.115663385976859,50.812542915999074
1658789610171760,-11.810482948043045,-11.20012207217519,51.911192492560986
1658789610187748,-11.383230334935433,-12.481879911497572,53.55916685740431
1658789610203735,-14.679179064621849,-14.435034714274707,53.131914244296695
1658789610219722,-16.937514305333025,-16.571297779812312,52.46051728084194
1658789610235710,-11.383230334935433,-15.838864728770886,53.74227512016478
1658789610251697,-8.087281605249018,-16.2050812542916,55.20714122224763
1658789610267685,-9.85732814526591,-16.388189517051842,55.2681773098343
1658789610283672,-12.23773556115043,-14.92332341496899,54.596780346379546
1658789610299659,-9.246967269398056,-11.444266422522333,53.131914244296695
1658789610315647,-5.706874189364498,-10.528725108720437,52.948805981536225
1658789610331634,-5.3406576638437855,-10.040436408026153,54.29159990844573
1658789610347622,-13.64156557564661,-9.979400320439481,55.08506904707383
1658789610363609,-15.289539940489703,-9.308003356984727,53.62020294499098
1658789610379596,-9.246967269398056,-9.369039444571627,52.277409018081926
1658789610395568,-4.242008087281647,-10.406652933546866,51.667048142213844
1658789610411556,-4.119935912108076,-10.223544670786623,51.60601205462717
1658789610427543,-9.491111619745197,-10.89494163424115,51.60601205462717
1658789610443531,-8.6366063935302,-12.603952086671143,50.812542915999074
1658789610459518,-2.9602502479590385,-13.336385137712568,52.70466163118908
1658789610475505,-5.523765926604028,-13.702601663233281,57.52651255054525
1658789610491493,-10.284580758373295,-13.824673838406852,57.28236820019811
1658789610507480,-6.8665598535133086,-12.4208438239109,53.43709468223051
1658789610523468,-4.791332875562603,-12.481879911497572,51.23979552910623
1658789610539455,-7.598992904554734,-10.833905546654478,50.446326390478134
1658789610555442,-10.589761196307336,-8.45349813076973,50.263218127717664
1658789610571430,-12.23773556115043,-10.284580758373295,51.483939879453374
1658789610587417,-14.80125123979542,-11.261158159761862,52.64362554360241
1658789610603405,-16.693369954985883,-9.73525597009234,51.483939879453374
1658789610619392,-15.228503852903032,-6.256198977645454,48.85938811322194
1658789610635379,-7.049668116273779,-6.378271152819025,46.967269398031476
1658789610651367,5.279621576256886,-9.430075532158298,48.004882887006715
1658789610667354,5.645838101777599,-11.20012207217519,50.629434653238604
1658789610683342,-0.3967345693140487,-8.6366063935302,49.591821164263365
1658789610699329,-8.45349813076973,-8.33142595559616,45.502403295948625
1658789610715332,-7.476920729381163,-9.613183794918768,43.36614023041102
1658789610731319,-2.655069810025225,-10.101472495613052,44.46478980697316
1658789610747306,-6.195162890058782,-7.17174029144735,44.83100633249387
1658789610763294,-8.392462043183059,-4.974441138323073,43.060959792477206
1658789610779281,-8.941786831464015,-4.852368963149502,41.8402380407415
1658789610795269,-6.500343327992596,-6.683451590753066,41.96231021591507
1658789610811256,-8.45349813076973,-6.012054627298312,42.877851529716736
1658789610827243,-9.430075532158298,-2.7771419851987957,40.192263675898175
1658789610843231,-4.852368963149502,-1.8616006713969,36.83527885862509
1658789610859218,2.7161058976118966,-5.2185854886702145,38.849469748988895
1658789610875206,-1.6174563210497581,-6.561379415579495,43.73235675593173
1658789610891193,-10.223544670786623,-4.547188525215461,41.90127412832817
1658789610907180,-10.223544670786623,-0.5188067444876197,35.55352101930248
1658789610923168,-0.8850232700083325,1.0070954451819034,34.2717631799801
1658789610939155,2.04470893415737,-1.8005645838102282,38.11703669794747
1658789610955143,-1.9226367589837992,-2.655069810025225,40.43640802624532
1658789610971130,-6.927595941100208,-4.791332875562603,40.497444113832216
1658789610987117,-11.871519035629717,-6.256198977645454,41.535057602807456
1658789611003105,-12.298771648737329,-3.5095750362402214,39.94811932555103
1658789611019092,-6.195162890058782,-1.2512397955290453,36.71320668345152
1658789611035064,1.5564202334630863,-2.166781109330941,37.07942320897223
1658789611051052,1.0070954451819034,-3.814755474174035,39.09361409933604
1658789611067039,-8.575570305943302,-2.04470893415737,38.78843366140222
1658789611083027,-16.510261692225413,-2.166781109330941,37.689784084840085
1658789611099014,-15.228503852903032,-3.0823224231326094,35.98077363241009
1658789611115001,-10.345616845960194,-4.42511635004189,36.83527885862509
1658789611130989,-11.566338597695903,-5.096513313496644,40.314335851071746
1658789611146976,-16.2050812542916,-4.42511635004189,41.7792019531546
1658789611162963,-17.120622568093268,-2.532997634851654,38.54428931105508
1658789611178951,-10.711833371480907,-0.03051804379333589,34.943160143434625
1658789611194938,-6.317235065232353,-1.2512397955290453,36.163881895170334
1658789611210926,-12.542915999084471,-5.2185854886702145,38.11703669794747
1658789611226913,-17.66994735637445,-5.279621576256886,37.44563973449294
1658789611242900,-14.435034714274707,-2.410925459678083,36.408026245517476
1658789611258888,-8.087281605249018,-0.7629510948347615,35.61455710688938
1658789611274875,-2.410925459678083,-1.5564202334630863,35.85870145723652
1658789611290863,-4.242008087281647,-2.288853284504512,36.89631494621176
1658789611306850,-11.932555123216616,-1.0681315327688026,36.10284580758366
1658789611322837,-14.312962539101136,-1.1291676203554744,34.2107270923932
1658789611338825,-13.397421225299468,-3.3264667734797513,33.4172579537651
1658789611354828,-11.20012207217519,-3.1433585107195086,33.53933012893867
1658789611370815,-8.392462043183059,-2.7161058976118966,35.126268406195095
1658789611386802,-9.67421988250544,-2.4719615472647547,34.51590753032724
1658789611402790,-6.256198977645454,-2.655069810025225,32.92896925307082
1658789611418777,-1.2512397955290453,-1.3122758831159445,31.586175326161538
1658789611434764,0.7629510948347615,0.3967345693140487,31.158922713053926
1658789611450752,-3.875791561760934,-2.3498893720911838,30.792706187533213
1658789611466739,-9.67421988250544,-4.547188525215461,29.755092698557974
1658789611482727,-9.613183794918768,-2.8381780727854675,28.351262684061794
1658789611498714,-2.9602502479590385,1.1291676203554744,27.069504844739413
1658789611514701,3.4485389486533222,1.9226367589837992,26.39810788128466
1658789611530689,2.4719615472647547,2.04470893415737,25.42153047989609
1658789611546676,-6.805523765926637,0.6408789196611906,25.05531395437538
1658789611562664,-13.702601663233281,-1.1291676203554744,24.872205691615136
1658789611578651,-7.2938124666209205,-1.0070954451819034,24.872205691615136
1658789611594638,0.8850232700083325,0.7019150072480898,25.116350041962278
1658789611610626,4.42511635004189,0.2746623941404778,25.42153047989609
1658789611626613,3.997863736934505,0.03051804379333589,22.552834363317288
1658789611642601,2.410925459678083,1.5564202334630863,18.402380407415876
1658789611658588,0.6408789196611906,2.288853284504512,18.280308232242305
1658789611674560,-3.5095750362402214,0.15259021896690683,20.11139085984587
1658789611690548,-10.89494163424115,-1.9226367589837992,21.881437399862534
1658789611706535,-13.64156557564661,-2.04470893415737,21.45418478675515
1658789611722522,-6.927595941100208,0.15259021896690683,19.317921721217544
1658789611738510,-1.4953841458761872,1.0070954451819034,19.073777370870403
1658789611754497,1.739528496223329,-0.2746623941404778,19.9893186846723
1658789611770485,-0.7019150072480898,-2.105745021744042,20.721751735713724
1658789611786472,-0.3967345693140487,-1.8005645838102282,19.80621042191183
1658789611802459,0.6408789196611906,0.7629510948347615,17.120622568093268
1658789611818447,2.532997634851654,4.242008087281647,15.045395590142562
1658789611834434,0.3967345693140487,2.8992141603723667,17.24269474326684
1658789611850422,-1.6174563210497581,0.7019150072480898,19.195849546043974
1658789611866409,-6.317235065232353,-1.0681315327688026,18.402380407415876
1658789611882396,-5.828946364538069,-0.8850232700083325,16.937514305333025
1658789611898384,0.5798428320745188,0.45777065690094787,16.998550392919697
1658789611914371,4.852368963149502,1.9226367589837992,16.754406042572555
1658789611930359,2.288853284504512,1.0070954451819034,15.594720378423744
1658789611946346,-2.3498893720911838,-0.15259021896690683,14.92332341496899
1658789611962333,-2.9602502479590385,0.03051804379333589,14.068818188753994
1658789611978321,-3.0823224231326094,0.5188067444876197,13.702601663233281
1658789611994323,-3.3264667734797513,-0.09155413138023505,14.679179064621849
1658789612010311,-3.997863736934505,-0.7019150072480898,13.76363775082018
1658789612026298,-1.8616006713969,-0.7629510948347615,11.566338597695903
1658789612042286,0.6408789196611906,1.5564202334630863,11.993591210803288
1658789612058273,1.1291676203554744,2.7771419851987957,13.702601663233281
1658789612074260,-1.4343480582895154,2.105745021744042,13.397421225299468
1658789612090248,-2.04470893415737,1.4343480582895154,12.054627298390187
1658789612106235,-2.166781109330941,0.8850232700083325,12.359807736324
1658789612122223,-1.6784924086366573,0.6408789196611906,12.787060349431613
1658789612138210,-2.227817196917613,0.45777065690094787,12.298771648737329
1658789612154197,1.8616006713969,1.6174563210497581,11.505302510109004
1658789612170185,7.232776379034021,4.9134050507361735,11.749446860456146
1658789612186172,9.55214770733187,7.11070420386045,12.359807736324
1658789612202160,1.3733119707026162,5.157549401083315,12.115663385976859
1658789612218147,-10.833905546654478,0.15259021896690683,11.993591210803288
1658789612234134,-10.833905546654478,0.09155413138023505,11.688410772869474
1658789612250122,-3.7537193865873633,3.3264667734797513,11.383230334935433
1658789612266109,0.5188067444876197,5.645838101777599,10.833905546654478
1658789612282096,2.04470893415737,5.76791027695117,10.345616845960194
1658789612298084,2.8381780727854675,5.462729839017356,10.406652933546866
1658789612314056,1.3733119707026162,3.997863736934505,9.308003356984727
1658789612330043,-0.8850232700083325,1.6784924086366573,8.392462043183059
1658789612346031,0.09155413138023505,2.105745021744042,9.73525597009234
1658789612362018,6.683451590753066,5.157549401083315,10.650797283894008
1658789612378006,8.6366063935302,6.500343327992596,10.040436408026153
1658789612393993,4.180971999694748,5.0354772259097444,8.819714656290444
1658789612409980,-1.6174563210497581,3.2043945983061803,8.45349813076973
1658789612425968,-1.3122758831159445,4.303044174868319,8.33142595559616
1658789612441955,-2.227817196917613,5.157549401083315,7.4158846417944915
1658789612457943,-3.5095750362402214,5.0354772259097444,5.828946364538069
1658789612473930,-3.692683299000464,4.547188525215461,4.486152437628789
1658789612489917,-1.8616006713969,3.936827649347606,4.547188525215461
1658789612505905,0.3967345693140487,4.180971999694748,4.852368963149502
1658789612521892,2.410925459678083,3.0212863355459376,3.0212863355459376
1658789612537880,3.7537193865873633,2.5940337224383256,0.8850232700083325
1658789612553867,3.2654306858930795,2.4719615472647547,0.213626306553806
1658789612569854,1.4343480582895154,-0.213626306553806,-0.45777065690094787
1658789612585842,-1.1291676203554744,-4.058899824521177,-1.6174563210497581
1658789612601829,0.8850232700083325,-4.730296787975931,-3.5095750362402214
1658789612617817,4.119935912108076,-3.814755474174035,-6.195162890058782
1658789612633819,5.889982452124741,-4.42511635004189,-9.124895094224485
1658789612649807,6.378271152819025,-4.730296787975931,-11.566338597695903
1658789612665794,6.317235065232353,-3.570611123826893,-12.787060349431613
1658789612681781,5.0354772259097444,-3.6316472114137923,-14.312962539101136
1658789612697769,5.2185854886702145,-5.523765926604028,-16.32715342946517
1658789612713756,4.180971999694748,-6.256198977645454,-16.937514305333025
1658789612729744,4.364080262455218,-6.073090714885211,-17.79201953154802
1658789612745731,5.645838101777599,-7.354848554207592,-18.82963302052326
1658789612761718,7.843137254901876,-6.622415503166167,-19.9893186846723
1658789612777706,11.444266422522333,-4.669260700389032,-21.087968261234437
1658789612793693,9.185931181811156,-5.279621576256886,-21.45418478675515
1658789612809681,4.974441138323073,-6.8665598535133086,-21.69832913710229
1658789612825668,2.5940337224383256,-7.660028992141633,-23.102159151598244
1658789612841655,4.119935912108076,-6.927595941100208,-23.95666437781324
1658789612857643,9.124895094224485,-4.791332875562603,-23.651483939879427
1658789612873630,10.528725108720437,-5.2185854886702145,-23.7125200274661
1658789612889618,8.697642481116873,-6.927595941100208,-24.628061341267994
1658789612905605,8.087281605249018,-6.805523765926637,-25.29945830472252
1658789612921592,8.819714656290444,-6.256198977645454,-26.276035706111088
1658789612937580,11.383230334935433,-5.523765926604028,-27.80193789578084
1658789612953582,13.824673838406852,-4.9134050507361735,-29.449912260623933
1658789612969570,13.58052948805971,-5.279621576256886,-30.670634012359642
1658789612985557,11.993591210803288,-5.523765926604028,-31.280994888227724
1658789613001545,12.542915999084471,-6.317235065232353,-32.25757228961629
1658789613017532,14.435034714274707,-6.195162890058782,-33.966582742046285
1658789613033519,15.045395590142562,-4.60822461280236,-35.79766536964985
1658789613049507,16.571297779812312,-3.2654306858930795,-37.56771190966674
1658789613065494,16.2050812542916,-3.4485389486533222,-38.78843366140245
1658789613081482,13.153276874952326,-5.0354772259097444,-39.093614099336264
1658789613097469,13.519493400473038,-5.0354772259097444,-39.88708323796459
1658789613113456,15.411612115663274,-3.3875028610666504,-42.32852674143601
1658789613129444,17.54787518120088,-4.119935912108076,-44.342717631799815
1658789613145431,20.416571297779683,-2.166781109330941,-45.807583733882666
1658789613161419,20.843823910887295,-1.3122758831159445,-45.13618677042814
1658789613177406,12.848096437018285,-4.669260700389032,-43.85442893110553
1658789613193393,5.279621576256886,-5.523765926604028,-46.11276417181671
1658789613209381,-0.03051804379333589,-5.523765926604028,-49.22560463874265
1658789613225368,0.5188067444876197,-6.134126802471883,-48.18799114976741
1658789613241356,3.2654306858930795,-2.655069810025225,-47.333485923552416
1658789613257343,6.744487678339738,1.8005645838102282,-49.652857251850264
1658789613273315,5.828946364538069,0.03051804379333589,-49.897001602197406
1658789613289302,5.157549401083315,-0.8850232700083325,-46.54001678492409
1658789613305290,7.354848554207592,0.15259021896690683,-45.07515068284124
1658789613321277,4.119935912108076,0.5188067444876197,-45.990691996643136
1658789613337265,0.7629510948347615,-1.6784924086366573,-46.54001678492409
1658789613353252,0.5188067444876197,-3.1433585107195086,-45.50240329594885
1658789613369239,4.303044174868319,-0.213626306553806,-45.746547646295994
1658789613385227,9.979400320439481,1.5564202334630863,-46.9672693980317
1658789613401214,13.397421225299468,0.9460593575952316,-45.92965590905624
1658789613417202,12.848096437018285,-0.8850232700083325,-43.244068055237676
1658789613433189,6.622415503166167,-0.8239871824216607,-42.87785152971696
1658789613449176,2.8381780727854675,0.09155413138023505,-44.525825894560285
1658789613465164,10.711833371480907,1.0681315327688026,-46.60105287251099
1658789613481151,14.129854276340893,0.2746623941404778,-45.563439383535524
1658789613497139,12.298771648737329,0.33569848172737693,-43.48821240558482
1658789613513126,5.2185854886702145,0.33569848172737693,-43.244068055237676
1658789613529113,3.5095750362402214,-0.7019150072480898,-44.15960936903957
1658789613545101,7.537956816968062,-0.6408789196611906,-42.38956282902268
1658789613561088,10.467689021133765,0.8239871824216607,-40.497444113832444
1658789613577076,9.55214770733187,3.2043945983061803,-41.47402151522101
1658789613593078,11.139085984588291,4.791332875562603,-44.037537193866
1658789613609066,15.289539940489703,4.486152437628789,-44.58686198214696
1658789613625053,15.411612115663274,1.5564202334630863,-42.63370717936982
1658789613641040,8.392462043183059,-0.03051804379333589,-40.2532997634853
1658789613657028,2.04470893415737,2.227817196917613,-39.88708323796459
1658789613673015,4.669260700389032,4.791332875562603,-41.962310215915295
1658789613689003,14.068818188753994,2.7771419851987957,-42.084382391088866
1658789613704990,14.557106889448278,-0.7019150072480898,-37.872892347600555
1658789613720977,8.209353780422589,1.5564202334630863,-35.79766536964985
1658789613736965,4.058899824521177,6.927595941100208,-38.30014496070817
1658789613752952,9.491111619745197,6.744487678339738,-40.80262455176626
1658789613768940,14.679179064621849,4.303044174868319,-38.178072785534596
1658789613784927,13.519493400473038,1.983672846570471,-35.12626840619532
1658789613800914,5.401693751430457,2.9602502479590385,-35.187304493781994
1658789613816902,4.547188525215461,5.096513313496644,-36.89631494621199
1658789613832889,11.444266422522333,4.791332875562603,-37.20149538414603
1658789613848877,17.66994735637445,2.227817196917613,-35.431448844129136
1658789613864864,12.176699473563758,1.1291676203554744,-32.56275272755033
1658789613880851,5.706874189364498,4.547188525215461,-32.806897077897474
1658789613896839,6.744487678339738,7.476920729381163,-35.06523231860842
1658789613912811,13.153276874952326,5.523765926604028,-35.00419623102175
1658789613928798,13.336385137712568,4.058899824521177,-32.13550011444272
1658789613944786,9.002822919050914,4.547188525215461,-31.830319676508907
1658789613960773,6.561379415579495,3.814755474174035,-33.78347447928604
1658789613976760,4.242008087281647,2.166781109330941,-32.928969253071045
1658789613992748,5.523765926604028,2.9602502479590385,-31.89135576409558
1658789614008735,8.270389868009488,5.523765926604028,-32.44068055237676
1658789614024723,10.528725108720437,5.157549401083315,-34.027618829633184
1658789614040710,13.275349050125897,1.739528496223329,-33.5393301289389
1658789614056697,11.383230334935433,1.4343480582895154,-30.853742275120112
1658789614072685,10.040436408026153,4.058899824521177,-30.975814450293683
1658789614088672,11.749446860456146,4.058899824521177,-33.29518577859176
1658789614104660,12.4208438239109,1.2512397955290453,-33.29518577859176
1658789614120647,8.819714656290444,1.4953841458761872,-29.633020523384403
1658789614136634,4.852368963149502,4.42511635004189,-28.04608224612798
1658789614152622,3.2043945983061803,5.2185854886702145,-28.900587472342977
1658789614168609,6.012054627298312,3.7537193865873633,-29.08369573510322
1658789614184597,7.2938124666209205,1.6174563210497581,-28.412298771648693
1658789614200584,6.378271152819025,1.1902037079423735,-27.496757457846797
1658789614216571,5.401693751430457,1.6784924086366573,-26.6422522316318
1658789614232574,8.51453421835663,2.8381780727854675,-26.6422522316318
1658789614248561,8.087281605249018,2.8992141603723667,-27.92401007095441
1658789614264549,9.124895094224485,2.9602502479590385,-29.999237048905115
1658789614280536,9.73525597009234,2.288853284504512,-29.14473182269012
1658789614296524,7.2938124666209205,2.410925459678083,-26.58121614404513
1658789614312511,6.073090714885211,3.7537193865873633,-27.069504844739413
1658789614328498,7.843137254901876,2.532997634851654,-29.999237048905115
1658789614344486,12.481879911497572,1.3122758831159445,-32.13550011444272
1658789614360473,12.298771648737329,0.7629510948347615,-31.586175326161765
1658789614376461,9.918364232852582,2.532997634851654,-30.975814450293683
1658789614392448,10.101472495613052,4.669260700389032,-31.036850537880355
1658789614408435,8.575570305943302,2.8381780727854675,-30.54856183718607
1658789614424423,8.209353780422589,0.33569848172737693,-29.816128786144645
1658789614440410,7.965209430075447,2.4719615472647547,-28.473334859235365
1658789614456398,12.23773556115043,6.561379415579495,-28.96162355992965
1658789614472385,12.787060349431613,5.3406576638437855,-28.717479209582507
1658789614488372,8.026245517662346,3.0823224231326094,-27.679865720607268
1658789614504360,7.476920729381163,1.8616006713969,-27.191577019912984
1658789614520347,8.270389868009488,2.5940337224383256,-25.42153047989609
1658789614536335,9.73525597009234,5.0354772259097444,-24.689097428854666
1658789614552307,12.176699473563758,4.486152437628789,-25.909819180590375
1658789614568294,10.833905546654478,0.7019150072480898,-25.848783093003703
1658789614584282,6.134126802471883,-1.4343480582895154,-25.116350041962278
1658789614600269,4.9134050507361735,-1.4343480582895154,-24.933241779201808
1658789614616256,4.180971999694748,0.7019150072480898,-24.01770046540014
1658789614632244,5.0354772259097444,1.0681315327688026,-23.529411764705856
1658789614648231,9.063859006637585,-0.2746623941404778,-24.13977264057371
1658789614664219,10.406652933546866,-2.04470893415737,-22.73594262607753
1658789614680206,8.697642481116873,0.7629510948347615,-21.637293049515392
1658789614696193,6.622415503166167,2.288853284504512,-22.430762188143717
1658789614712181,7.843137254901876,0.7629510948347615,-23.041123064011572
1658789614728168,8.33142595559616,-2.105745021744042,-21.759365224688963
1658789614744156,4.303044174868319,-2.532997634851654,-21.210040436408008
1658789614760143,3.3875028610666504,0.15259021896690683,-22.67490653849086
1658789614776130,5.2185854886702145,0.9460593575952316,-23.7125200274661
1658789614792118,6.8665598535133086,-0.7019150072480898,-22.49179827573039
1658789614808105,4.730296787975931,-2.3498893720911838,-20.599679560540153
1658789614824092,2.288853284504512,-0.9460593575952316,-21.33211261158158
1658789614840080,0.9460593575952316,-0.15259021896690683,-22.247653925383247
1658789614856067,2.5940337224383256,0.15259021896690683,-22.003509575036105
1658789614872070,4.669260700389032,0.03051804379333589,-21.087968261234437
1658789614888057,4.791332875562603,-0.7629510948347615,-22.67490653849086
1658789614904045,5.096513313496644,-1.9226367589837992,-24.01770046540014
1658789614920032,7.2938124666209205,-0.9460593575952316,-22.186617837796575
1658789614936020,6.317235065232353,0.03051804379333589,-21.27107652399468
1658789614952007,5.889982452124741,0.5798428320745188,-22.49179827573039
1658789614967994,3.7537193865873633,0.2746623941404778,-22.919050888838
1658789614983982,3.570611123826893,1.6784924086366573,-22.430762188143717
1658789614999969,4.486152437628789,3.814755474174035,-22.247653925383247
1658789615015957,5.096513313496644,5.584802014190927,-22.73594262607753
1658789615031944,8.575570305943302,4.730296787975931,-23.590447852292527
1658789615047931,7.4158846417944915,2.9602502479590385,-23.102159151598244
1658789615063919,5.95101853971164,4.669260700389032,-22.430762188143717
1658789615079906,6.500343327992596,6.927595941100208,-23.346303501945386
1658789615095893,8.51453421835663,5.889982452124741,-24.383916990920852
1658789615111881,10.650797283894008,4.9134050507361735,-23.89562829022657
1658789615127868,7.782101167315204,3.0823224231326094,-23.407339589532285
1658789615143856,6.378271152819025,4.9134050507361735,-23.651483939879427
1658789615159843,7.782101167315204,6.805523765926637,-22.552834363317288
1658789615175830,8.6366063935302,6.622415503166167,-22.186617837796575
1658789615191803,5.279621576256886,5.462729839017356,-22.79697871366443
1658789615207790,4.303044174868319,4.974441138323073,-23.651483939879427
1658789615223777,6.622415503166167,4.974441138323073,-24.750133516441565
1658789615239765,9.73525597009234,6.805523765926637,-25.29945830472252
1658789615255752,8.45349813076973,5.523765926604028,-25.665674830243233
1658789615271740,5.279621576256886,2.532997634851654,-25.970855268177274
1658789615287727,3.570611123826893,1.1902037079423735,-25.726710917830133
1658789615303714,5.096513313496644,4.9134050507361735,-25.909819180590375
1658789615319702,7.17174029144735,7.11070420386045,-26.39810788128466
1658789615335689,8.758678568703772,4.974441138323073,-24.872205691615136
1658789615351677,7.721065079728305,2.8381780727854675,-22.8580148012511
1658789615367664,3.2654306858930795,3.4485389486533222,-22.79697871366443
1658789615383651,2.105745021744042,6.012054627298312,-23.89562829022657
1658789615399639,2.7161058976118966,5.706874189364498,-24.567025253681095
1658789615415626,2.7771419851987957,2.3498893720911838,-24.505989166094423
1658789615431614,1.3122758831159445,2.3498893720911838,-23.041123064011572
1658789615447601,1.739528496223329,5.828946364538069,-22.49179827573039
1658789615463588,5.3406576638437855,6.195162890058782,-23.285267414358714
1658789615479576,10.650797283894008,4.486152437628789,-22.919050888838
1658789615495563,9.67421988250544,1.739528496223329,-21.69832913710229
1658789615511535,6.927595941100208,3.0212863355459376,-21.759365224688963
1658789615527523,8.087281605249018,6.256198977645454,-22.369726100556818
1658789615543510,10.345616845960194,6.378271152819025,-22.49179827573039
1658789615559497,10.162508583199724,4.058899824521177,-22.064545662623004
1658789615575485,6.744487678339738,2.105745021744042,-21.820401312275862
1658789615591472,4.119935912108076,4.303044174868319,-22.67490653849086
1658789615607460,6.378271152819025,7.2938124666209205,-23.7125200274661
1658789615623447,7.965209430075447,6.683451590753066,-24.07873655298681
1658789615639434,7.11070420386045,2.8381780727854675,-23.95666437781324
1658789615655422,6.012054627298312,0.8850232700083325,-23.590447852292527
1658789615671409,3.936827649347606,3.3875028610666504,-22.980086976424673
1658789615687397,4.669260700389032,4.974441138323073,-23.346303501945386
1658789615703384,6.622415503166167,2.288853284504512,-22.919050888838
1658789615719371,8.33142595559616,0.45777065690094787,-21.759365224688963
1658789615735359,8.026245517662346,2.5940337224383256,-21.210040436408008
1658789615751346,7.049668116273779,6.317235065232353,-20.17242694743254
1658789615767334,5.279621576256886,6.256198977645454,-18.280308232242305
1658789615783321,3.936827649347606,4.9134050507361735,-16.02197299153113
1658789615799308,0.8850232700083325,6.134126802471883,-14.92332341496899
1658789615815296,2.7161058976118966,9.613183794918768,-14.068818188753994
1658789615831298,4.303044174868319,9.185931181811156,-11.566338597695903
1658789615847286,5.828946364538069,5.828946364538069,-8.270389868009488
1658789615863273,4.60822461280236,2.3498893720911838,-5.889982452124741
1658789615879261,0.5798428320745188,-0.6408789196611906,-4.058899824521177
1658789615895248,0.15259021896690683,-0.7019150072480898,-0.5798428320745188
1658789615911235,-0.6408789196611906,-1.9226367589837992,3.1433585107195086
1658789615927223,-4.242008087281647,-3.997863736934505,5.889982452124741
1658789615943210,-7.476920729381163,-4.486152437628789,8.6366063935302
1658789615959198,-8.819714656290444,-3.3264667734797513,10.711833371480907
1658789615975185,-8.51453421835663,-3.0823224231326094,12.359807736324
1658789615991172,-9.613183794918768,-4.60822461280236,15.228503852903032
1658789616007160,-10.589761196307336,-6.012054627298312,17.730983443961122
1658789616023147,-10.528725108720437,-4.974441138323073,19.195849546043974
1658789616039135,-9.613183794918768,-4.486152437628789,21.45418478675515
1658789616055122,-9.185931181811156,-5.523765926604028,23.651483939879427
1658789616071109,-10.955977721828049,-5.645838101777599,25.726710917830133
1658789616087097,-11.322194247348762,-5.645838101777599,26.886396581978943
1658789616103084,-10.528725108720437,-7.17174029144735,27.679865720607268
1658789616119072,-11.932555123216616,-10.589761196307336,28.900587472342977
1658789616135059,-11.810482948043045,-12.359807736324,30.914778362706784
1658789616151062,-9.796292057679011,-12.848096437018285,32.74586099031035
1658789616167049,-7.537956816968062,-13.031204699778755,32.86793316548392
1658789616183036,-7.904173342488775,-14.068818188753994,33.23414969100463
1658789616199024,-4.058899824521177,-11.139085984588291,33.722438391698915
1658789616215011,-3.875791561760934,-7.721065079728305,33.96658274204606
1658789616230999,-5.3406576638437855,-5.706874189364498,34.14969100480653
1658789616246986,-8.45349813076973,-6.561379415579495,34.51590753032724
1658789616262973,-11.993591210803288,-8.392462043183059,34.821087968261054
1658789616278961,-13.397421225299468,-8.148317692835917,35.126268406195095
1658789616294948,-9.491111619745197,-6.622415503166167,34.51590753032724
1658789616310936,-5.401693751430457,-6.683451590753066,34.51590753032724
1658789616326923,-4.791332875562603,-8.087281605249018,36.285954070343905
1658789616342910,-6.195162890058782,-9.124895094224485,37.87289234760033
1658789616358898,-7.965209430075447,-8.087281605249018,38.66636148622865
1658789616374885,-8.697642481116873,-7.476920729381163,39.032578011749365
1658789616390873,-7.721065079728305,-7.843137254901876,38.66636148622865
1658789616406860,-9.185931181811156,-9.308003356984727,38.727397573815324
1658789616422847,-11.20012207217519,-9.185931181811156,38.971541924162466
1658789616438835,-10.101472495613052,-7.476920729381163,39.76501106279079
1658789616454822,-9.246967269398056,-7.843137254901876,40.375371938658645
1658789616470794,-11.01701380941472,-8.941786831464015,39.82604715037746
1658789616486782,-10.406652933546866,-9.55214770733187,37.628747997253186
1658789616502769,-6.683451590753066,-8.270389868009488,37.1404592965589
1658789616518756,-8.148317692835917,-8.087281605249018,39.88708323796436
1658789616534744,-14.068818188753994,-9.796292057679011,41.96231021591507
1658789616550731,-14.435034714274707,-10.467689021133765,41.04676890211317
1658789616566719,-13.092240787365427,-10.528725108720437,39.58190280003032
1658789616582706,-8.880750743877343,-9.246967269398056,38.971541924162466
1658789616598693,-1.983672846570471,-6.744487678339738,39.64293888761722
1658789616614681,-5.2185854886702145,-6.256198977645454,41.7792019531546
1658789616630668,-11.01701380941472,-6.805523765926637,41.535057602807456
1658789616646656,-14.129854276340893,-6.805523765926637,38.78843366140222
1658789616662643,-12.176699473563758,-7.537956816968062,35.004196231021524
1658789616678630,-3.570611123826893,-6.9886320286868795,34.76005188067438
1658789616694618,-2.7161058976118966,-7.354848554207592,38.849469748988895
1658789616710605,-8.819714656290444,-7.721065079728305,40.375371938658645
1658789616726593,-14.129854276340893,-8.697642481116873,37.9949645227739
1658789616742580,-13.397421225299468,-10.101472495613052,34.88212405584795
1658789616758567,-11.566338597695903,-11.749446860456146,34.57694361791391
1658789616774555,-6.195162890058782,-10.345616845960194,36.83527885862509
1658789616790557,-3.6316472114137923,-7.660028992141633,39.76501106279079
1658789616806545,-6.622415503166167,-7.843137254901876,40.74158846417936
1658789616822532,-7.782101167315204,-9.67421988250544,39.88708323796436
1658789616838520,-3.997863736934505,-8.209353780422589,38.60532539864175
1658789616854507,-6.805523765926637,-5.76791027695117,39.032578011749365
1658789616870494,-2.4719615472647547,-2.8992141603723667,38.910505836575794
1658789616886482,-2.4719615472647547,-4.42511635004189,38.23910887312104
1658789616902469,-4.058899824521177,-6.195162890058782,37.9949645227739
1658789616918457,-7.17174029144735,-6.378271152819025,38.30014496070794
1658789616934444,-8.45349813076973,-4.730296787975931,38.910505836575794
1658789616950431,-5.3406576638437855,-5.2185854886702145,39.21568627450961
1658789616966419,-3.875791561760934,-7.17174029144735,40.43640802624532
1658789616982406,-8.087281605249018,-8.819714656290444,42.20645456626221
1658789616998394,-10.833905546654478,-8.941786831464015,41.96231021591507
1658789617014381,-11.07804989700162,-11.07804989700162,41.65712977798103
1658789617030368,-8.758678568703772,-12.603952086671143,41.90127412832817
1658789617046356,-4.852368963149502,-12.4208438239109,43.060959792477206
1658789617062343,-7.537956816968062,-10.89494163424115,44.64789806973363
1658789617078331,-15.838864728770886,-13.397421225299468,45.319295033188155
1658789617094318,-14.068818188753994,-13.946746013580423,45.01411459525434
1658789617110290,-13.153276874952326,-13.275349050125897,45.25825894560148
1658789617126278,-12.726024261844714,-9.918364232852582,44.281681544212915
1658789617142265,-9.246967269398056,-6.500343327992596,43.18303196765078
