Timestamp (microseconds),Accel X (g),Accel Y (g),Accel Z (g)
1658789598049133,0.1129777981231399,-0.4210879682612343,0.9517357137407494
1658789598065131,0.12262149996185201,-0.41278706034943147,0.9468528267338066
1658789598081129,0.12213321126115773,-0.41376363775082003,0.9430685893034259
1658789598097127,0.12030212863355416,-0.4185244525825893,0.9358663309681852
1658789598113124,0.11859311818112417,-0.4160830090791179,0.9309834439612423
1658789598129122,0.1155413138017849,-0.41754787518120073,0.9494163424124515
1658789598145120,0.11395437552452847,-0.41754787518120073,0.951003280689708
1658789598161118,0.11725032425421489,-0.41242084382391075,0.9532005798428322
1658789598177116,0.11590753032730561,-0.41156633859769576,0.9513694972152287
1658789598193114,0.1167620355535206,-0.4122987716487372,0.9368429083695737
1658789598209112,0.1176165407797356,-0.4096131837949186,0.9308613717860688
1658789598225110,0.11859311818112417,-0.4016784924086365,0.9297627222095066
1658789598241108,0.11358815899900776,-0.4135194934004729,0.9394064240482187
1658789598257105,0.1155413138017849,-0.3975280384527351,0.9328145265888459
1658789598273103,0.12018005645838059,-0.39557488364995796,0.9168230716411081
1658789598289101,0.11419851987487561,-0.4013122758831158,0.9195086594949267
1658789598305099,0.11493095292591704,-0.41327534905012575,0.9326924544136723
1658789598321097,0.11810482948042988,-0.42121004043640786,0.9473411154345008
1658789598337095,0.11859311818112417,-0.4088807507438772,0.9383077744716566
1658789598353093,0.1184710460059506,-0.3891050583657587,0.9295185778591595
1658789598369079,0.11798275730525631,-0.39850461585412367,0.9291523613336388
1658789598385077,0.11541924162661132,-0.4018005645838101,0.9285420004577709
1658789598401075,0.11273365377279276,-0.40778210116731506,0.9252460517280845
1658789598417073,0.11956969558251274,-0.40900282291905077,0.9402609292744337
1658789598433071,0.12164492256046344,-0.4097352559700922,0.9391622796978716
1658789598449069,0.11749446860456203,-0.4135194934004729,0.9439230945296408
1658789598465067,0.11309987029831348,-0.4125429159990843,0.9405050736247809
1658789598481064,0.11358815899900776,-0.4138857099259936,0.9508812085145344
1658789598497062,0.11041428244449492,-0.42340733958953214,0.9528343633173115
1658789598513060,0.11773861295490917,-0.42059967956054,0.9528343633173115
1658789598529058,0.11773861295490917,-0.4142519264515143,0.9408712901503016
1658789598545056,0.11126878767070991,-0.42291905088883786,0.9481956206607158
1658789598561054,0.11566338597695847,-0.41889066910811,0.9528343633173115
1658789598577052,0.11749446860456203,-0.4138857099259936,0.9601586938277258
1658789598593050,0.11651789120317346,-0.4143739986266879,0.9590600442511636
1658789598609048,0.11871519035629774,-0.4235294117647057,0.9617456321049822
1658789598625045,0.11602960250247918,-0.4379339284351875,0.9593041886015108
1658789598641043,0.11651789120317346,-0.4343938353551535,0.9478294041351951
1658789598657041,0.1138323033493549,-0.4159609369039443,0.9470969710841537
1658789598673039,0.1176165407797356,-0.40326543068589293,0.9411154345006487
1658789598689056,0.11041428244449492,-0.41242084382391075,0.939894712748913
1658789598705054,0.11163500419623062,-0.41950102998397787,0.9337911039902345
1658789598721052,0.11151293202105705,-0.41840238040741573,0.9251239795529109
1658789598737050,0.11798275730525631,-0.4133974212252993,0.9264667734798202
1658789598753048,0.12079041733424845,-0.4043640802624551,0.9177996490424967
1658789598769045,0.11834897383077703,-0.416327153429465,0.9134050507362481
1658789598785043,0.1193255512321656,-0.41828030823224216,0.9259784847791259
1658789598801041,0.11786068513008274,-0.42059967956054,0.9267109178301673
1658789598817039,0.1222552834363313,-0.41461814297703503,0.932204165712978
1658789598833037,0.11444266422522276,-0.41461814297703503,0.9341573205157552
1658789598849035,0.11163500419623062,-0.4164492256046386,0.9264667734798202
1658789598865033,0.11663996337834703,-0.40534065766384364,0.9237811856260016
1658789598881031,0.12213321126115773,-0.4092469672693979,0.939894712748913
1658789598897029,0.12323186083771986,-0.4173037308308536,0.939894712748913
1658789598913026,0.12372014953841415,-0.41657129777981217,0.9329365987640195
1658789598929024,0.11798275730525631,-0.42047760738536644,0.9334248874647137
1658789598945022,0.11786068513008274,-0.41913481345845716,0.9409933623254751
1658789598961020,0.11602960250247918,-0.41754787518120073,0.9444113832303351
1658789598977018,0.11541924162661132,-0.41364156557564646,0.9417257953765166
1658789598993016,0.11505302510109061,-0.41669336995498574,0.9427023727779051
1658789599008880,0.11358815899900776,-0.4096131837949186,0.9214618142977038
1658789599024878,0.11456473640039633,-0.39984740978103295,0.8985122453650725
1658789599040875,0.11371023117418133,-0.40741588464179435,0.9081559472037846
1658789599056872,0.10955977721827992,-0.4169375143053329,0.937331197070268
1658789599072870,0.11615167467765275,-0.4235294117647057,0.9573510337987337
1658789599088867,0.1176165407797356,-0.4138857099259936,0.9452658884565501
1658789599104865,0.1091935606927592,-0.4198672465094986,0.9258564126039524
1658789599120862,0.10943770504310635,-0.41840238040741573,0.9251239795529109
1658789599136860,0.11065842679484206,-0.4118104829480429,0.9463645380331123
1658789599152857,0.1079728389410235,-0.4102235446707865,0.964919508659495
1658789599168854,0.11187914854657777,-0.42084382391088715,0.9710231174181736
1658789599184852,0.10699626153963493,-0.42328526741435857,0.9606469825284201
1658789599200849,0.10699626153963493,-0.4135194934004729,0.9395284962233923
1658789599216847,0.10943770504310635,-0.40985732814526576,0.9555199511711301
1658789599232844,0.10687418936446136,-0.42328526741435857,0.9655298695353629
1658789599248841,0.10943770504310635,-0.41205462729839004,0.9555199511711301
1658789599264839,0.10760662241550278,-0.4087586785687036,0.9561303120469979
1658789599280836,0.10846112764171778,-0.40070191500724794,0.9453879606317237
1658789599296834,0.11065842679484206,-0.40997940032043934,0.9420920119020373
1658789599312831,0.10760662241550278,-0.4181582360570686,0.9414816510261694
1658789599328704,0.10479896238651065,-0.4209658960860607,0.9445334554055087
1658789599344701,0.10260166323338638,-0.419745174334325,0.9412375066758223
1658789599360698,0.1091935606927592,-0.4104676890211336,0.9333028152895402
1658789599376695,0.11627374685282632,-0.41742580300602716,0.9439230945296408
1658789599392692,0.11822690165560346,-0.41290913252460504,0.9396505683985659
1658789599408689,0.11041428244449492,-0.4071717402914472,0.9206073090714888
1658789599424686,0.10760662241550278,-0.4028992141603722,0.9301289387350273
1658789599440683,0.10516517891203137,-0.4126649881742579,0.9479514763103687
1658789599456680,0.10846112764171778,-0.4130312046997786,0.950148775463493
1658789599472677,0.11102464332036277,-0.41876859693293644,0.9491721980621044
1658789599488674,0.10821698329137064,-0.40607309071488507,0.9353780422674909
1658789599504671,0.10858319981689135,-0.4049744411383229,0.9365987640192266
1658789599520668,0.1088273441672385,-0.4152285038529029,0.9469748989089801
1658789599536665,0.11041428244449492,-0.41278706034943147,0.9506370641641873
1658789599552662,0.10528725108720494,-0.42499427786678856,0.9497825589379723
1658789599568658,0.1088273441672385,-0.41449607080186146,0.9575951781490808
1658789599584655,0.10748455024032921,-0.42633707179369784,0.9541771572442208
1658789599600652,0.10943770504310635,-0.42243076218814357,0.950148775463493
1658789599616649,0.11358815899900776,-0.4135194934004729,0.9369649805447473
1658789599632646,0.10894941634241206,-0.41120012207217504,0.9383077744716566
1658789599648529,0.10955977721827992,-0.40314335851071936,0.9374532692454416
1658789599664525,0.10699626153963493,-0.4177920195315479,0.9464866102082858
1658789599680522,0.10858319981689135,-0.428290226596475,0.9496604867627987
1658789599696518,0.11541924162661132,-0.4207217517357136,0.9455100328068973
1658789599712515,0.11053635461966849,-0.41962310215915144,0.9499046311131458
1658789599728511,0.1138323033493549,-0.41205462729839004,0.9378194857709623
1658789599744507,0.10931563286793278,-0.42291905088883786,0.9414816510261694
1658789599760504,0.11041428244449492,-0.41950102998397787,0.9427023727779051
1658789599776500,0.11187914854657777,-0.4160830090791179,0.9282978561074238
1658789599792497,0.1176165407797356,-0.4102235446707865,0.9270771343556881
1658789599808493,0.12408636606393486,-0.40900282291905077,0.9201190203707945
1658789599824490,0.12542915999084503,-0.42255283436331714,0.9323262378881516
1658789599840486,0.12213321126115773,-0.4370794232089721,0.9213397421225302
1658789599856483,0.12103456168459559,-0.42462806134126785,0.9079118028534374
1658789599872479,0.13287556267643286,-0.42743572137026,0.9159685664148931
1658789599888476,0.12201113908598415,-0.4456244754711225,0.9348897535667966
1658789599904472,0.11615167467765275,-0.4489204242008089,0.9226825360494395
1658789599920468,0.10174715800717138,-0.4540474555580989,0.904615854123751
1658789599936465,0.09723048752574925,-0.456855115587091,0.8924086366063939
1658789599952461,0.10846112764171778,-0.4376897840848404,0.9016861219195853
1658789599968383,0.11639581902799989,-0.4361028458075835,0.9074235141527431
1658789599984380,0.12115663385976916,-0.43915465018692323,0.9179217212176702
1658789600000376,0.11602960250247918,-0.44660105287251106,0.9197528038452738
1658789600016373,0.11078049897001563,-0.4425726710917832,0.9193865873197531
1658789600032369,0.10931563286793278,-0.4374456397344928,0.9507591363393608
1658789600048366,0.10980392156862706,-0.4306095979247728,0.964919508659495
1658789600064362,0.10809491111619707,-0.42572671091783,0.9561303120469979
1658789600080359,0.11309987029831348,-0.42511635004196213,0.9601586938277258
1658789600096355,0.11505302510109061,-0.4142519264515143,0.9613794155794615
1658789600112352,0.11871519035629774,-0.4063172350652322,0.9687037460898758
1658789600128348,0.1138323033493549,-0.40228885328450437,0.9754177157244222
1658789600144344,0.11309987029831348,-0.4075379568169679,0.9656519417105365
1658789600160341,0.11432059205004919,-0.41791409170672145,0.9644312199588008
1658789600176337,0.11187914854657777,-0.40399786373693436,0.9572289616235601
1658789600192334,0.12066834515907487,-0.39020370794232084,0.9508812085145344
1658789600208330,0.11578545815213204,-0.4049744411383229,0.9613794155794615
1658789600224327,0.11798275730525631,-0.4164492256046386,0.9489280537117573
1658789600240323,0.11651789120317346,-0.4105897611963072,0.9420920119020373
1658789600256320,0.12115663385976916,-0.3953307392996108,0.9329365987640195
1658789600272316,0.11834897383077703,-0.4042420080872815,0.9402609292744337
1658789600288177,0.11517509727626418,-0.41498435950255574,0.939894712748913
1658789600304173,0.1146868085755699,-0.41498435950255574,0.9344014648661023
1658789600320169,0.11493095292591704,-0.4026550698100251,0.9408712901503016
1658789600336165,0.11529716945143775,-0.3959411001754787,0.9282978561074238
1658789600352161,0.11248950942244562,-0.4000915541313801,0.9236591134508281
1658789600368157,0.11810482948042988,-0.40863660639353006,0.9291523613336388
1658789600384153,0.12127870603494273,-0.4148622873273822,0.9290302891584652
1658789600400149,0.12982375829709358,-0.40241092545967794,0.9368429083695737
1658789600416145,0.1267719539177543,-0.39777218280308224,0.916578927290761
1658789600432141,0.12213321126115773,-0.4169375143053329,0.9232928969253074
1658789600448137,0.12396429388876129,-0.43683527885862494,0.9279316395819031
1658789600464133,0.11944762340733917,-0.44074158846417966,0.939040207522698
1658789600480129,0.12567330434119217,-0.4285343709468221,0.951003280689708
1658789600496125,0.12970168612192,-0.41412985427634075,0.939040207522698
1658789600512121,0.12689402609292788,-0.42597085526817713,0.9201190203707945
1658789600528117,0.12957961394674644,-0.44757763027389963,0.9281757839322502
1658789600544113,0.12799267566949002,-0.43048752574959925,0.9225604638742659
1658789600560109,0.12835889219501073,-0.4013122758831158,0.9170672159914552
1658789600576105,0.12091248950942202,-0.40534065766384364,0.9264667734798202
1658789600592101,0.12652780956740717,-0.4298771648737314,0.9092545967803467
1658789600608032,0.1272602426184486,-0.44208438239108894,0.9102311741817353
1658789600624027,0.1301899748226143,-0.44245059891660965,0.9225604638742659
1658789600640023,0.12945754177157287,-0.4323186083772028,0.9325703822384988
1658789600656018,0.12774853131914288,-0.4336614023041121,0.9284199282825973
1658789600672014,0.123476005188067,-0.42877851529716926,0.9164568551155874
1658789600688009,0.12103456168459559,-0.4273136491950864,0.9091325246051731
1658789600704005,0.11639581902799989,-0.41913481345845716,0.9119401846341653
1658789600720000,0.11895933470664488,-0.42963302052338426,0.9252460517280845
1658789600735996,0.12420843823910843,-0.43085374227511997,0.9375753414206152
1658789600751991,0.1343404287785157,-0.43085374227511997,0.9422140840772109
1658789600767987,0.12872510872053144,-0.43219653620202925,0.918287937743191
1658789600783982,0.1176165407797356,-0.43170824750133496,0.9103532463569088
1658789600799978,0.11993591210803345,-0.43097581445029354,0.9308613717860688
1658789600815973,0.12042420080872773,-0.43219653620202925,0.9422140840772109
1658789600831969,0.12701609826810145,-0.4245059891660943,0.9425803006027316
1658789600847964,0.12774853131914288,-0.4352483405813685,0.9401388570992602
1658789600863960,0.1259174486915393,-0.43134203097581425,0.9224383916990924
1658789600879955,0.12713817044327502,-0.4290226596475164,0.9246356908522166
1658789600895951,0.12066834515907487,-0.42792401007095426,0.9282978561074238
1658789600911946,0.12323186083771986,-0.428290226596475,0.9344014648661023
1658789600927856,0.12567330434119217,-0.42511635004196213,0.9440451667048144
1658789600943852,0.12701609826810145,-0.41998931868467215,0.939894712748913
1658789600959847,0.12787060349431645,-0.419745174334325,0.9274433508812088
1658789600975843,0.11981383993285988,-0.42633707179369784,0.9251239795529109
1658789600991838,0.11895933470664488,-0.4276798657206071,0.9248798352025638
1658789601007834,0.11944762340733917,-0.4201113908598457,0.9276874952315559
1658789601023829,0.1193255512321656,-0.42377355611505285,0.9341573205157552
1658789601039825,0.12213321126115773,-0.42243076218814357,0.9293965056839859
1658789601055820,0.12384222171358772,-0.4335393301289385,0.9297627222095066
1658789601071816,0.12237735561150487,-0.4348821240558478,0.9359884031433587
1658789601087811,0.12286564431219915,-0.4192568856336307,0.9312275883115895
1658789601103807,0.11749446860456203,-0.42121004043640786,0.9258564126039524
1658789601119802,0.11651789120317346,-0.4219424734874493,0.934767681391623
1658789601135798,0.11505302510109061,-0.4340276188296328,0.9481956206607158
1658789601151793,0.11749446860456203,-0.4245059891660943,0.9394064240482187
1658789601167789,0.123476005188067,-0.4186465247577629,0.9307392996108952
1658789601183784,0.12042420080872773,-0.4252384222171357,0.9376974135957887
1658789601199780,0.12201113908598415,-0.4402532997634854,0.9491721980621044
1658789601215775,0.11627374685282632,-0.4446478980697339,0.9473411154345008
1658789601231771,0.12469672693980272,-0.42230869001297,0.9452658884565501
1658789601247680,0.11493095292591704,-0.41669336995498574,0.9344014648661023
1658789601263675,0.10687418936446136,-0.42047760738536644,0.9256122682536052
1658789601279670,0.1088273441672385,-0.4276798657206071,0.9462424658579387
1658789601295665,0.11480888075074347,-0.43048752574959925,0.9513694972152287
1658789601311660,0.1251850156404979,-0.4240177004654,0.9400167849240866
1658789601327655,0.123476005188067,-0.42169832913710215,0.939040207522698
1658789601343650,0.1214007782101163,-0.4362249179827571,0.9250019073777374
1658789601359645,0.11773861295490917,-0.4302433813992521,0.9250019073777374
1658789601375640,0.11407644769970204,-0.42719157701991284,0.9209735255970095
1658789601391636,0.11627374685282632,-0.42059967956054,0.9263447013046466
1658789601407631,0.1176165407797356,-0.42169832913710215,0.9275654230563823
1658789601423626,0.11541924162661132,-0.4245059891660943,0.9243915465018695
1658789601439621,0.11688410772869418,-0.42841229877164855,0.9223163195239188
1658789601455616,0.11908140688181845,-0.42706950484473927,0.918287937743191
1658789601471611,0.12091248950942202,-0.4240177004654,0.9124284733348595
1658789601487606,0.11944762340733917,-0.43170824750133496,0.9391622796978716
1658789601503601,0.11786068513008274,-0.4385442893110554,0.9425803006027316
1658789601519596,0.11578545815213204,-0.4332951857785914,0.9452658884565501
1658789601535591,0.1176165407797356,-0.43183031967650853,0.9502708476386665
1658789601551586,0.11529716945143775,-0.426581216144045,0.9409933623254751
1658789601567505,0.11444266422522276,-0.4247501335164414,0.9408712901503016
1658789601583499,0.11749446860456203,-0.4315861753261614,0.9435568780041201
1658789601599494,0.12176699473563701,-0.4365911345082778,0.9470969710841537
1658789601615488,0.12249942778667844,-0.4341496910048064,0.9500267032883194
1658789601631483,0.12030212863355416,-0.4245059891660943,0.932204165712978
1658789601647477,0.11627374685282632,-0.42963302052338426,0.9357442587930116
1658789601663472,0.11700617990386775,-0.4329289692530707,0.9383077744716566
1658789601679466,0.11444266422522276,-0.43134203097581425,0.945876249332418
1658789601695461,0.11602960250247918,-0.4260929274433507,0.9342793926909287
1658789601711455,0.11456473640039633,-0.42413977264057356,0.9087663080796524
1658789601727450,0.11407644769970204,-0.4215762569619286,0.8972915236133368
1658789601743445,0.11334401464866062,-0.42255283436331714,0.9087663080796524
1658789601759439,0.11981383993285988,-0.42133211261158143,0.9243915465018695
1658789601775434,0.1251850156404979,-0.43512626840619495,0.9348897535667966
1658789601791428,0.12652780956740717,-0.42743572137026,0.9271992065308616
1658789601807423,0.11651789120317346,-0.43512626840619495,0.9145037003128103
1658789601823417,0.11126878767070991,-0.43598077363240995,0.9163347829404138
1658789601839412,0.10968184939345349,-0.44037537193865894,0.9209735255970095
1658789601855406,0.11053635461966849,-0.4207217517357136,0.9202410925459681
1658789601871401,0.12176699473563701,-0.4164492256046386,0.9363546196688795
1658789601887359,0.123476005188067,-0.4281681544213014,0.944167238879988
1658789601903354,0.1276264591439693,-0.4332951857785914,0.9397726405737394
1658789601919348,0.12579537651636574,-0.4295109483482107,0.9218280308232245
1658789601935343,0.12103456168459559,-0.4348821240558478,0.9289082169832916
1658789601951337,0.11871519035629774,-0.43634699015793066,0.946730754558633
1658789601967332,0.11126878767070991,-0.4324406805523764,0.940749217975128
1658789601983327,0.11065842679484206,-0.4215762569619286,0.9369649805447473
1658789601999321,0.10955977721827992,-0.4207217517357136,0.9442893110551616
1658789602015316,0.11261158159761919,-0.42548256656748284,0.9359884031433587
1658789602031310,0.11895933470664488,-0.43134203097581425,0.9300068665598538
1658789602047305,0.11944762340733917,-0.4389105058365761,0.9291523613336388
1658789602063299,0.12005798428320702,-0.43341725795376496,0.9331807431143666
1658789602079294,0.12396429388876129,-0.4236514839398793,0.9423361562523844
1658789602095288,0.12201113908598415,-0.4286564431219957,0.9481956206607158
1658789602111283,0.11200122072175134,-0.4408636606393532,0.9340352483405816
1658789602127277,0.10516517891203137,-0.4286564431219957,0.9186541542687117
1658789602143272,0.10284580758373352,-0.4285343709468221,0.9242694743266959
1658789602159267,0.11065842679484206,-0.42121004043640786,0.9337911039902345
1658789602175261,0.11859311818112417,-0.42548256656748284,0.9468528267338066
1658789602191256,0.1272602426184486,-0.4286564431219957,0.9405050736247809
1658789602207153,0.12457465476462914,-0.4340276188296328,0.9130388342107274
1658789602223147,0.11895933470664488,-0.43512626840619495,0.9168230716411081
1658789602239141,0.11712825207904132,-0.43170824750133496,0.9315938048371102
1658789602255135,0.11212329289692491,-0.4276798657206071,0.9436789501792937
1658789602271129,0.11725032425421489,-0.4227969787136643,0.940749217975128
1658789602287123,0.11810482948042988,-0.4273136491950864,0.9317158770122838
1658789602303117,0.1184710460059506,-0.42218661783779643,0.9086442359044788
1658789602319111,0.12274357213702558,-0.4142519264515143,0.909742885481041
1658789602335106,0.11883726253147131,-0.43671320668345137,0.9301289387350273
1658789602351100,0.12079041733424845,-0.4358587014572364,0.9423361562523844
1658789602367094,0.12445258258945557,-0.4260929274433507,0.9446555275806823
1658789602383088,0.11749446860456203,-0.41718165865568,0.918287937743191
1658789602399082,0.11615167467765275,-0.41376363775082003,0.9209735255970095
1658789602415076,0.11029221026932134,-0.4389105058365761,0.9438010223544673
1658789602431070,0.12091248950942202,-0.42291905088883786,0.9453879606317237
1658789602447064,0.11688410772869418,-0.41840238040741573,0.9439230945296408
1658789602463058,0.11688410772869418,-0.41962310215915144,0.9331807431143666
1658789602479052,0.11798275730525631,-0.426581216144045,0.9270771343556881
1658789602495046,0.11236743724727205,-0.43817807278553467,0.939040207522698
1658789602511040,0.11663996337834703,-0.43048752574959925,0.9440451667048144
1658789602526977,0.12249942778667844,-0.4353704127565421,0.9505149919890137
1658789602542971,0.12164492256046344,-0.43866636148622895,0.9710231174181736
1658789602558965,0.11798275730525631,-0.44489204242008107,0.9505149919890137
1658789602574959,0.11541924162661132,-0.43817807278553467,0.941603723201343
1658789602590953,0.11322194247348705,-0.4384222171358818,0.9473411154345008
1658789602606948,0.11749446860456203,-0.4353704127565421,0.953566796368353
1658789602622942,0.12213321126115773,-0.43817807278553467,0.9560082398718244
1658789602638936,0.12262149996185201,-0.43378347447928567,0.9478294041351951
1658789602654930,0.12372014953841415,-0.4358587014572364,0.9578393224994279
1658789602670924,0.12164492256046344,-0.43903257801174966,0.9439230945296408
1658789602686918,0.11529716945143775,-0.4396429388876175,0.9440451667048144
1658789602702912,0.12201113908598415,-0.43549248493171566,0.949294270237278
1658789602718906,0.12091248950942202,-0.4365911345082778,0.9536888685435265
1658789602734900,0.12579537651636574,-0.42413977264057356,0.9494163424124515
1658789602750894,0.12359807736324058,-0.4295109483482107,0.9257343404287788
1658789602766888,0.124330510414282,-0.4380560006103611,0.9301289387350273
1658789602782882,0.12713817044327502,-0.4452582589456018,0.9428244449530787
1658789602798876,0.12823682001983716,-0.4306095979247728,0.9269550621805145
1658789602814870,0.1293354695963993,-0.41498435950255574,0.9136491950865953
1658789602830865,0.12787060349431645,-0.4064393072404058,0.8694590676737617
1658789602846832,0.1293354695963993,-0.37836270695048446,0.8393072404058897
1658789602862826,0.1423971923399714,-0.40570687418936435,0.8749523155565724
1658789602878820,0.15020981155107993,-0.4176699473563743,0.8842298008697647
1658789602894814,0.15313954375524563,-0.41620508125429145,0.8865491721980625
1658789602910808,0.15399404898146063,-0.4202334630350193,0.8899671931029225
1658789602926802,0.14752422369726137,-0.4373235675593192,0.8936293583581296
1658789602942796,0.14227512016479782,-0.4413519493400475,0.8909437705043111
1658789602958790,0.1401998931868471,-0.4425726710917832,0.9070572976272224
1658789602974784,0.13800259403372284,-0.4236514839398793,0.9142595559624631
1658789602990779,0.1381246662088964,-0.41168841077286933,0.916578927290761
1658789603006773,0.1419089036392771,-0.4131532768749522,0.9167009994659345
1658789603022767,0.13958953231097926,-0.4307316700999464,0.9180437933928438
1658789603038761,0.135683222705425,-0.4329289692530707,0.9281757839322502
1658789603054755,0.13788052185854927,-0.4370794232089721,0.944167238879988
1658789603070749,0.14215304798962425,-0.4444037537193868,0.9622339208056765
1658789603086743,0.14593728542000495,-0.45160601205462747,0.97944609750515
1658789603102737,0.14605935759517852,-0.4547798886091403,0.9773708705271993
1658789603118731,0.13385214007782142,-0.46186007476920743,0.9822537575341421
1658789603134725,0.12884718089570502,-0.457709620813306,0.9813992523079271
1658789603150719,0.12286564431219915,-0.4511177233539332,0.9848172732127871
1658789603166626,0.1205462729839013,-0.4404974441138325,0.9835965514610514
1658789603182619,0.13043411917296144,-0.43341725795376496,0.9839627679865721
1658789603198613,0.14044403753719426,-0.44672312504768463,0.9804226749065386
1658789603214606,0.14508278019378995,-0.4614938582436867,0.98970016021973
1658789603230600,0.1477683680476085,-0.47101548790722525,0.9889677271686885
1658789603246594,0.14471656366826924,-0.4757763027389945,0.9823758297093157
1658789603262587,0.1515526054779892,-0.4641794460975053,0.9944609750514992
1658789603278581,0.15045395590142707,-0.46002899214160387,0.9771267261768521
1658789603294574,0.14728007934691423,-0.44660105287251106,0.9916533150225071
1658789603310568,0.15948729686427132,-0.4549019607843139,1.0058136873426413
1658789603326562,0.17035172045471914,-0.4776073853665981,1.0342565041580833
1658789603342555,0.1734035248340584,-0.4729686427100024,1.035233081559472
1658789603358549,0.16437018387121416,-0.4719920653086138,1.0056916151674677
1658789603374542,0.1541161211566342,-0.48200198367284663,1.0231479362172884
1658789603390536,0.1499656672007328,-0.4807812619211109,1.0307164110780498
1658789603406530,0.14557106889448423,-0.4686961165789274,1.0108186465247577
1658789603422523,0.15045395590142707,-0.4497749294270239,0.9824979018844893
1658789603438517,0.16180666819256917,-0.45624475471122317,0.9789578088044557
1658789603454510,0.18426794842450622,-0.4484321355001146,0.9702906843671322
1658789603470504,0.20978103303578255,-0.44623483634699035,0.9558861676966508
1658789603486480,0.2225986114290075,-0.4238956282902264,0.9533226520180058
1658789603502474,0.2196688792248418,-0.4335393301289385,0.9323262378881516
1658789603518468,0.22784771496147105,-0.42218661783779643,0.9239032578011752
1658789603534461,0.23150988021667818,-0.4332951857785914,0.9331807431143666
1658789603550455,0.2418860151064317,-0.4253604943923093,0.9409933623254751
1658789603566448,0.24469367513542384,-0.43549248493171566,0.9309834439612423
1658789603582442,0.24493781948577098,-0.44879835202563534,0.932204165712978
1658789603598436,0.2728923476005187,-0.46002899214160387,0.9403830014496073
1658789603614429,0.2692301823453116,-0.5005569542992294,0.9557640955214772
1658789603630423,0.2728923476005187,-0.4874952315556573,0.9593041886015108
1658789603646416,0.2755779354543373,-0.4724803540093081,0.9406271457999544
1658789603662410,0.2818036163881894,-0.4711375600823988,0.939894712748913
1658789603678403,0.2907148851758601,-0.48151369497215235,0.9248798352025638
1658789603694397,0.30719462882429216,-0.4556343938353553,0.9002212558175025
1658789603710391,0.3250171663996335,-0.45917448691538887,0.8942397192339975
1658789603726384,0.3380788891432056,-0.4694285496299688,0.9125505455100331
1658789603742378,0.3423514152742806,-0.46637674525062955,0.8997329671168082
1658789603758371,0.35004196231021556,-0.4694285496299688,0.8783703364614333
1658789603774365,0.34930952925917413,-0.49835965514610514,0.8927748531319146
1658789603790359,0.35602349889372054,-0.5133745326924544,0.9043717097734039
1658789603806335,0.3570000762951091,-0.5060502021820401,0.8760509651331354
1658789603822329,0.37482261387045046,-0.4741893644617381,0.8587167162584874
1658789603838322,0.3921568627450984,-0.46845197222858026,0.8351567864499883
1658789603854316,0.41559472037842404,-0.47858396276798665,0.8202639810788126
1658789603870309,0.4346379797055011,-0.46979476615548954,0.8246585793850612
1658789603886303,0.4507515068284125,-0.4640573739223317,0.833813992523079
1658789603902297,0.44208438239108894,-0.46857404440375383,0.8013427939269091
1658789603918290,0.4564888990615703,-0.459418631265736,0.7551995117112993
1658789603934284,0.46478980697337313,-0.4854200045777066,0.746166170748455
1658789603950277,0.49542992294193944,-0.4783398184176395,0.7996337834744791
1658789603966271,0.498115510795758,-0.48065918974593735,0.7918211642633706
1658789603982265,0.506660563057908,-0.4396429388876175,0.7455558098725872
1658789603998258,0.520576791027695,-0.45831998168917387,0.7553215838864729
1658789604014252,0.510078583962768,-0.4854200045777066,0.7997558556496527
1658789604030245,0.49201190203707945,-0.4892042420080873,0.794262607766842
1658789604046239,0.5033646143282215,-0.43305104142824424,0.7394522011139086
1658789604062233,0.5253376058594643,-0.4135194934004729,0.7152819104295416
1658789604078226,0.5423056382085907,-0.4341496910048064,0.7240711070420387
1658789604094220,0.5849088273441669,-0.4173037308308536,0.7289539940489815
1658789604110213,0.5987029831387805,-0.43866636148622895,0.7550774395361257
1658789604126129,0.6140840772106504,-0.4612497138933396,0.7459220263981079
1658789604142122,0.6304417486839098,-0.4589303425650417,0.6900129701686124
1658789604158115,0.6281223773556119,-0.4737010757610438,0.7012436102845809
1658789604174108,0.6311741817349512,-0.47443350881208524,0.7012436102845809
1658789604190101,0.6380102235446712,-0.47565423056382095,0.6751201647974368
1658789604206094,0.6289768825818269,-0.46979476615548954,0.6646219577325096
1658789604222087,0.6305638208590834,-0.43915465018692323,0.6563210498207068
1658789604238081,0.6544899671931033,-0.42999923704890497,0.6305638208590834
1658789604254074,0.6674296177615018,-0.43903257801174966,0.6234836346990154
1658789604270067,0.6891584649423974,-0.39777218280308224,0.5951628900587469
1658789604286060,0.697825589379721,-0.3982604715037765,0.5869840543221176
1658789604302053,0.695262073701076,-0.390447852292668,0.5600061036087585
1658789604318046,0.721141374837873,-0.40863660639353006,0.5217975127794308
1658789604334039,0.7298084992751965,-0.45038529030289176,0.544502937361715
1658789604350032,0.7549553673609521,-0.44159609369039465,0.5589074540321963
1658789604366026,0.75214770733196,-0.4369573510337985,0.5232623788815136
1658789604382019,0.742748149843595,-0.41962310215915144,0.467109178301671
1658789604398012,0.7516594186312657,-0.3894712748912794,0.4146181429770355
1658789604414005,0.7553215838864729,-0.36249332417792024,0.40509651331349694
1658789604429998,0.7739986266880292,-0.3618829633020524,0.43524834058136896
1658789604445953,0.801098649576562,-0.34772259098191816,0.3976501106279091
1658789604461946,0.8076905470359348,-0.3458915083543146,0.36481269550621764
1658789604477939,0.7949950408178834,-0.34857709620813315,0.30341039139391146
1658789604493932,0.7739986266880292,-0.3176928358892197,0.269108110170138
1658789604509925,0.7947508964675363,-0.3098802166781107,0.2957198443579765
1658789604525919,0.8328374151216904,-0.33649195086594963,0.32440680552376566
1658789604541912,0.8526131074998089,-0.35065232318608386,0.3239185168230714
1658789604557905,0.8513923857480732,-0.30548561837186217,0.22320897230487535
1658789604573898,0.8487067978942546,-0.2477454795147631,0.15399404898146063
1658789604589891,0.8463874265659568,-0.2670328831921873,0.20758373388265827
1658789604605884,0.8603036545357439,-0.26984054322117945,0.25128557259479667
1658789604621877,0.8738536659800102,-0.23492790112153816,0.20355535210193043
1658789604637870,0.8738536659800102,-0.2439612420843824,0.12860303654535787
1658789604653864,0.867383840695811,-0.2394445716029603,0.09515526054779855
1658789604669857,0.8737315938048367,-0.2506752117189288,0.11578545815213204
1658789604685850,0.8893568322270546,-0.23578240634775316,0.10455481803616351
1658789604701843,0.9019302662699324,-0.239810788128481,0.14935530632486493
1658789604717836,0.8920424200808732,-0.2503089951934081,0.12335393301289344
1658789604733829,0.8975356679636839,-0.20318913557640972,0.018371862363622427
1658789604749822,0.9035172045471889,-0.21356527046616325,0.03302052338445094
1658789604765777,0.8993667505912875,-0.24249637598229956,0.08258182650492074
1658789604781770,0.9093766689555203,-0.2208896009765775,0.0575570305943387
1658789604797763,0.9301289387350273,-0.19244678416113548,0.015320057984283153
1658789604813757,0.951003280689708,-0.20880445563439398,0.017883573662928143
1658789604829750,0.9431906614785994,-0.25397116044861523,0.05999847409781012
1658789604845743,0.9464866102082858,-0.24518196383611812,0.06146334019989297
1658789604861736,0.931349660486763,-0.23212024109254603,0.019836728465705278
1658789604877729,0.9051041428244453,-0.2537270160982681,-0.028137636377508102
1658789604893722,0.8925307087815675,-0.2561684596017395,-0.013977264057373873
1658789604909715,0.9033951323720153,-0.23553826199740602,-0.009460593575951748
1658789604925708,0.9369649805447473,-0.21222247653925397,-0.007385366598001042
1658789604941702,0.9455100328068973,-0.2532387273975738,-0.03411917296101308
1658789604957695,0.9480735484855423,-0.22662699320973534,-0.07391470206759765
1658789604973688,0.9417257953765166,-0.2124666208896011,-0.07977416647592905
1658789604989681,0.9503929198138401,-0.2229648279545282,-0.06878767071030767
1658789605005674,0.9713893339436943,-0.23639276722362101,-0.03204394598306237
1658789605021667,0.9711451895933472,-0.2562905317769131,0.001037613488975353
1658789605037660,0.9562523842221715,-0.2523842221713588,-0.031311512932020946
1658789605053653,0.9362325474937059,-0.20062561989776473,-0.11004806591897465
1658789605069646,0.9214618142977038,-0.21136797131303897,-0.10370031280994896
1658789605085601,0.918287937743191,-0.22748149843595034,-0.08221560997940047
1658789605101594,0.9380636301213094,-0.1998931868467233,-0.0745250629434655
1658789605117587,0.9605249103532465,-0.18146028839551365,-0.08270389868009476
1658789605133579,0.9540550850690472,-0.18805218585488692,-0.10711833371480894
1658789605149572,0.9280537117570766,-0.2146639200427254,-0.1257953765163653
1658789605165565,0.9201190203707945,-0.20270084687571543,-0.1400778210116731
1658789605181557,0.9300068665598538,-0.22125581750209822,-0.08648813611047546
1658789605197550,0.9335469596398873,-0.2330968184939346,-0.07354848554207694
1658789605213543,0.9502708476386665,-0.2007476920729383,-0.10504310673685824
1658789605229535,0.9485618371862365,-0.19208056763561476,-0.14056610971236738
1658789605245528,0.9231708247501338,-0.18109407186999293,-0.20135805294880615
1658789605261520,0.9098649576562146,-0.1610742351415273,-0.1931792172121769
1658789605277513,0.9379415579461359,-0.17352559700923154,-0.1350728618295567
1658789605293506,0.9369649805447473,-0.20929274433508827,-0.10809491111619751
1658789605309498,0.951003280689708,-0.1870756084534979,-0.13995574883649953
1658789605325491,0.9395284962233923,-0.16632333867399085,-0.21930266269932108
1658789605341484,0.9163347829404138,-0.1911039902342262,-0.22320897230487535
1658789605357476,0.9015640497444117,-0.20611886778057542,-0.2003814755474176
1658789605373469,0.8913099870298318,-0.1981841763942933,-0.22308690012970178
1658789605389462,0.9102311741817353,-0.16803234912642084,-0.2553139543755245
1658789605405426,0.9188982986190588,-0.14923323414969092,-0.27875181200885013
1658789605421418,0.9263447013046466,-0.16839856565194156,-0.272526131074998
1658789605437411,0.919142442969406,-0.20257877470054186,-0.2427405203326467
1658789605453404,0.9247577630273902,-0.20465400167849257,-0.23920042725261315
1658789605469396,0.9220721751735717,-0.21661707484550252,-0.26068513008316163
1658789605485389,0.9179217212176702,-0.19501029983978047,-0.31183337148088786
1658789605501381,0.8958266575112539,-0.1782864118410008,-0.34528114747844674
1658789605517374,0.8874036774242775,-0.14532692454413665,-0.34723430228122387
1658789605533367,0.8980239566643782,-0.1345845731288624,-0.30548561837186217
1658789605549359,0.893507286182956,-0.16461432822156086,-0.2953536278324558
1658789605565352,0.8980239566643782,-0.15374990463111304,-0.31708247501335185
1658789605581345,0.8861829556725418,-0.16681162737468513,-0.33295185778591607
1658789605597337,0.8855725947966739,-0.1543602655069809,-0.35370412756542313
1658789605613330,0.8936293583581296,-0.1505760280766002,-0.3832455939574273
1658789605629323,0.8921644922560468,-0.1497215228503852,-0.37885099565117875
1658789605645315,0.8877698939497982,-0.14398413061722737,-0.3997253376058594
1658789605661308,0.8939955748836503,-0.11749446860456247,-0.38043793392843517
1658789605677301,0.8930189974822618,-0.1001602197299154,-0.3953307392996108
1658789605693293,0.8864271000228889,-0.10028229190508897,-0.4494087129015032
1658789605709286,0.8814221408407725,-0.12530708781567101,-0.49152361333638517
1658789605725250,0.8925307087815675,-0.12140077821011674,-0.5249713893339436
1658789605741243,0.9077897306782639,-0.1211566338597696,-0.5087357900358587
1658789605757235,0.8999771114671553,-0.1485008010986495,-0.4893263141832609
1658789605773228,0.9021744106202796,-0.126161593041886,-0.5048294804303044
1658789605789220,0.8911879148546582,-0.12262149996185245,-0.5349813076981764
1658789605805213,0.8749523155565724,-0.14618142977035165,-0.5364461738002593
1658789605821206,0.8695811398489353,-0.1607080186160066,-0.546211947814145
1658789605837198,0.8692149233234145,-0.17804226749065366,-0.5335164415960936
1658789605853191,0.8820325017166404,-0.15545891508354304,-0.5344930189974821
1658789605869184,0.880445563439384,-0.16083009079118016,-0.5423056382085907
1658789605885176,0.8695811398489353,-0.1505760280766002,-0.5405966277561607
1658789605901169,0.8599374380102232,-0.16583504997329657,-0.5191119249256122
1658789605917162,0.8719005111772331,-0.1598535133897916,-0.5116655222400244
1658789605933154,0.8668955519951167,-0.16437018387121372,-0.492133974212253
1658789605949147,0.8627450980392153,-0.1799954222934308,-0.4833447775997559
1658789605965139,0.863965819790951,-0.1727931639581901,-0.46686503395132384
1658789605981132,0.8769054703593504,-0.1555809872587166,-0.4614938582436867
1658789605997125,0.8964370183871218,-0.18646524757763006,-0.41742580300602716
1658789606013117,0.9005874723430232,-0.17755397878995938,-0.39691767757686724
1658789606029110,0.8990005340657667,-0.16620126649881728,-0.3892271305409323
1658789606045105,0.900343327992676,-0.1669336995498587,-0.37299153124284734
1658789606061097,0.8991226062409403,-0.1694972152285037,-0.35028610666056315
1658789606077090,0.8944838635843446,-0.16327153429465158,-0.3386892500190739
1658789606093083,0.8927748531319146,-0.17389181353475225,-0.30353246356908503
1658789606109075,0.8896009765774018,-0.16156252384222158,-0.2918135347524222
1658789606125068,0.8905775539787903,-0.15594720378423732,-0.2860761425192644
1658789606141060,0.8972915236133368,-0.17108415350576012,-0.27313649195086587
1658789606157053,0.9104753185320824,-0.17865262836652152,-0.2558022430762188
1658789606173046,0.9237811856260016,-0.16668955519951156,-0.2650797283894102
1658789606189038,0.928786144808118,-0.1770656900892651,-0.26483558403906304
1658789606205031,0.932204165712978,-0.19415579461356547,-0.24493781948577098
1658789606221024,0.9333028152895402,-0.19916075379568188,-0.23822384985122458
1658789606237016,0.9359884031433587,-0.19073777370870548,-0.21637293049515538
1658789606253009,0.9361104753185323,-0.16534676127260228,-0.22504005493247892
1658789606269002,0.9318379491874573,-0.16241702906843658,-0.20257877470054186
1658789606284994,0.9292744335088123,-0.18426794842450578,-0.16498054474708157
1658789606300987,0.9318379491874573,-0.1876859693293662,-0.16205081254291587
1658789606316980,0.9336690318150609,-0.17352559700923154,-0.17596704051270295
1658789606332972,0.9319600213626309,-0.16827649347676799,-0.1719386587319751
1658789606348965,0.9286640726329445,-0.16534676127260228,-0.14056610971236738
1658789606364898,0.9301289387350273,-0.20123598077363258,-0.10150301365682468
1658789606380891,0.9365987640192266,-0.19830624856946688,-0.0980849927519647
1658789606396884,0.9452658884565501,-0.18988326848249049,-0.10260166323338682
1658789606412876,0.935622186617838,-0.20904859998474112,-0.11883726253147175
1658789606428869,0.9430685893034259,-0.18988326848249049,-0.11554131380178534
1658789606444862,0.9479514763103687,-0.20123598077363258,-0.07550164034485407
1658789606460854,0.953566796368353,-0.205386434729534,-0.0678110933089191
1658789606476847,0.9650415808346686,-0.18609903105210934,-0.08490119783321903
1658789606492839,0.9497825589379723,-0.19000534065766406,-0.11407644769970249
1658789606508832,0.9413595788509959,-0.17865262836652152,-0.1060196841382468
1658789606524825,0.940749217975128,-0.1928130006866562,-0.094300755321584
1658789606540817,0.9524681467917908,-0.1837796597238115,-0.09674219882505541
1658789606556810,0.9434348058289466,-0.1943999389639126,-0.091737239642939
1658789606572803,0.9365987640192266,-0.1854886701762415,-0.09820706492713827
1658789606588795,0.9335469596398873,-0.20770580605783184,-0.07489127946898622
1658789606604788,0.9355001144426645,-0.23736934462500958,-0.06610208285648911
1658789606620781,0.9419699397268637,-0.2280918593118182,-0.0875867856870376
1658789606636773,0.9508812085145344,-0.22015716792553608,-0.09735255970092327
1658789606652766,0.9626001373311972,-0.2129549095902954,-0.07977416647592905
1658789606668758,0.9599145494773786,-0.2418860151064317,-0.040222781719691625
1658789606684723,0.9628442816815443,-0.24725719081406883,-0.05169756618600729
1658789606700715,0.9590600442511636,-0.239810788128481,-0.07171740291447337
1658789606716707,0.9591821164263372,-0.24921034561684596,-0.039002059967955915
1658789606732699,0.9483176928358894,-0.2625162127107652,0.002990768291752488
1658789606748691,0.9481956206607158,-0.2630045014114595,0.015197985809109582
1658789606764683,0.946730754558633,-0.2692301823453116,0.014587624933241727
1658789606780676,0.9353780422674909,-0.2848554207675287,0.018493934538795997
1658789606796668,0.9380636301213094,-0.2695963988708323,0.024597543297474544
1658789606812660,0.9369649805447473,-0.26556801709010447,0.04205386434729519
1658789606828652,0.931349660486763,-0.28412298771648725,0.05023270008392444
1658789606844644,0.9315938048371102,-0.28033875028610655,0.040344853894865196
1658789606860636,0.9323262378881516,-0.2843671320668344,0.02911421377889667
1658789606876629,0.9401388570992602,-0.3010910200656136,0.06146334019989297
1658789606892621,0.9350118257419702,-0.31366445410849186,0.08368047608148288
1658789606908613,0.945876249332418,-0.31061264972915215,0.06659037155718295
1658789606924605,0.9574731059739072,-0.30267795834287003,0.06329442282749653
1658789606940597,0.9540550850690472,-0.30548561837186217,0.058289463645380124
1658789606956589,0.9491721980621044,-0.2869306477454794,0.0575570305943387
1658789606972581,0.9427023727779051,-0.2746013580529487,0.07135118638895221
1658789606988574,0.9387960631723509,-0.277653162432288,0.06964217593652222
1658789607004547,0.9341573205157552,-0.2881513694972151,0.062439917601281536
1658789607020539,0.9234149691004809,-0.29498741130693507,0.05645838101777656
1658789607036531,0.9270771343556881,-0.29510948348210864,0.09259174486915356
1658789607052523,0.9253681239032581,-0.2995040817883572,0.11041428244449492
1658789607068515,0.9240253299763488,-0.3012130922407872,0.11712825207904132
1658789607084508,0.9284199282825973,-0.30926985580224287,0.10357824063477494
1658789607100500,0.9278095674067295,-0.30926985580224287,0.10235751888303923
1658789607116492,0.932204165712978,-0.29291218432898436,0.11822690165560346
1658789607132484,0.932204165712978,-0.2976729991607536,0.14422827496757495
1658789607148476,0.9331807431143666,-0.29510948348210864,0.11993591210803345
1658789607164468,0.928786144808118,-0.2944991226062408,0.11627374685282632
1658789607180461,0.9231708247501338,-0.2926680399786372,0.14142061493858282
1658789607196453,0.9149919890135045,-0.30646219577325073,0.168398565651942
1658789607212445,0.9152361333638517,-0.30267795834287003,0.16119630731670131
1658789607228437,0.9153582055390252,-0.3135423819333183,0.1663233386739913
1658789607244429,0.9120622568093388,-0.29669642175936506,0.1587548638132299
1658789607260421,0.9077897306782639,-0.28961623559929794,0.17486839093614126
1658789607276414,0.8972915236133368,-0.30890363927672215,0.1981841763942933
1658789607292406,0.9040054932478832,-0.29169146257724865,0.1911039902342262
1658789607308398,0.9124284733348595,-0.28790722514686795,0.18841840238040763
1658789607324371,0.9051041428244453,-0.2926680399786372,0.19305714503700333
1658789607340363,0.8979018844892046,-0.2842450598916608,0.20648508430609613
1658789607356355,0.8917982757305261,-0.29633020523384435,0.24493781948577098
1658789607372347,0.8880140383001454,-0.32635996032654324,0.2448157473105974
1658789607388340,0.8898451209277489,-0.31842526894026113,0.24042114900434886
1658789607404332,0.882154573891814,-0.3067063401235979,0.2653238727397573
1658789607420324,0.8711680781261917,-0.3230640115968568,0.2898603799496451
1658789607436316,0.8710460059510181,-0.3285572594796675,0.2881513694972151
1658789607452308,0.8681162737468524,-0.2998702983138779,0.27277027542534515
1658789607468300,0.8635996032654303,-0.3091477836270693,0.31854734111543426
1658789607484293,0.8483405813687339,-0.3320973525597011,0.3389333943694206
1658789607500285,0.8466315709163039,-0.35785458152132454,0.3339284351873042
1658789607516277,0.8444342717631796,-0.34772259098191816,0.3306324864576178
1658789607532269,0.8440680552376589,-0.3454032196536203,0.3649347676813912
1658789607548261,0.8314946211947811,-0.3606622415503167,0.40119020370794267
1658789607564253,0.835523002975509,-0.355168993667506,0.40631723506523265
1658789607580246,0.8364995803768975,-0.3571221484702831,0.3917906462195777
1658789607596238,0.8327153429465168,-0.3214770733196004,0.36176089112687837
1658789607612230,0.8213626306553747,-0.3361257343404289,0.4182803082322426
1658789607628222,0.7996337834744791,-0.3736018921187152,0.47064927138170454
1658789607644195,0.7973144121461813,-0.3593194476234074,0.45294880598153675
1658789607660187,0.8047608148317691,-0.3504081788357367,0.43781185626001395
1658789607676180,0.7909666590371556,-0.36029602502479596,0.4455024032959489
1658789607692172,0.778881513694972,-0.3722590981918059,0.5009231708247501
1658789607708164,0.7710688944838635,-0.4005798428320744,0.5302204928664072
1658789607724156,0.7749752040894178,-0.39227893492027155,0.5253376058594643
1658789607740148,0.7785152971694513,-0.3782406347753109,0.4993362325474937
1658789607756140,0.7600823987182421,-0.3945983062485694,0.5242389562829022
1658789607772132,0.7465323872739758,-0.4122987716487372,0.5506065461203935
1658789607788125,0.74531166552224,-0.40912489509422434,0.5658655680170899
1658789607804117,0.75043869687953,-0.40912489509422434,0.5633020523384449
1658789607820109,0.7451895933470665,-0.4026550698100251,0.5391317616540778
1658789607836101,0.7400625619897765,-0.38556496528572515,0.5739223315785456
1658789607852093,0.7282215609979401,-0.4185244525825893,0.5883268482490269
1658789607868085,0.7256580453192951,-0.4207217517357136,0.6062714579995419
1658789607884078,0.7285877775234608,-0.4374456397344928,0.6193331807431139
1658789607900070,0.7182116426337073,-0.43561455710688923,0.6134737163347825
1658789607916062,0.7085679407949952,-0.43097581445029354,0.6365453574425883
1658789607932054,0.7049057755397881,-0.45087357900358604,0.6765850308995196
1658789607948046,0.7132066834515909,-0.44452582589456036,0.6945296406500345
1658789607964019,0.7166247043564509,-0.4240177004654,0.6765850308995196
1658789607980012,0.6999008163576717,-0.42133211261158143,0.6610818646524761
1658789607996004,0.6843976501106281,-0.4446478980697339,0.6964827954528117
1658789608011996,0.6813458457312889,-0.45380331120775175,0.682444495307851
1658789608027988,0.6823224231326774,-0.4435492484931718,0.6707255664911882
1658789608043980,0.6763408865491725,-0.43561455710688923,0.6478980697337304
1658789608059972,0.6623025864042118,-0.44330510414282465,0.6896467536430917
1658789608075965,0.6624246585793854,-0.44293888761730393,0.7097886625467309
1658789608091957,0.6675516899366754,-0.43341725795376496,0.7016098268101016
1658789608107949,0.6701152056153203,-0.4281681544213014,0.6688944838635846
1658789608123941,0.6642557412069889,-0.43634699015793066,0.6812237735561153
1658789608139933,0.6516823071641111,-0.44782177462424677,0.7234607461661708
1658789608155925,0.6524147402151526,-0.4063172350652322,0.7022201876859695
1658789608171918,0.654001678492409,-0.4097352559700922,0.6977035172045474
1658789608187910,0.6443579766536969,-0.4164492256046386,0.6835431448844131
1658789608203902,0.6305638208590834,-0.4042420080872815,0.694407568474861
1658789608219894,0.6282444495307855,-0.40521858548867007,0.7089341573205159
1658789608235886,0.6320286869611662,-0.4293888761730371,0.7068589303425652
1658789608251878,0.6482642862592511,-0.4186465247577629,0.6999008163576717
1658789608267871,0.6455786984054326,-0.40790417334248863,0.7047837033646145
1658789608283844,0.6262912947280084,-0.40656137941557935,0.718577859159228
1658789608299836,0.6267795834287027,-0.3991149767299915,0.7155260547798887
1658789608315828,0.6271457999542234,-0.389593347066453,0.7047837033646145
1658789608331820,0.6297093156328684,-0.37164873731593806,0.6851300831616696
1658789608347812,0.6277561608300912,-0.3689631494621195,0.7102769512474252
1658789608363804,0.6118867780575261,-0.38092622262912945,0.7182116426337073
1658789608379797,0.6070038910505833,-0.3731136034180209,0.7205310139620051
1658789608395789,0.6083466849774926,-0.39142442969405655,0.7350576028076601
1658789608411781,0.6006561379415576,-0.3949645227740901,0.7324940871290151
1658789608427773,0.5999237048905162,-0.37750820172426947,0.7107652399481195
1658789608443765,0.5951628900587469,-0.37384603646906234,0.7195544365606166
1658789608459757,0.5973601892118712,-0.3579766536964981,0.706614785992218
1658789608475750,0.597970550087739,-0.37262531471732663,0.7001449607080188
1658789608491742,0.5966277561608297,-0.38056000610360874,0.6999008163576717
1658789608507734,0.6011444266422519,-0.36578927290760666,0.7101548790722516
1658789608523726,0.5994354161898219,-0.380193789578088,0.7505607690547036
1658789608539718,0.5886930647745476,-0.387884336614023,0.7505607690547036
1658789608555710,0.5939421683070112,-0.3789730678263523,0.7251697566186008
1658789608571703,0.5800259403372241,-0.4033875028610665,0.7342030975814451
1658789608587695,0.5692835889219499,-0.39264515144579226,0.7407949950408179
1658789608603668,0.5529259174486914,-0.40143434805828937,0.7704585336079957
1658789608619660,0.546211947814145,-0.3991149767299915,0.7763179980163271
1658789608635652,0.5495078965438314,-0.40314335851071936,0.763256275272755
1658789608651644,0.5515831235217821,-0.3915465018692301,0.7551995117112993
1658789608667636,0.5420614938582435,-0.38043793392843517,0.7582513160906386
1658789608683629,0.5335164415960936,-0.40326543068589293,0.7739986266880292
1658789608699621,0.5352254520485236,-0.4126649881742579,0.7670405127031357
1658789608715613,0.5348592355230029,-0.4173037308308536,0.7664301518272678
1658789608731605,0.5311970702677957,-0.41071183337148076,0.7724116884107728
1658789608747597,0.5250934615091172,-0.4190127412832836,0.7746089875638971
1658789608763589,0.5206988632028686,-0.41620508125429145,0.7741206988632028
1658789608779582,0.5233844510566872,-0.40827038986800934,0.7587396047913328
1658789608795574,0.5186236362249179,-0.4080262455176622,0.7667963683527885
1658789608811566,0.5034866865033951,-0.41168841077286933,0.7636224917982757
1658789608827558,0.4927443350881209,-0.39765011062790867,0.7617914091706721
1658789608843550,0.4833447775997559,-0.3928892957961394,0.7667963683527885
1658789608859542,0.4809033340962845,-0.3996032654306858,0.7792477302204928
1658789608875535,0.47772945754177165,-0.40448615243762864,0.7844968337529563
1658789608891527,0.4683299000534067,-0.40827038986800934,0.7854734111543449
1658789608907519,0.47150377660791953,-0.4147402151522086,0.7860837720302127
1658789608923492,0.4733348592355231,-0.41535057602807646,0.7837644007019149
1658789608939484,0.47138170443274596,-0.4168154421301593,0.7879148546578163
1658789608955476,0.46759746700236526,-0.4148622873273822,0.803662165255207
1658789608971469,0.4509956511787596,-0.4210879682612343,0.825268940260929
1658789608987461,0.43781185626001395,-0.426581216144045,0.8454108491645682
1658789609003453,0.43366140230411254,-0.40619516289005864,0.820996414129854
1658789609019445,0.43195239185168255,-0.40363164721141365,0.8107423514152741
1658789609035437,0.43439383535515397,-0.39899290455481795,0.8223392080567633
1658789609051429,0.42304112306401187,-0.39765011062790867,0.8516365300984203
1658789609067422,0.4148622873273826,-0.40314335851071936,0.8740978103303574
1658789609083414,0.40595101853971194,-0.39899290455481795,0.8408941786831461
1658789609099406,0.4099794003204398,-0.4126649881742579,0.8375982299534597
1658789609115398,0.4081483176928362,-0.4210879682612343,0.8531013962005032
1658789609131390,0.3947203784237434,-0.421454184786755,0.8670176241702903
1658789609147382,0.3881284809643706,-0.4176699473563743,0.862256809338521
1658789609163375,0.38019378957808847,-0.41583886472877074,0.8501716639963375
1658789609179367,0.3733577477683676,-0.40033569848172723,0.8310063324940868
1658789609195359,0.3562676432440677,-0.39948119325551223,0.8479743648432132
1658789609211351,0.3432059205004956,-0.40949111161974505,0.8721446555275802
1658789609227343,0.33746852826733775,-0.4071717402914472,0.8759288929579618
1658789609243347,0.3435721370260163,-0.3950865949492637,0.8572518501564046
1658789609259339,0.346501869230182,-0.39569695582513154,0.8522468909742882
1658789609275331,0.34076447699702417,-0.392156862745098,0.8660410467689017
1658789609291323,0.32733653772793136,-0.39093614099336227,0.8897230487525754
1658789609307315,0.3165941863126571,-0.4126649881742579,0.9241474021515224
1658789609323308,0.31989013504234354,-0.4335393301289385,0.9092545967803467
1658789609339300,0.3134203097581443,-0.4131532768749522,0.8440680552376589
1658789609355292,0.31305409323262356,-0.3920347905699244,0.8889906157015339
1658789609371284,0.3019455252918286,-0.4072938124666208,0.9497825589379723
1658789609387276,0.30011444266422505,-0.40521858548867007,0.9488059815365837
1658789609403268,0.2976729991607536,-0.41290913252460504,0.9239032578011752
1658789609419261,0.2960860608834972,-0.4227969787136643,0.9234149691004809
1658789609435253,0.28790722514686795,-0.4133974212252993,0.9556420233463037
1658789609451245,0.2755779354543373,-0.391302357518883,0.9563744563973451
1658789609467237,0.2653238727397573,-0.4152285038529029,0.9759060044251164
1658789609483229,0.2678873884184023,-0.4252384222171357,0.9790798809796293
1658789609499221,0.27032883192187374,-0.44074158846417966,0.9856717784390021
1658789609515214,0.275089646753643,-0.45160601205462747,1.034378576333257
1658789609531206,0.27704280155642014,-0.4566109712367439,1.0424353398947126
1658789609547198,0.276798657206073,-0.4884718089570459,1.0506141756313419
1658789609563171,0.2714274814984359,-0.5071488517586022,1.0657511253528646
1658789609579163,0.26190585183489734,-0.495551995117113,1.0891889829861903
1658789609595154,0.2582436865796902,-0.5077592126344701,1.1217822537575337
1658789609611146,0.26434729533836876,-0.5233844510566872,1.105790798809796
1658789609627138,0.27655451285572585,-0.5235065232318608,1.0644083314259554
1658789609643129,0.28619821469443796,-0.5181353475242236,1.0846723125047681
1658789609659121,0.28790722514686795,-0.5001907377737087,1.0854047455558096
1658789609675113,0.2705729762722209,-0.5033646143282215,1.0791790646219575
1658789609691105,0.26312657358663305,-0.5054398413061723,1.0501258869306476
1658789609707096,0.2676432440680552,-0.49958037689784085,1.020706492713817
1658789609723088,0.27484550240329586,-0.49042496375982303,1.022415503166247
1658789609739080,0.2772869459067673,-0.501533531700618,1.0196078431372548
1658789609755071,0.28961623559929794,-0.5181353475242236,1.005325398641947
1658789609771063,0.3028000305180436,-0.5206988632028686,1.0176546883344777
1658789609787055,0.3053635461966886,-0.4909132524605173,0.9934843976501107
1658789609803046,0.30841535057602787,-0.4716258487830931,0.9833524071107043
1658789609819038,0.31219958800640857,-0.4740672922865645,0.9545433737697415
1658789609835030,0.31110093842984643,-0.4716258487830931,0.9532005798428322
1658789609851021,0.33112077515831206,-0.46015106431677744,0.9513694972152287
1658789609867013,0.33539330128938705,-0.45831998168917387,0.951003280689708
1658789609882995,0.34918745708400056,-0.4501411459525446,0.9519798580910965
1658789609898987,0.348210879682612,-0.46564431219958813,0.9232928969253074
1658789609914979,0.3629816128786141,-0.46637674525062955,0.9024185549706267
1658789609930970,0.37323567559319404,-0.46967269398031597,0.9086442359044788
1658789609946962,0.390569924467842,-0.44757763027389963,0.9074235141527431
1658789609962954,0.3964293888761734,-0.4380560006103611,0.910597390707256
1658789609978945,0.3997253376058598,-0.4431830319676511,0.8849622339208061
1658789609994937,0.4065613794155798,-0.46210421911955457,0.8727550164034481
1658789610010929,0.4203555352101933,-0.4507515068284125,0.8806897077897311
1658789610026920,0.4299992370489054,-0.4238956282902264,0.8617685206378267
1658789610042912,0.4469672693980318,-0.4302433813992521,0.8628671702143889
1658789610058904,0.4616159304188603,-0.42255283436331714,0.8274662394140533
1658789610074895,0.4738231479362174,-0.41535057602807646,0.8083009079118026
1658789610090887,0.4738231479362174,-0.42121004043640786,0.7997558556496527
1658789610106879,0.4862745098039216,-0.4181582360570686,0.7849851224536506
1658789610122871,0.4950637064164187,-0.4331731136034178,0.7721675440604256
1658789610138862,0.5211871519035629,-0.4379339284351875,0.7945067521171891
1658789610154854,0.5381551842526893,-0.42084382391088715,0.7785152971694513
1658789610170846,0.5530479896238649,-0.37372396429388877,0.7263904783703365
1658789610186837,0.5536583504997328,-0.3677424277103838,0.6879377431906617
1658789610202789,0.5639124132143127,-0.4080262455176622,0.7291981383993287
1658789610218781,0.5694056610971234,-0.41828030823224216,0.7179674982833602
1658789610234772,0.593698023956664,-0.4018005645838101,0.7260242618448158
1658789610250764,0.6006561379415576,-0.4064393072404058,0.7005111772335395
1658789610266756,0.6154268711375597,-0.40863660639353006,0.6587624933241782
1658789610282747,0.6121309224078733,-0.4025329976348515,0.6448462653543912
1658789610298739,0.6231174181734946,-0.3900816357671473,0.6780498970016025
1658789610314731,0.6272678721293969,-0.3820248722056916,0.6590066376745254
1658789610330722,0.6427710383764405,-0.3942320897230487,0.6228732738231475
1658789610346714,0.6493629358358133,-0.41168841077286933,0.607370107576104
1658789610362706,0.660837720302129,-0.3997253376058594,0.5904020752269776
1658789610378697,0.6701152056153203,-0.3891050583657587,0.5791714351110091
1658789610394689,0.6856183718623639,-0.4005798428320744,0.5681849393453877
1658789610410681,0.6989242389562831,-0.3892271305409323,0.5569542992294192
1658789610426673,0.7167467765316244,-0.3572442206454567,0.5628137636377506
1658789610442664,0.7317616540779737,-0.3681086442359045,0.5675745784695199
1658789610458656,0.7569085221637293,-0.35565728236820027,0.5289997711146714
1658789610474648,0.7760738536659799,-0.3496757457846953,0.508369573510338
1658789610490639,0.76240177004654,-0.35321583886472885,0.4809033340962845
1658789610506631,0.7526359960326543,-0.33649195086594963,0.461982146944381
1658789610522644,0.742748149843595,-0.36456855115587095,0.4737010757610438
1658789610538635,0.7501945525291829,-0.3681086442359045,0.4905470359349966
1658789610554627,0.7610589761196307,-0.3605401693751431,0.494697489890898
1658789610570619,0.7639887083237964,-0.34564736400396745,0.4280460822461283
1658789610586610,0.7782711528191042,-0.3663996337834745,0.3980163271534298
1658789610602602,0.7847409781033035,-0.3778744182497902,0.4069275959411005
1658789610618594,0.793408102540627,-0.3416189822232396,0.41095597772182835
1658789610634585,0.8125734340428776,-0.3264820325017168,0.4351262684061954
1658789610650577,0.8271000228885326,-0.3223315785458154,0.389715419241627
1658789610666569,0.8450446326390475,-0.29169146257724865,0.3217212176699471
1658789610682561,0.8473640039673453,-0.3119554436560614,0.341374837872892
1658789610698552,0.8314946211947811,-0.31110093842984643,0.3428397039749749
1658789610714544,0.8344243533989468,-0.306950484473945,0.3461356527046613
1658789610730536,0.829541466392004,-0.3126878767071033,0.3263599603265428
1658789610746527,0.8361333638513768,-0.3428397039749753,0.3390554665445942
1658789610762519,0.8413824673838404,-0.3328297856107425,0.34259555962462773
1658789610778511,0.8498054474708168,-0.3214770733196004,0.33295185778591563
1658789610794502,0.8478522926680396,-0.3131761654077976,0.274235141527428
1658789610810494,0.8544441901274125,-0.28583199816891725,0.25897611963073164
1658789610826486,0.8712901503013653,-0.27496757457846943,0.2914473182269015
1658789610842468,0.8764171816586561,-0.30853742275120144,0.34003204394598274
1658789610858460,0.8933852140077825,-0.33185320820935393,0.30719462882429216
1658789610874451,0.8979018844892046,-0.3311207751583125,0.2276035706111239
1658789610890443,0.8914320592050053,-0.3252613107499811,0.23028915846494247
1658789610906435,0.8914320592050053,-0.30267795834287003,0.24420538643472955
1658789610922426,0.9009536888685439,-0.2876630807965208,0.24896620126649882
1658789610938418,0.9076676585030903,-0.27533379110399014,0.23956664377813386
1658789610954410,0.9069352254520489,-0.278507667658503,0.21991302357518894
1658789610970401,0.8957045853360803,-0.29755092698558006,0.1911039902342262
1658789610986393,0.9073014419775696,-0.2872968642710001,0.16949721522850414
1658789611002385,0.919142442969406,-0.2872968642710001,0.20209048599984758
1658789611018376,0.9176775768673231,-0.27313649195086587,0.21393148699168396
1658789611034368,0.9171892881666288,-0.24554818036163883,0.1981841763942933
1658789611050360,0.9268329900053409,-0.2490882734416724,0.15521477073319634
1658789611066352,0.9282978561074238,-0.24664682993820097,0.11053635461966849
1658789611082343,0.9301289387350273,-0.23761348897535672,0.12616159304188646
1658789611098335,0.933058670939193,-0.23370717936980245,0.1520408941786835
1658789611114327,0.9402609292744337,-0.24383916990920884,0.15130846112764207
1658789611130318,0.9463645380331123,-0.23553826199740602,0.10077058060578281
1658789611146310,0.9403830014496073,-0.2171053635461968,0.07818722819867219
1658789611162262,0.9422140840772109,-0.21600671396963467,0.09710841535057568
1658789611178253,0.9505149919890137,-0.22113374532692465,0.09344625009536855
1658789611194245,0.9562523842221715,-0.2356603341725796,0.07660028992141577
1658789611210237,0.9463645380331123,-0.2561684596017395,0.0689097428854808
1658789611226228,0.9335469596398873,-0.23175402456702532,0.041443503471427334
1658789611242220,0.9312275883115895,-0.19598687724116903,0.03399710078583951
1658789611258212,0.9392843518730452,-0.20123598077363258,0.049134050507362304
1658789611274203,0.9414816510261694,-0.22235446707866036,0.02386511024643312
1658789611290195,0.9452658884565501,-0.206240939955749,-0.025696192874036683
1658789611306187,0.9440451667048144,-0.19879453727016116,-0.035095750362401645
1658789611322178,0.9528343633173115,-0.2083161669336997,-0.012146181429770309
1658789611338170,0.9665064469367515,-0.21454184786755182,-0.012756542305638163
1658789611354162,0.9704127565423057,-0.22320897230487535,-0.027161058976119534
1658789611370154,0.9688258182650493,-0.19427786678873904,-0.04962233920805659
1658789611386145,0.9617456321049822,-0.17486839093614082,-0.06659037155718339
1658789611402137,0.9542992294193944,-0.1660791943236437,-0.07061875333791123
1658789611418129,0.9579613946746015,-0.17132829785610726,-0.06903181506065481
1658789611434120,0.9596704051270315,-0.18609903105210934,-0.08368047608148332
1658789611450112,0.9558861676966508,-0.19305714503700333,-0.09149309529259186
1658789611466104,0.9402609292744337,-0.17401388570992582,-0.09124895094224472
1658789611482116,0.9280537117570766,-0.1712062256809337,-0.10382238498512253
1658789611498108,0.929640650034333,-0.1774319066147858,-0.10724040588998252
1658789611514100,0.9497825589379723,-0.17669947356374438,-0.09881742580300612
1658789611530091,0.9562523842221715,-0.16156252384222158,-0.10846112764171822
1658789611546083,0.9550316624704358,-0.16034180209048587,-0.14154268711375595
1658789611562075,0.9499046311131458,-0.18194857709620793,-0.12567330434119173
1658789611578066,0.9446555275806823,-0.1795071335927365,-0.1316548409246967
1658789611594058,0.9546654459449151,-0.1669336995498587,-0.14068818188754095
1658789611610050,0.9556420233463037,-0.15301747158007162,-0.17096208133058655
1658789611626042,0.9522240024414437,-0.15753414206149374,-0.1787747005416951
1658789611642033,0.9566186007476922,-0.16632333867399085,-0.16180666819256873
1658789611658025,0.949294270237278,-0.1812161440451665,-0.14435034714274808
1658789611674017,0.9590600442511636,-0.1829251544975965,-0.13397421225299455
1658789611690008,0.9563744563973451,-0.1607080186160066,-0.16705577172503228
1658789611706000,0.9513694972152287,-0.15460440985732804,-0.1890287632562755
1658789611721992,0.9428244449530787,-0.1576562142366673,-0.19842832074464045
1658789611737983,0.9468528267338066,-0.17425803006027296,-0.16424811169604014
1658789611753975,0.9553978789959565,-0.17584496833752938,-0.1467917906462195
1658789611769967,0.9444113832303351,-0.15460440985732804,-0.18829633020523406
1658789611785958,0.9362325474937059,-0.15838864728770874,-0.2095368886854354
1658789611801941,0.9425803006027316,-0.14862287327382306,-0.2024567025253683
1658789611817932,0.9422140840772109,-0.17486839093614082,-0.17181658655680154
1658789611833924,0.9440451667048144,-0.17645532921339724,-0.18426794842450578
1658789611849916,0.9464866102082858,-0.16937514305333012,-0.2016021972991533
1658789611865907,0.949294270237278,-0.15631342030975803,-0.22748149843595034
1658789611881899,0.9401388570992602,-0.1543602655069809,-0.2394445716029603
1658789611897891,0.9400167849240866,-0.1497215228503852,-0.23004501411459533
1658789611913882,0.9463645380331123,-0.1380025940337224,-0.22565041580834677
1658789611929874,0.936476691844053,-0.14203097581445023,-0.23358510719462888
1658789611945866,0.9494163424124515,-0.127016098268101,-0.24005493247882814
1658789611961857,0.9497825589379723,-0.13910124361028453,-0.22479591058213177
1658789611977849,0.9425803006027316,-0.16131837949187444,-0.23712520027466244
1658789611993841,0.9378194857709623,-0.15667963683527875,-0.25848783093003735
1658789612009832,0.9419699397268637,-0.15252918287937733,-0.240665293354696
1658789612025824,0.9379415579461359,-0.15106431677729448,-0.23285267414358746
1658789612041816,0.9405050736247809,-0.14630350194552522,-0.22796978713664462
1658789612057808,0.9350118257419702,-0.15118638895246805,-0.22748149843595034
1658789612073799,0.9295185778591595,-0.1433737697413595,-0.24750133516441597
1658789612089791,0.9317158770122838,-0.14435034714274808,-0.2523842221713588
1658789612105783,0.9368429083695737,-0.14740215152208735,-0.2536049439230945
1658789612121734,0.9413595788509959,-0.15326161593041876,-0.24884412909132525
1658789612137726,0.9435568780041201,-0.1459372854200045,-0.23456168459601745
1658789612153718,0.9324483100633252,-0.12396429388876173,-0.24603646906233312
1658789612169709,0.9247577630273902,-0.11834897383077747,-0.25812161440451664
1658789612185701,0.9225604638742659,-0.10968184939345393,-0.2890058747234301
1658789612201693,0.9232928969253074,-0.13739223315785454,-0.26813153276874946
1658789612217684,0.9160906385900667,-0.15545891508354304,-0.27325856412603944
1658789612233676,0.9207293812466624,-0.1328755626764324,-0.281925688563363
1658789612249668,0.9278095674067295,-0.11749446860456247,-0.28461127641718154
1658789612265659,0.9361104753185323,-0.13018997482261385,-0.2876630807965208
1658789612281651,0.9303730830853745,-0.14862287327382306,-0.3131761654077976
1658789612297643,0.9333028152895402,-0.1447165636682688,-0.31537346456092186
1658789612313634,0.9303730830853745,-0.14203097581445023,-0.2999923704890515
1658789612329626,0.9289082169832916,-0.14325169756618594,-0.2869306477454794
1658789612345618,0.9230487525749602,-0.15069810025177377,-0.29047074082551294
1658789612361610,0.911451895933471,-0.1433737697413595,-0.3048752574959943
1658789612377601,0.9024185549706267,-0.13556115053025097,-0.32330815594720397
1658789612393593,0.904615854123751,-0.1509422446021209,-0.3211108567940797
1658789612409585,0.9096208133058674,-0.14496070801861594,-0.3340505073624782
1658789612425576,0.9223163195239188,-0.12799267566948958,-0.34064240482185104
1658789612441558,0.9297627222095066,-0.11663996337834748,-0.35577935454337384
1658789612457550,0.9225604638742659,-0.12433051041428245,-0.36078431372549025
1658789612473542,0.9235370412756545,-0.1392233157854581,-0.36163881895170524
1658789612489534,0.9261005569542995,-0.1564354924849316,-0.3718928816662852
1658789612505525,0.9345235370412759,-0.1762111848630501,-0.39020370794232084
1658789612521517,0.9319600213626309,-0.19366750591287119,-0.39850461585412367
1658789612537509,0.9285420004577709,-0.1858548867017622,-0.4097352559700922
1658789612553500,0.9263447013046466,-0.1589990081635766,-0.4341496910048064
1658789612569492,0.9169451438162817,-0.14874494544899663,-0.45160601205462747
1658789612585484,0.9009536888685439,-0.16180666819256873,-0.46210421911955457
1658789612601475,0.9009536888685439,-0.14959945067521163,-0.4489204242008089
1658789612617467,0.8921644922560468,-0.15582513160906375,-0.4376897840848404
1658789612633459,0.8980239566643782,-0.15045395590142663,-0.42511635004196213
1658789612649450,0.8998550392919817,-0.15594720378423732,-0.41278706034943147
1658789612665442,0.8987563897154196,-0.17132829785610726,-0.4013122758831158
1658789612681434,0.9032730601968417,-0.1636377508201723,-0.39264515144579226
1658789612697425,0.9065690089265281,-0.17975127794308365,-0.3643244068055238
1658789612713417,0.9228046082246131,-0.15875486381322945,-0.35956359197375454
1658789612729409,0.9252460517280845,-0.14544899671931022,-0.3538261997405967
1658789612745401,0.9243915465018695,-0.14239719233997095,-0.344060425726711
1658789612761413,0.9169451438162817,-0.13055619134813456,-0.3333180743114368
1658789612777405,0.914869916838331,-0.15130846112764162,-0.3053635461966886
1658789612793397,0.9190203707942324,-0.15387197680628661,-0.2936446173800258
1658789612809388,0.9218280308232245,-0.15619134813458446,-0.2842450598916608
1658789612825380,0.9251239795529109,-0.14630350194552522,-0.28668650339513224
1658789612841372,0.9252460517280845,-0.15448233768215447,-0.28204776073853655
1658789612857363,0.9235370412756545,-0.1447165636682688,-0.27618829633020514
1658789612873355,0.9271992065308616,-0.1543602655069809,-0.26520180056458376
1658789612889347,0.9280537117570766,-0.1585107194628823,-0.2518959334706645
1658789612905338,0.9333028152895402,-0.15045395590142663,-0.2554360265506981
1658789612921330,0.9318379491874573,-0.14056610971236738,-0.27228198672465087
1658789612937322,0.9278095674067295,-0.14544899671931022,-0.2594644083314259
1658789612953313,0.9309834439612423,-0.14581521324483093,-0.2558022430762188
1658789612969305,0.9319600213626309,-0.14996566720073234,-0.22528419928282606
1658789612985297,0.9369649805447473,-0.14154268711375595,-0.22565041580834677
1658789613001289,0.9314717326619366,-0.14251926451514452,-0.22504005493247892
1658789613017280,0.9212176699473567,-0.14618142977035165,-0.21600671396963467
1658789613033272,0.9198748760204474,-0.14959945067521163,-0.19879453727016116
1658789613049264,0.9264667734798202,-0.1502098115510795,-0.16302738994430443
1658789613065255,0.9281757839322502,-0.15484855420767518,-0.16095216296635373
1658789613081207,0.9290302891584652,-0.15887693598840302,-0.15509269855802232
1658789613097199,0.9355001144426645,-0.15619134813458446,-0.14288548104066523
1658789613113190,0.9363546196688795,-0.1502098115510795,-0.13116655222400242
1658789613129182,0.9383077744716566,-0.16290531776913086,-0.09527733272297256
1658789613145174,0.9389181353475244,-0.1762111848630501,-0.060975051499198685
1658789613161165,0.945021744106203,-0.16913099870298298,-0.07489127946898622
1658789613177157,0.9387960631723509,-0.164003967345693,-0.06927595941100195
1658789613193149,0.9337911039902345,-0.17730983443961224,-0.025818265049210254
1658789613209140,0.9232928969253074,-0.21136797131303897,0.007873655298695326
1658789613225132,0.9154802777141988,-0.22394140535591678,7.934691386282111E-4
1658789613241124,0.9198748760204474,-0.18780804150453978,-0.013366903181506018
1658789613257115,0.9181658655680174,-0.201968413824674,0.042908369573510186
1658789613273107,0.9220721751735717,-0.23846799420157172,0.08758678568703715
1658789613289099,0.9346456092164495,-0.21612878614480824,0.05169756618600729
1658789613305091,0.9514915693904022,-0.20758373388265827,0.05218585488670158
1658789613321082,0.9414816510261694,-0.22247653925383393,0.07806515602349862
1658789613337074,0.9280537117570766,-0.25214007782101167,0.0995498588540471
1658789613353066,0.9257343404287788,-0.24579232471198598,0.08868543526359929
1658789613369057,0.940749217975128,-0.23212024109254603,0.10736247806515564
1658789613385049,0.9438010223544673,-0.23114366369115746,0.14373998626688067
1658789613401031,0.9336690318150609,-0.22455176623178463,0.14215304798962425
1658789613417023,0.9297627222095066,-0.23150988021667818,0.14288548104066567
1658789613433014,0.9292744335088123,-0.24811169604028382,0.135683222705425
1658789613449006,0.9258564126039524,-0.2356603341725796,0.16021972991531275
1658789613464998,0.9146257724879838,-0.2571450370031281,0.18976119630731692
1658789613480990,0.9119401846341653,-0.26153963530937663,0.20416571297779829
1658789613496981,0.9137712672617688,-0.2647135118638895,0.21075761043717112
1658789613512973,0.9167009994659345,-0.25018692301823453,0.22577248798352034
1658789613528965,0.8991226062409403,-0.2973067826352329,0.25897611963073164
1658789613544956,0.8982681010147253,-0.2890058747234301,0.2394445716029603
1658789613560948,0.9013199053940646,-0.2936446173800258,0.25128557259479667
1658789613576940,0.9059586480506603,-0.27106126497291516,0.2594644083314259
1658789613592931,0.9010757610437174,-0.2477454795147631,0.2511635004196231
1658789613608923,0.8917982757305261,-0.2687418936446173,0.30768291752498644
1658789613624915,0.8911879148546582,-0.3062180514229036,0.32990005340657635
1658789613640906,0.8871595330739304,-0.33478294041351964,0.3192797741664757
1658789613656898,0.8974135957885103,-0.30939192797741644,0.3031662470435643
1658789613672890,0.8928969253070882,-0.29291218432898436,0.3444266422522313
1658789613688881,0.8837415121690704,-0.3140306706340126,0.38190280003051846
1658789613704873,0.8878919661249718,-0.3189135576409554,0.3738460364690619
1658789613720886,0.8769054703593504,-0.314763103685054,0.33575951781490776
1658789613736878,0.8692149233234145,-0.34357213702601674,0.40009155413138053
1658789613752869,0.8566414892805367,-0.351750972762646,0.41144426642252263
1658789613768861,0.8600595101853967,-0.32892347600518823,0.40497444113832337
1658789613784853,0.8664072632944224,-0.32172121766994755,0.388860914015412
1658789613800844,0.860547798886091,-0.3218432898451211,0.3831235217822542
1658789613816836,0.8496833752956432,-0.314763103685054,0.4132753490501262
1658789613832828,0.8368657969024182,-0.3253833829251547,0.4678416113527124
1658789613848819,0.832959487296864,-0.3478446631570917,0.4581979095140003
1658789613864811,0.8418707560845347,-0.34271763179980175,0.4312199588006411
1658789613880803,0.8416266117341875,-0.3366140230411232,0.43329518577859183
1658789613896794,0.837232013427939,-0.3316090638590068,0.4669871061264974
1658789613912786,0.833813992523079,-0.33600366216525535,0.45551232166018174
1658789613928778,0.832104982070649,-0.32599374380102253,0.44916456855115605
1658789613944769,0.8238040741588462,-0.34149691004806604,0.466254673075456
1658789613960761,0.8091554131380176,-0.3696955825131609,0.4708934157320517
1658789613976753,0.8069581139848934,-0.3676203555352102,0.46259250782024885
1658789613992745,0.801098649576562,-0.3613946746013581,0.4883497367818723
1658789614008736,0.7957274738689248,-0.33392843518730464,0.504951552605478
1658789614024728,0.8006103608758677,-0.33673609521629677,0.5264362554360265
1658789614040710,0.799389639124132,-0.3479667353322653,0.5093461509117265
1658789614056702,0.8021972991531241,-0.34222934309910746,0.5009231708247501
1658789614072693,0.793408102540627,-0.3236743724727247,0.5209430075532158
1658789614088685,0.7838864728770885,-0.33344014648661036,0.5794155794613562
1658789614104677,0.7775387197680628,-0.37262531471732663,0.5896696421759362
1658789614120669,0.7835202563515677,-0.35565728236820027,0.5479209582665749
1658789614136660,0.779736018921187,-0.35187304493781957,0.5457236591134507
1658789614152652,0.7667963683527885,-0.3391775387197682,0.5700160219729913
1658789614168644,0.7609369039444571,-0.34027618829633033,0.5943083848325319
1658789614184635,0.7526359960326543,-0.3478446631570917,0.5960173952849619
1658789614200627,0.7473868925001907,-0.38519874876020443,0.6122529945830468
1658789614216619,0.7439688715953308,-0.39105821316853584,0.5810025177386127
1658789614232610,0.749584191653315,-0.3734798199435416,0.5477988860914014
1658789614248602,0.7425040054932479,-0.356023498893721,0.5751430533302813
1658789614264594,0.7293202105745022,-0.3605401693751431,0.6132295719844354
1658789614280585,0.7221179522392616,-0.36334782940413524,0.5860074769207291
1658789614296577,0.7291981383993287,-0.37592126344701304,0.5884489204242005
1658789614312569,0.7140611886778059,-0.36920729381246664,0.5692835889219499
1658789614328560,0.6988021667811095,-0.3571221484702831,0.5978484779125655
1658789614344552,0.6868390936140996,-0.34613565270466173,0.6161593041886011
1658789614360504,0.696116578927291,-0.3294117647058825,0.6398413061722747
1658789614376495,0.7001449607080188,-0.34027618829633033,0.6370336461432826
1658789614392487,0.6992904554818038,-0.3504081788357367,0.6481422140840776
1658789614408479,0.6886701762417031,-0.36151674677653167,0.6643778133821625
1658789614424471,0.684153505760281,-0.3798275730525673,0.6728007934691389
1658789614440462,0.688426031891356,-0.38385595483329515,0.6709697108415353
1658789614456454,0.689280537117571,-0.3739681086442359,0.6767071030746932
1658789614472446,0.6666971847104604,-0.36835278858625164,0.6983138780804152
1658789614488437,0.6504615854123754,-0.3983825436789501,0.7477531090257115
1658789614504429,0.6507057297627226,-0.41547264820325003,0.7390859845883879
1658789614520421,0.6581521324483104,-0.3924010070954451,0.7042954146639202
1658789614536412,0.6663309681849396,-0.36285954070344095,0.6922102693217367
1658789614552404,0.6579079880979632,-0.36908522163729307,0.7138170443274587
1658789614568396,0.6404516670481426,-0.37958342870222017,0.7106431677729459
1658789614584387,0.6326390478370341,-0.3963073167009994,0.7392080567635615
1658789614600379,0.6290989547570005,-0.39642938887617296,0.727977416647593
1658789614616371,0.6267795834287027,-0.38605325398641943,0.718577859159228
1658789614632362,0.6196993972686347,-0.3980163271534294,0.7410391393911651
1658789614648354,0.6077363241016247,-0.39642938887617296,0.7475089646753643
1658789614664346,0.6135957885099561,-0.36456855115587095,0.7224841687647823
1658789614680359,0.6196993972686347,-0.37091630426489663,0.7300526436255437
1658789614696350,0.5995574883649955,-0.3882505531395437,0.7549553673609521
1658789614712342,0.5852750438696877,-0.39813839932860295,0.7658197909514
1658789614728334,0.5728236820019834,-0.37885099565117875,0.7445792324711986
1658789614744325,0.5821011673151748,-0.36420233463035023,0.7295643549248494
1658789614760317,0.5888151369497212,-0.3601739528496224,0.7434805828946365
1658789614776309,0.5835660334172577,-0.3764095521477073,0.7696040283817807
1658789614792300,0.5739223315785456,-0.3743343251697566,0.7736324101625085
1658789614808292,0.5568322270542456,-0.3856870374608987,0.7528801403830014
1658789614824284,0.5602502479591056,-0.387884336614023,0.7808346684977492
1658789614840275,0.5541466392004271,-0.39313344014648655,0.7730220492866406
1658789614856267,0.5454795147631035,-0.3816586556801709,0.7631342030975814
1658789614872259,0.5341268024719614,-0.3550469214923324,0.76923781185626
1658789614888250,0.5338826581216143,-0.34052033264667747,0.7770504310673685
1658789614904242,0.5377889677271686,-0.34735637445639744,0.7654535744258792
1658789614920234,0.5426718547341114,-0.3533379110399024,0.7677729457541771
1658789614936226,0.5298542763408864,-0.3524834058136874,0.7886472877088577
1658789614952217,0.5086137178606851,-0.36078431372549025,0.7980468451972227
1658789614968209,0.5070267795834287,-0.35077439536125743,0.7769283588921949
1658789614984201,0.5080033569848172,-0.37286945906767377,0.8042725261310748
1658789615000183,0.5037308308537423,-0.3609063859006638,0.7974364843213548
1658789615016174,0.4910353246356909,-0.353459983215076,0.8111085679407948
1658789615032166,0.4746776531624324,-0.37555504692149233,0.8268558785381854
1658789615048158,0.4824902723735409,-0.3617608911268788,0.8102540627145798
1658789615064149,0.48822766460669875,-0.3622491798275731,0.8114747844663155
1658789615080141,0.4892042420080873,-0.35114061188677814,0.8245365072098876
1658789615096133,0.46759746700236526,-0.36151674677653167,0.8197756923781183
1658789615112125,0.4473334859235525,-0.3794613565270466,0.8314946211947811
1658789615128116,0.44745555809872606,-0.39655146105134653,0.8433356221866175
1658789615144108,0.4535591668574046,-0.3978942549782558,0.8386968795300218
1658789615160100,0.45331502250705746,-0.38141451132982374,0.8240482185091933
1658789615176091,0.43195239185168255,-0.385320820935378,0.8214847028305483
1658789615192083,0.4127870603494319,-0.3837338826581216,0.8429694056610968
1658789615208075,0.4074158846417948,-0.37933928435187303,0.8435797665369646
1658789615224066,0.4074158846417948,-0.3944762340733958,0.8251468680857554
1658789615240058,0.40851453421835693,-0.3954528114747844,0.814160372320134
1658789615256050,0.391424429694057,-0.3971618219272144,0.8515144579232468
1658789615272041,0.3762874799725342,-0.4054627298390172,0.8664072632944224
1658789615288033,0.3762874799725342,-0.40326543068589293,0.8460212100404361
1658789615304025,0.38153658350499775,-0.42792401007095426,0.8803234912642104
1658789615319976,0.37482261387045046,-0.42511635004196213,0.8914320592050053
1658789615335968,0.3679865720607305,-0.4071717402914472,0.8928969253070882
1658789615351960,0.351628900587472,-0.416327153429465,0.8942397192339975
1658789615367951,0.34918745708400056,-0.41168841077286933,0.8784924086366068
1658789615383943,0.344792858777752,-0.40448615243762864,0.8819104295414668
1658789615399935,0.3285572594796671,-0.3953307392996108,0.9031509880216682
1658789615415927,0.3134203097581443,-0.41950102998397787,0.9226825360494395
1658789615431918,0.3117112993057143,-0.4340276188296328,0.9113298237582974
1658789615447910,0.32660410467688994,-0.42890058747234283,0.9115739681086446
1658789615463902,0.3224536507209885,-0.4176699473563743,0.9004654001678496
1658789615479893,0.31439688715953285,-0.42169832913710215,0.9198748760204474
1658789615495885,0.3002365148393986,-0.41828030823224216,0.9203631647211417
1658789615511877,0.2918135347524222,-0.4004577706569008,0.9010757610437174
1658789615527868,0.2871747920958265,-0.38519874876020443,0.9033951323720153
1658789615543860,0.2737468528267337,-0.40277714198519865,0.9070572976272224
1658789615559852,0.2566567483024338,-0.4110780498970015,0.9064469367513546
1658789615575843,0.24872205691615168,-0.4306095979247728,0.9004654001678496
1658789615591835,0.2544594491493095,-0.4096131837949186,0.8828870069428554
1658789615607827,0.2600747692072938,-0.39093614099336227,0.8889906157015339
1658789615623818,0.24505989166094455,-0.38141451132982374,0.9129167620355538
1658789615639801,0.23285267414358746,-0.41376363775082003,0.9359884031433587
1658789615655792,0.23358510719462888,-0.4033875028610665,0.905470359349966
1658789615671784,0.23651483939879459,-0.4169375143053329,0.9511253528648815
1658789615687776,0.23382925154497602,-0.41242084382391075,0.9643091477836272
1658789615703767,0.22076752880140393,-0.40704966811627363,0.9789578088044557
1658789615719759,0.21283283741512182,-0.40228885328450437,0.9788357366292821
1658789615735751,0.21808194094758537,-0.4042420080872815,1.0017853055619135
1658789615751742,0.20904859998474112,-0.42926680399786354,1.027786678873884
1658789615767734,0.1973296711680783,-0.4535591668574046,1.0456092164492254
1658789615783726,0.18622110322728336,-0.465400167849241,1.0486610208285647
1658789615799718,0.18316929884794408,-0.4807812619211109,1.0449988555733576
1658789615815709,0.1906157015335319,-0.4813916227969788,1.0795452811474782
1658789615831701,0.20099183642328544,-0.47638666361486237,1.1070115205615316
1658789615847693,0.19977111467154973,-0.4481879911497675,1.0841840238040739
1658789615863684,0.20221255817502115,-0.456000610360876,1.0718547341115432
1658789615879676,0.19806210421911974,-0.48102540627145807,1.086137178606851
1658789615895668,0.20013733119707044,-0.48737315938048376,1.0984664682993817
1658789615911659,0.19745174334325188,-0.4822461280231938,1.0985885404745552
1658789615927651,0.19305714503700333,-0.48407721065079734,1.0856488899061567
1658789615943643,0.19354543373769761,-0.45587853818570245,1.0603799496452275
1658789615959655,0.19037155718318477,-0.46381322957198456,1.0821087968261232
1658789615975647,0.2074616617074847,-0.46308079652094314,1.0911421377889674
1658789615991639,0.20697337300679042,-0.4774853131914245,1.0816205081254289
1658789616007630,0.1986724650949876,-0.4888380254825666,1.0658731975280382
1658789616023622,0.19806210421911974,-0.4695506218051424,1.0547646295872433
1658789616039614,0.20428778515297186,-0.46845197222858026,1.0451209277485312
1658789616055606,0.21942473487449465,-0.4755321583886474,1.0204623483634698
1658789616071597,0.23639276722362101,-0.4778515297169452,0.9933623254749371
1658789616087589,0.25055313954375524,-0.46015106431677744,0.9665064469367515
1658789616103581,0.26019684138246735,-0.4307316700999464,0.9497825589379723
1658789616119572,0.26446936751354233,-0.4345159075303271,0.9243915465018695
1658789616135564,0.28790722514686795,-0.43463797970550067,0.9308613717860688
1658789616151556,0.2947432669565879,-0.44794384679942034,0.9379415579461359
1658789616167547,0.2868085755703058,-0.4376897840848404,0.9173113603418024
1658789616183539,0.2860761425192644,-0.4423285267414361,0.9076676585030903
1658789616199531,0.28412298771648725,-0.4480659189745939,0.9076676585030903
1658789616215522,0.2957198443579765,-0.4480659189745939,0.9179217212176702
1658789616231514,0.3029221026932172,-0.4190127412832836,0.8946059357595182
1658789616247506,0.3255054551003278,-0.4268253604943921,0.9096208133058674
1658789616263497,0.3364919508659492,-0.42999923704890497,0.8670176241702903
1658789616279449,0.3679865720607305,-0.42462806134126785,0.866529335469596
1658789616295441,0.3779964904249642,-0.4392767223620968,0.8872816052491039
1658789616311432,0.3910582131685363,-0.43903257801174966,0.8784924086366068
1658789616327424,0.4005798428320748,-0.4456244754711225,0.8681162737468524
1658789616343416,0.41144426642252263,-0.4456244754711225,0.8411383230334932
1658789616359408,0.41266498817425834,-0.4357366292820628,0.837232013427939
1658789616375399,0.41351949340047334,-0.4042420080872815,0.8207522697795069
1658789616391391,0.4157167925535976,-0.4202334630350193,0.8311284046692604
1658789616407383,0.42194247348744973,-0.4256046387426564,0.8367437247272447
1658789616423374,0.43988708323796466,-0.4227969787136643,0.8413824673838404
1658789616439366,0.45758754863813245,-0.39472037842374297,0.802807660028992
1658789616455358,0.46478980697337313,-0.39899290455481795,0.7619134813458457
1658789616471349,0.46478980697337313,-0.4147402151522086,0.7761959258411535
1658789616487341,0.4796826123445488,-0.41376363775082003,0.8092774853131912
1658789616503333,0.5008010986495766,-0.3991149767299915,0.8131837949187455
1658789616519324,0.5123979552910658,-0.3980163271534294,0.7792477302204928
1658789616535316,0.5181353475242236,-0.42792401007095426,0.7316395819028001
1658789616551308,0.5338826581216143,-0.44782177462424677,0.7457999542229343
1658789616567299,0.5514610513466085,-0.39813839932860295,0.7466544594491493
1658789616583291,0.5535362783245592,-0.37628747997253376,0.7537346456092164
1658789616599273,0.5465781643396657,-0.4004577706569008,0.7451895933470665
1658789616615265,0.5550011444266421,-0.42499427786678856,0.708323796444648
1658789616631257,0.5617151140611885,-0.43134203097581425,0.6728007934691389
1658789616647248,0.5731898985275041,-0.42597085526817713,0.6995345998321509
1658789616663240,0.5758754863813227,-0.42511635004196213,0.7206530861371787
1658789616679232,0.5900358587014569,-0.43097581445029354,0.7205310139620051
1658789616695223,0.6041962310215911,-0.43134203097581425,0.6968490119783324
1658789616711215,0.6181124589913782,-0.4026550698100251,0.6267795834287027
1658789616727207,0.6312962539101248,-0.39276722362096583,0.616769665064469
1658789616743198,0.646311131456474,-0.4038757915617608,0.6554665445944918
1658789616759190,0.6494850080109869,-0.4226749065384907,0.6830548561837189
1658789616775182,0.654001678492409,-0.41498435950255574,0.6775616083009082
1658789616791174,0.6631570916304268,-0.40985732814526576,0.6647440299076832
1658789616807165,0.6598611429007404,-0.383611810482948,0.6079804684519718
1658789616823157,0.6659647516594189,-0.3916685740444037,0.6172579537651632
1658789616839149,0.6778057526512553,-0.40143434805828937,0.6353246356908526
1658789616855140,0.6854962996871903,-0.3980163271534294,0.6625467307545589
1658789616871132,0.682444495307851,-0.38178072785534445,0.6218966964217589
1658789616887124,0.688426031891356,-0.385320820935378,0.6001678492408633
1658789616903115,0.6974593728542002,-0.4343938353551535,0.6000457770656897
1658789616919128,0.718577859159228,-0.42255283436331714,0.6248264286259246
1658789616935120,0.7311512932021058,-0.40241092545967794,0.6321507591363398
1658789616951111,0.725413900968948,-0.38812848096437014,0.5844205386434727
1658789616967103,0.7384756237125201,-0.3739681086442359,0.5512169069962614
1658789616983095,0.7492179751277943,-0.38300144960708016,0.5571984435797663
1658789616999086,0.7696040283817807,-0.35785458152132454,0.5808804455634391
1658789617015078,0.7753414206149385,-0.3399099717708096,0.564400701915007
1658789617031070,0.7768062867170213,-0.33942168307011533,0.5200885023270008
1658789617047062,0.7765621423666742,-0.3524834058136874,0.4951857785915923
1658789617063053,0.7774166475928892,-0.37506675822079805,0.5492637521934842
1658789617079045,0.7674067292286564,-0.3770199130235752,0.5241168841077286
1658789617095037,0.7776607919432363,-0.3761654077973602,0.499824521248188
1658789617111028,0.7794918745708399,-0.3651789120317388,0.4711375600823988
1658789617127020,0.7881589990081634,-0.34821087968261244,0.4778515297169452
1658789617143012,0.7969481956206605,-0.33380636301213107,0.4809033340962845
1658789617159003,0.8047608148317691,-0.30768291752498644,0.427557793545434
1658789617174995,0.8181887541008619,-0.29755092698558006,0.4136415655756469
1658789617190987,0.8196536202029447,-0.31012436102845786,0.39838254367895054
1658789617206978,0.832104982070649,-0.3126878767071033,0.41303120469977905
1658789617222970,0.8344243533989468,-0.34320592050049603,0.42059967956054045
1658789617238922,0.8490730144197753,-0.33185320820935393,0.39545281147478484
1658789617254913,0.8590829327840082,-0.29510948348210864,0.346501869230182
1658789617270905,0.8583504997329667,-0.28241397726405726,0.3594415197985805
1658789617286897,0.863965819790951,-0.2976729991607536,0.3826352330815599
1658789617302888,0.8683604180971995,-0.2608072022583352,0.33026626993209707
1658789617318880,0.8759288929579618,-0.26190585183489734,0.29462119478141435
1658789617334872,0.8611581597619589,-0.27325856412603944,0.2840009155413137
1658789617350864,0.8548104066529332,-0.2647135118638895,0.305241474021515
1658789617366855,0.8620126649881739,-0.27069504844739445,0.34369420920118987
1658789617382847,0.8848401617456325,-0.2981612878614479,0.3275806820782785
1658789617398839,0.9002212558175025,-0.2927901121538108,0.25641260395208665
1658789617414830,0.9070572976272224,-0.2528725108720531,0.20233463035019472
1658789617430822,0.9066910811017017,-0.25421530479896237,0.2284580758373389
1658789617446814,0.9093766689555203,-0.2647135118638895,0.26739909971770803
1658789617462805,0.9202410925459681,-0.2763103685053787,0.29633020523384435
1658789617478797,0.9168230716411081,-0.2609292744335088,0.22406347753109035
1658789617494789,0.9118181124589917,-0.2456702525368124,0.16571297779812344
1658789617510780,0.8946059357595182,-0.2510414282444495,0.13202105745021786
1658789617526772,0.9116960402838181,-0.20892652780956755,0.1642481116960406
1658789617542764,0.9212176699473567,-0.21051346608682397,0.22125581750209822
1658789617558746,0.9230487525749602,-0.2343175402456703,0.2356603341725796
1658789617574738,0.9263447013046466,-0.24933241779201953,0.17364766918440555
1658789617590729,0.9262226291294731,-0.24957656214236668,0.09466697184710426
1658789617606721,0.929640650034333,-0.2473792629892424,0.13495078965438356
1658789617622713,0.9348897535667966,-0.2330968184939346,0.1948882276646069
1658789617638704,0.9438010223544673,-0.2133211261158161,0.1768215457389184
1658789617654696,0.9495384145876251,-0.20721751735713756,0.09930571450369996
1658789617670688,0.9453879606317237,-0.2229648279545282,0.0806286717021436
1658789617686679,0.9276874952315559,-0.2401770046540017,0.0680552376592658
1658789617702671,0.9295185778591595,-0.23089951934081032,0.09405661097123641
1658789617718663,0.9387960631723509,-0.23248645761806674,0.12872510872053144
1658789617734655,0.9483176928358894,-0.24921034561684596,0.12335393301289344
1658789617750646,0.947585259784848,-0.21808194094758537,0.08184939345387932
1658789617766638,0.9285420004577709,-0.1893949797817962,0.008972304875257464
1658789617782630,0.9367208361944002,-0.19476615548943332,0.03057907988097952
1658789617798621,0.9497825589379723,-0.2153963530937668,0.06012054627298369
1658789617814613,0.9643091477836272,-0.205386434729534,0.07537956816968006
1658789617830605,0.9685816739147022,-0.21942473487449465,0.06952010376134865
1658789617846596,0.9534447241931794,-0.22735942626077676,0.006286717021438903
1658789617862588,0.9292744335088123,-0.2410315098802167,-0.04376287479972518
1658789617878570,0.9344014648661023,-0.23370717936980245,-0.03057907988097952
1658789617894562,0.9466086823834594,-0.2205233844510568,3.0518043793392735E-4
1658789617910554,0.9573510337987337,-0.21149004348821254,-0.011169604028381741
1658789617926545,0.9555199511711301,-0.20086976424811187,-0.052918287937743
1658789617942537,0.9494163424124515,-0.1961089494163426,-0.1047989623865111
1658789617958529,0.940749217975128,-0.19855039291981402,-0.13983367666132596
1658789617974520,0.9445334554055087,-0.19806210421911974,-0.12225528343633174
1658789617990512,0.9445334554055087,-0.18988326848249049,-0.10736247806515609
1658789618006504,0.9563744563973451,-0.17608911268787653,-0.09100480659189758
1658789618022495,0.9556420233463037,-0.18793011367971335,-0.11017013809414822
1658789618038487,0.9606469825284201,-0.18268101014724936,-0.14361791409170666
1658789618054479,0.9563744563973451,-0.17523460746166153,-0.1564354924849316
1658789618070470,0.953566796368353,-0.1712062256809337,-0.13775844968337525
1658789618086462,0.9575951781490808,-0.15716792553597303,-0.14483863584344236
1658789618102454,0.970901045243,-0.1392233157854581,-0.15252918287937733
1658789618118445,0.9718776226443886,-0.1585107194628823,-0.14142061493858238
1658789618134437,0.9606469825284201,-0.18597695887693577,-0.12896925307087814
1658789618150429,0.9489280537117573,-0.18695353627832434,-0.13556115053025097
1658789618166421,0.945021744106203,-0.19122606240939977,-0.13446250095368883
1658789618182412,0.9431906614785994,-0.18780804150453978,-0.1535057602807659
1658789618198394,0.9361104753185323,-0.1712062256809337,-0.18048371099412508
1658789618214386,0.9369649805447473,-0.14654764629587236,-0.167421988250553
1658789618230378,0.9396505683985659,-0.13775844968337525,-0.16559090562294942
1658789618246369,0.9560082398718244,-0.13177691309987027,-0.19647516594186332
1658789618262361,0.9601586938277258,-0.1342183566033417,-0.20172426947432687
1658789618278353,0.9519798580910965,-0.16876478217746227,-0.20318913557640972
1658789618294345,0.935622186617838,-0.17340352483405796,-0.19623102159151617
1658789618310336,0.940749217975128,-0.14239719233997095,-0.1885404745555812
1658789618326328,0.9436789501792937,-0.1371480888075074,-0.1867093919279772
1658789618342320,0.9503929198138401,-0.13568322270542454,-0.19134813458457334
1658789618358311,0.9423361562523844,-0.12591744869153887,-0.20465400167849257
1658789618374303,0.9258564126039524,-0.12542915999084459,-0.22247653925383393
1658789618390295,0.9241474021515224,-0.11004806591897465,-0.20794995040817899
1658789618406286,0.9419699397268637,-0.09185931181811258,-0.2171053635461968
1658789618422278,0.9737087052719922,-0.09002822919050901,-0.21478599221789896
1658789618438270,0.9662623025864043,-0.09832913710231184,-0.2162508583199818
1658789618454261,0.9439230945296408,-0.10174715800717182,-0.21136797131303897
1658789618470253,0.9275654230563823,-0.11956969558251318,-0.21014724956130326
1658789618486245,0.9217059586480509,-0.1380025940337224,-0.21051346608682397
1658789618502236,0.9352559700923173,-0.12188906691081103,-0.23736934462500958
1658789618518219,0.942458228427558,-0.11139085984588393,-0.23382925154497602
1658789618534210,0.9358663309681852,-0.11920347905699247,-0.23273060196841389
1658789618550202,0.9408712901503016,-0.10284580758373396,-0.23065537499046318
1658789618566194,0.9427023727779051,-0.10785076676585037,-0.23797970550087744
1658789618582185,0.9477073319600215,-0.09491111619745185,-0.278507667658503
1658789618598177,0.9488059815365837,-0.08612191958495474,-0.3185473411154347
1658789618614169,0.932204165712978,-0.10760662241550323,-0.305241474021515
1658789618630160,0.928786144808118,-0.10528725108720538,-0.29706263828488577
1658789618646152,0.9402609292744337,-0.1039444571602961,-0.29633020523384435
1658789618662144,0.9408712901503016,-0.10663004501411466,-0.33185320820935393
1658789618678135,0.9383077744716566,-0.13311970702677955,-0.33673609521629677
1658789618694127,0.9391622796978716,-0.16754406042572656,-0.3476005188067446
1658789618710119,0.946730754558633,-0.1610742351415273,-0.36627756160830094
1658789618726111,0.9610131990539408,-0.164003967345693,-0.36627756160830094
1658789618742102,0.9593041886015108,-0.15216296635385662,-0.4080262455176622
1658789618758094,0.9425803006027316,-0.1421530479896238,-0.4075379568169679
1658789618774086,0.9226825360494395,-0.13055619134813456,-0.41034561684596005
1658789618790077,0.909742885481041,-0.1240863660639353,-0.4037537193865872
1658789618806069,0.8981460288395517,-0.12884718089570457,-0.3891050583657587
1658789618822061,0.8948500801098653,-0.13775844968337525,-0.38348973830777444
1658789618838043,0.9079118028534374,-0.12652780956740672,-0.385320820935378
1658789618854035,0.9195086594949267,-0.11480888075074391,-0.3744563973449302
1658789618870026,0.9306172274357216,-0.10919356069275965,-0.35101853971160457
1658789618886018,0.936476691844053,-0.1182269016556039,-0.3307545586327918
1658789618902010,0.9374532692454416,-0.10028229190508897,-0.3269703212024111
1658789618918001,0.9401388570992602,-0.0812390325780119,-0.3358815899900818
1658789618933993,0.936476691844053,-0.09039444571602973,-0.3163500419623104
1658789618949985,0.9370870527199209,-0.10650797283894109,-0.2944991226062408
1658789618965976,0.9353780422674909,-0.11261158159761964,-0.2532387273975738
1658789618981968,0.9276874952315559,-0.09771877622644398,-0.2456702525368124
1658789618997960,0.9245136186770431,-0.08514534218356618,-0.2592202639810788
1658789619013951,0.9276874952315559,-0.10894941634241251,-0.242374303807126
1658789619029943,0.932204165712978,-0.09686427100022899,-0.25470359349965666
1658789619045935,0.9379415579461359,-0.09381246662088971,-0.2515297169451438
1658789619061926,0.953566796368353,-0.09979400320439469,-0.2465247577630274
1658789619077918,0.9624780651560236,-0.092591744869154,-0.2504310673685817
1658789619093910,0.9558861676966508,-0.10272373540856039,-0.23785763332570387
1658789619109902,0.9488059815365837,-0.10650797283894109,-0.24249637598229956
1658789619125893,0.9438010223544673,-0.1211566338597696,-0.24347295338368813
1658789619141885,0.9384298466468302,-0.1220111390859846,-0.2490882734416724
1658789619157867,0.9446555275806823,-0.11261158159761964,-0.23993286030365457
1658789619173859,0.9472190432593273,-0.09784084840161755,-0.24689097428854812
1658789619189850,0.9546654459449151,-0.09442282749675757,-0.23627069504844744
1658789619205842,0.9521019302662701,-0.10370031280994896,-0.24420538643472955
1658789619221834,0.9497825589379723,-0.10968184939345393,-0.22882429236285962
1658789619237825,0.9439230945296408,-0.11078049897001607,-0.23443961242084388
1658789619253817,0.9353780422674909,-0.1333638513771267,-0.21283283741512182
1658789619269809,0.9395284962233923,-0.1345845731288624,-0.19452201113908618
1658789619285801,0.9512474250400551,-0.11932555123216604,-0.16632333867399085
1658789619301792,0.946730754558633,-0.11627374685282676,-0.18011749446860437
1658789619317784,0.9406271457999544,-0.1211566338597696,-0.18158236057068722
1658789619333776,0.9447775997558558,-0.13788052185854882,-0.15545891508354304
1658789619349767,0.9503929198138401,-0.17218280308232226,-0.11688410772869462
1658789619365759,0.9571068894483865,-0.15167467765316234,-0.09576562142366685
1658789619381751,0.9533226520180058,-0.15252918287937733,-0.060975051499198685
1658789619397742,0.9502708476386665,-0.15326161593041876,-0.06305027847714983
1658789619413734,0.9463645380331123,-0.16815442130159441,-0.05401693751430514
1658789619429726,0.945876249332418,-0.19476615548943332,-0.033630884260318794
1658789619445717,0.9452658884565501,-0.19794003204394617,-0.03460746166170736
1658789619461709,0.9427023727779051,-0.19244678416113548,-0.021057450217440987
1658789619477691,0.930495155260548,-0.207095445181964,-0.0014038300144960658
1658789619493683,0.938185702296483,-0.19049362935835834,-0.01995880064087885
1658789619509675,0.9406271457999544,-0.20184634164950044,-0.023743038071259548
1658789619525666,0.9489280537117573,-0.18158236057068722,-0.020691233691920274
1658789619541658,0.9469748989089801,-0.20172426947432687,0.025574120698863112
1658789619557650,0.9392843518730452,-0.21405355916685753,0.02276646066987098
1658789619573641,0.9473411154345008,-0.21649500267032895,0.017761501487754572
1658789619589633,0.9499046311131458,-0.22906843671320676,0.031311512932020946
1658789619605625,0.9528343633173115,-0.23041123064011604,0.08282597085526788
1658789619621616,0.9488059815365837,-0.23004501411459533,0.09295796139467427
1658789619637608,0.9414816510261694,-0.24115358205539028,0.08331425955596217
1658789619653600,0.9431906614785994,-0.24054322117952243,0.07843137254901933
1658789619669592,0.9375753414206152,-0.24542610818646526,0.09527733272297212
1658789619685583,0.9365987640192266,-0.2603189135576409,0.1419089036392771
1658789619701575,0.9355001144426645,-0.2595864805065995,0.14850080109864994
1658789619717567,0.9345235370412759,-0.25677882047760736,0.14251926451514496
1658789619733558,0.9334248874647137,-0.24603646906233312,0.13665980010681356
1658789619749550,0.9298847943846802,-0.2549477378500038,0.18512245365072122
1658789619765542,0.9223163195239188,-0.2675211718928816,0.1998931868467233
1658789619781533,0.9331807431143666,-0.2659342336156252,0.19037155718318477
1658789619797515,0.9334248874647137,-0.2494544899671931,0.1801174944686048
1658789619813507,0.9269550621805145,-0.2590981918059052,0.23041123064011604
1658789619829499,0.9219501029983981,-0.2683756771190966,0.26691081101701375
1658789619845491,0.9234149691004809,-0.28998245212481866,0.26434729533836876
1658789619861482,0.928786144808118,-0.28790722514686795,0.2612954909590295
1658789619877474,0.9245136186770431,-0.2570229648279545,0.2536049439230945
1658789619893466,0.9090104524299996,-0.24969863431754025,0.2670328831921873
1658789619909457,0.9030289158464946,-0.2738689250019073,0.29633020523384435
1658789619925449,0.9119401846341653,-0.27484550240329586,0.27570000762951086
1658789619941441,0.8998550392919817,-0.26984054322117945,0.2561684596017395
1658789619957432,0.8938735027084768,-0.2590981918059052,0.25690089265278093
1658789619973424,0.8833752956435497,-0.2813153276874951,0.2783855954833294
1658789619989416,0.8850843060959797,-0.27325856412603944,0.28925001907377723
1658789620005407,0.8900892652780961,-0.26263828488593877,0.28961623559929794
1658789620021399,0.8955825131609068,-0.2747234302281223,0.26776531624322875
1658789620037391,0.9008316166933703,-0.26727702754253446,0.28241397726405726
1658789620053382,0.8915541313801789,-0.27325856412603944,0.3229419394216828
1658789620069374,0.8996108949416346,-0.279362172884718,0.346501869230182
1658789620085366,0.8966811627374689,-0.28448920424200796,0.31476310368505356
1658789620101358,0.8854505226215004,-0.28741893644617367,0.3184252689402607
1658789620117340,0.8737315938048367,-0.280216678110933,0.3612726024261841
1658789620133331,0.8598153658350496,-0.2923018234531165,0.384588387884337
1658789620149323,0.8634775310902567,-0.30060273136491933,0.3726253147173262
1658789620165315,0.8604257267109174,-0.3104905775539786,0.35016403448538913
1658789620181306,0.8546883344777596,-0.3057297627222093,0.396551461051347
1658789620197298,0.8533455405508503,-0.30438696879530003,0.424994277866789
1658789620213290,0.8434576943617911,-0.31146715495536714,0.41266498817425834
1658789620229282,0.8521248187991146,-0.30560769054703574,0.4035095750362405
1658789620245273,0.852002746623941,-0.29840543221179505,0.4102235446707869
1658789620261265,0.8423590447852289,-0.2943770504310672,0.4148622873273826
1658789620277257,0.8335698481727318,-0.2999923704890515,0.4149843595025562
1658789620293248,0.8247806515602347,-0.2910811017013808,0.4279240100709547
1658789620309240,0.8183108262760355,-0.3098802166781107,0.4422064545662625
1658789620325232,0.8052491035324634,-0.32806897077897323,0.45258258945601604
1658789620341223,0.8007324330510412,-0.32513923857480753,0.461127641718166
1658789620357215,0.8018310826276034,-0.3180590524147404,0.4997024490730144
1658789620373207,0.803662165255207,-0.3049973296711679,0.4896925307087816
1658789620389198,0.8103761348897534,-0.2974288548104065,0.4728465705348288
1658789620405190,0.8046387426565955,-0.3037766079194322,0.5048294804303044
1658789620421182,0.7852292668039977,-0.33392843518730464,0.5641565575646599
1658789620437164,0.7694819562066071,-0.36041809719996953,0.5796597238117034
1658789620453156,0.7765621423666742,-0.349187457084001,0.5596398870832378
1658789620469147,0.7764400701915006,-0.33807888914320605,0.5447470817120621
1658789620485139,0.7727779049362935,-0.3168383306630047,0.5711146715495534
1658789620501131,0.7527580682078279,-0.32245365072098897,0.6076142519264511
1658789620517122,0.744457160296025,-0.31830319676508756,0.6021210040436404
1658789620533114,0.7428702220187686,-0.350896467536431,0.6049286640726326
1658789620549106,0.7421377889677272,-0.3361257343404289,0.6011444266422519
1658789620565097,0.7283436331731137,-0.3323414969100482,0.6419165331502255
1658789620581089,0.715159838254368,-0.3429617761501489,0.6668192568856339
1658789620597081,0.7111314564736402,-0.31500724803540114,0.6355687800411998
1658789620613072,0.710887312123293,-0.2924238956282901,0.6160372320134275
1658789620629064,0.6975814450293738,-0.2948653391317615,0.6275120164797441
1658789620645056,0.6861066605630581,-0.3201342793926911,0.6748760204470896
1658789620661048,0.6802471961547267,-0.32843518730449395,0.6955062180514231
1658789620677039,0.6822003509575039,-0.3341725795376518,0.6686503395132375
1658789620693031,0.6995345998321509,-0.34308384832532246,0.6643778133821625
1658789620709023,0.6826886396581981,-0.33270771343556893,0.6485084306095983
1658789620725014,0.6671854734111546,-0.31097886625467286,0.6641336690318154
1658789620741006,0.657419699397269,-0.28241397726405726,0.6912336919203481
1658789620756988,0.6526588845654997,-0.3081712062256807,0.6941634241245138
1658789620772980,0.654856183718624,-0.32892347600518823,0.6924544136720838
1658789620788972,0.6461890592813004,-0.31866941329060827,0.6707255664911882
1658789620804963,0.6221408407721061,-0.3169604028381783,0.670481422140841
1658789620820955,0.5900358587014569,-0.3189135576409554,0.7018539711604488
1658789620836947,0.5901579308766305,-0.34149691004806604,0.7483634699015793
1658789620852938,0.597970550087739,-0.35736629282063026,0.7650873579003585
1658789620868930,0.5949187457083998,-0.349187457084001,0.7515373464560922
1658789620884922,0.5861295490959026,-0.34723430228122387,0.7433585107194629
1658789620900913,0.5713588158999006,-0.37299153124284734,0.7663080796520942
1658789620916905,0.5777065690089263,-0.3399099717708096,0.7813229571984435
1658789620932897,0.5846646829938198,-0.34808880750743887,0.8129396505683983
1658789620948888,0.5759975585564963,-0.3236743724727247,0.789990081635767
1658789620964880,0.5529259174486914,-0.36115053025101096,0.8212405584802012
1658789620980872,0.5286335545891507,-0.38043793392843517,0.8034180209048598
1658789620996863,0.5180132753490501,-0.3982604715037765,0.8131837949187455
1658789621012855,0.5181353475242236,-0.3782406347753109,0.814160372320134
1658789621028847,0.5088578622110322,-0.3839780270084687,0.8480964370183868
1658789621044839,0.495551995117113,-0.391302357518883,0.8487067978942546
1658789621060830,0.4977492942702373,-0.4021667811093308,0.8356450751506825
1658789621076782,0.5125200274662394,-0.40985732814526576,0.8407721065079725
1658789621092773,0.496406500343328,-0.4159609369039443,0.838941023880369
1658789621108764,0.4863965819790952,-0.4047302967879758,0.8432135500114439
1658789621124755,0.47223620965896096,-0.3866636148622873,0.838086518654154
1658789621140747,0.4528267338063632,-0.37213702601663234,0.8474860761425189
1658789621156738,0.4389105058365761,-0.3906919966430151,0.838941023880369
1658789621172729,0.42487220569161543,-0.3997253376058594,0.8423590447852289
1658789621188720,0.4175478751812012,-0.4169375143053329,0.8704356450751503
1658789621204712,0.4119325551232169,-0.4240177004654,0.8859388113221947
1658789621220703,0.4208438239108876,-0.424872205691615,0.8811779964904254
1658789621236694,0.42279697871366473,-0.4247501335164414,0.8758068207827883
1658789621252685,0.42694743266956614,-0.4312199588006407,0.8831311512932025
1658789621268676,0.4179140917067219,-0.42255283436331714,0.8911879148546582
1658789621284668,0.4003356984817277,-0.43671320668345137,0.9101091020065617
1658789621300659,0.39533073929961127,-0.42792401007095426,0.8681162737468524
1658789621316650,0.40766002899214193,-0.4252384222171357,0.8672617685206374
1658789621332641,0.40753795681696836,-0.41083390554665433,0.8764171816586561
1658789621348632,0.3867856870374613,-0.40741588464179435,0.8950942244602125
1658789621364624,0.3583428702220184,-0.4148622873273822,0.8957045853360803
1658789621380615,0.3574883649958034,-0.4109559777218279,0.8678721293965053
1658789621396637,0.3611505302510105,-0.42377355611505285,0.8866712443732361
1658789621412628,0.35687800411993553,-0.4050965133134965,0.9008316166933703
1658789621428620,0.3435721370260163,-0.3816586556801709,0.8891126878767075
1658789621444612,0.3305104142824442,-0.3854428931105516,0.8783703364614333
1658789621460603,0.3355153734645606,-0.4028992141603722,0.8748302433813988
1658789621476595,0.34589150835431415,-0.4050965133134965,0.8888685435263604
1658789621492587,0.3339284351873042,-0.4005798428320744,0.9005874723430232
1658789621508578,0.32562752727550137,-0.39740596627756153,0.9334248874647137
1658789621524570,0.3150072480354007,-0.385320820935378,0.9074235141527431
1658789621540562,0.32196536202029424,-0.38434424353398944,0.8897230487525754
1658789621556553,0.3275806820782785,-0.39398794537270154,0.9018081940947589
1658789621572545,0.31219958800640857,-0.3980163271534294,0.9052262149996189
1658789621588537,0.3037766079194322,-0.39484245059891654,0.9212176699473567
1658789621604529,0.29547570000762935,-0.3987487602044708,0.9204852368963152
1658789621620520,0.2953536278324558,-0.4038757915617608,0.9164568551155874
1658789621636512,0.28497749294270225,-0.40741588464179435,0.9057145037003131
1658789621652504,0.2666666666666666,-0.4000915541313801,0.9258564126039524
1658789621668495,0.25018692301823453,-0.4046082246128022,0.9499046311131458
1658789621684487,0.2592202639810788,-0.37262531471732663,0.9186541542687117
1658789621700479,0.2714274814984359,-0.3858091096360723,0.938185702296483
1658789621716461,0.271671625848783,-0.3753109025711452,0.9168230716411081
1658789621732452,0.26190585183489734,-0.38056000610360874,0.916578927290761
1658789621748444,0.2394445716029603,-0.389593347066453,0.9090104524299996
1658789621764436,0.23712520027466244,-0.4050965133134965,0.8980239566643782
1658789621780428,0.23956664377813386,-0.4083924620431829,0.881300068665599
1658789621796419,0.24505989166094455,-0.39191271839475084,0.8808117799649047
1658789621812411,0.21869230182345323,-0.4038757915617608,0.9120622568093388
1658789621828403,0.20794995040817899,-0.40814831769283577,0.9168230716411081
1658789621844394,0.2033112077515833,-0.39349965667200726,0.8803234912642104
1658789621860386,0.21490806439307253,-0.38312352178225373,0.8815442130159461
1658789621876378,0.22418554970626392,-0.3856870374608987,0.8979018844892046
1658789621892369,0.20440985732814543,-0.3975280384527351,0.9137712672617688
1658789621908361,0.1919584954604412,-0.3949645227740901,0.9136491950865953
1658789621924353,0.17706569008926554,-0.39642938887617296,0.9096208133058674
1658789621940344,0.18377965972381194,-0.40692759594110006,0.9328145265888459
1658789621956336,0.17450217441062055,-0.4076600289921415,0.9394064240482187
1658789621972328,0.15985351338979203,-0.39765011062790867,0.9650415808346686
1658789621988319,0.1461814297703521,-0.4066834515907529,0.9866483558403907
1658789622004311,0.1465476462958728,-0.41242084382391075,0.9872587167162585
1658789622020303,0.15130846112764207,-0.4459906919966432,1.0324254215304798
1658789622036255,0.1558251316090642,-0.4353704127565421,1.0927290760662238
1658789622052246,0.1419089036392771,-0.44196231021591537,1.1206836041809716
1658789622068237,0.14972152285038565,-0.4595407034409096,1.0945601586938274
1658789622084228,0.15484855420767563,-0.5011673151750973,1.129350728618296
1658789622100219,0.1616845960173956,-0.49701686121919586,1.1614557106889452
1658789622116211,0.16131837949187489,-0.49823758297093157,1.1732967116807815
1658789622132202,0.16571297779812344,-0.5047074082551308,1.1625543602655073
1658789622148193,0.15692378118562633,-0.5176470588235293,1.139848935683223
1658789622164184,0.1520408941786835,-0.5143511100938429,1.1444876783398188
1658789622180175,0.14117647058823568,-0.5050736247806515,1.1537651636530102
1658789622196167,0.13885709925993783,-0.5127641718165865,1.1376516365300988
1658789622212158,0.15728999771114704,-0.5027542534523537,1.1045700770580602
1658789622228149,0.1582665751125356,-0.4993362325474937,1.0825970855268174
1658789622244140,0.15106431677729493,-0.4837109941252766,1.0543984130617226
1658789622260131,0.14435034714274853,-0.4733348592355231,1.0449988555733576
1658789622276123,0.16412603952086702,-0.46686503395132384,1.0246128023193712
1658789622292114,0.1852445258258948,-0.4745555809872588,1.0082551308461127
1658789622308105,0.20819409475852613,-0.4673533226520181,0.9995880064087892
1658789622324096,0.2086823834592204,-0.4528267338063632,0.96406500343328
1658789622340088,0.2238193331807432,-0.4497749294270239,0.9523460746166172
1658789622356109,0.23297474631876103,-0.45624475471122317,0.9406271457999544
1658789622372101,0.23627069504844744,-0.43463797970550067,0.914015411612116
1658789622388093,0.22992294193942175,-0.4114442664225222,0.9094987411306938
1658789622404084,0.2339513237201496,-0.42572671091783,0.9256122682536052
1658789622420076,0.2548256656748302,-0.4375677119096668,0.9345235370412759
1658789622436068,0.2704509040970473,-0.4369573510337985,0.9297627222095066
1658789622452059,0.28253604943923083,-0.40363164721141365,0.9104753185320824
1658789622468051,0.29498741130693507,-0.40692759594110006,0.9224383916990924
1658789622484043,0.31219958800640857,-0.4352483405813685,0.9380636301213094
1658789622500034,0.3346608682383456,-0.4268253604943921,0.939894712748913
1658789622516026,0.34076447699702417,-0.41290913252460504,0.9251239795529109
1658789622532018,0.35053025101090984,-0.43134203097581425,0.9247577630273902
1658789622548009,0.3565117875944148,-0.4459906919966432,0.9091325246051731
1658789622564001,0.36774242771038335,-0.43512626840619495,0.9031509880216682
1658789622579993,0.36139467460135766,-0.43561455710688923,0.8839856565194175
1658789622595985,0.36066224155031623,-0.4494087129015032,0.8659189745937281
1658789622611976,0.3696955825131605,-0.4497749294270239,0.8435797665369646
1658789622627968,0.39166857404440414,-0.4285343709468221,0.8394293125810632
1658789622643960,0.4236514839398797,-0.39728389410238796,0.8433356221866175
1658789622659951,0.4339055466544597,-0.3971618219272144,0.8324711985961697
1658789622675933,0.4408636606393532,-0.41364156557564646,0.8122072175173569
1658789622691925,0.44953078507667676,-0.4230411230640114,0.8079346913862819
1658789622707917,0.46308079652094314,-0.42597085526817713,0.8047608148317691
1658789622723909,0.46430151827267885,-0.42243076218814357,0.8081788357366291
1658789622739900,0.46344701304646385,-0.4406195162890061,0.8340581368734261
1658789622755892,0.46808575570305955,-0.4343938353551535,0.8018310826276034
1658789622771884,0.48407721065079734,-0.39850461585412367,0.7484855420767529
1658789622787875,0.49909208819714657,-0.39777218280308224,0.7420157167925536
1658789622803867,0.5134966048676279,-0.3982604715037765,0.7477531090257115
1658789622819859,0.5246051728084229,-0.4295109483482107,0.7582513160906386
1658789622835850,0.5481651026169221,-0.43915465018692323,0.7395742732890822
1658789622851842,0.564400701915007,-0.4369573510337985,0.7190661478599223
1658789622867834,0.5750209811551077,-0.4402532997634854,0.7183337148088809
1658789622883825,0.5757534142061491,-0.44330510414282465,0.7200427252613109
1658789622899817,0.5947966735332262,-0.423163195239185,0.6903791866941331
1658789622915809,0.6175020981155104,-0.4143739986266879,0.6947737850003817
1658789622931800,0.6344701304646376,-0.37836270695048446,0.6649881742580304
1658789622947792,0.6323949034866869,-0.36029602502479596,0.6433813992523083
1658789622963784,0.6326390478370341,-0.38934920271610585,0.6658426794842454
1658789622979776,0.6343480582894641,-0.41364156557564646,0.685862516212711
1658789622995727,0.6475318532082097,-0.4043640802624551,0.6959945067521174
1658789623011718,0.6406958113984897,-0.38434424353398944,0.6298313878080419
1658789623027710,0.6459449149309533,-0.39020370794232084,0.600534065766384
1658789623043701,0.6563210498207068,-0.40827038986800934,0.6201876859693289
1658789623059692,0.6701152056153203,-0.41583886472877074,0.6594949263752197
1658789623075683,0.6835431448844131,-0.3975280384527351,0.6380102235446712
1658789623091674,0.7053940642404823,-0.3643244068055238,0.5650110627908749
1658789623107666,0.7089341573205159,-0.36713206683451594,0.5270466163118943
1658789623123657,0.7208972304875259,-0.3622491798275731,0.5490196078431371
1658789623139648,0.7412832837415122,-0.35187304493781957,0.5777065690089263
1658789623155639,0.7709468223086899,-0.33185320820935393,0.5864957656214234
1658789623171630,0.7761959258411535,-0.3261158159761961,0.542793926909285
1658789623187622,0.7715571831845578,-0.33722438391699106,0.4829785610742352
1658789623203613,0.7660639353017471,-0.3362478065156025,0.4829785610742352
1658789623219604,0.7685053788052185,-0.3369802395666439,0.5447470817120621
1658789623235595,0.7754634927901121,-0.3189135576409554,0.5578088044556342
