Timestamp (microseconds),Accel X (g),Accel Y (g),Accel Z (g)
1658790112313934,-0.19208056763561476,0.9949492637521935,0.3029221026932172
1658790112329931,-0.17987335011825722,0.9948271915770199,0.30084687571526647
1658790112345928,-0.17682154573891795,0.9787136644541086,0.28168154421301583
1658790112361925,-0.16083009079118016,0.9405050736247809,0.2561684596017395
1658790112377922,-0.17804226749065366,0.9207293812466624,0.25421530479896237
1658790112393919,-0.18915083543144906,0.9506370641641873,0.2658121614404516
1658790112409916,-0.17303730830853725,0.9577172503242544,0.26483558403906304
1658790112425912,-0.16595712214847014,0.9303730830853745,0.2659342336156252
1658790112441909,-0.17962920576791008,0.9459983215075916,0.2671549553673609
1658790112457906,-0.18048371099412508,0.9679713130388343,0.27789730678263513
1658790112473903,-0.16974135957885084,0.9729762722209507,0.26227206836041805
1658790112489900,-0.1694972152285037,0.9745632104982072,0.2641031509880216
1658790112505897,-0.17560082398718224,0.9685816739147022,0.269108110170138
1658790112521894,-0.1749904631113144,0.9724879835202564,0.24872205691615168
1658790112537891,-0.17840848401617437,0.9826199740596628,0.2516517891203174
1658790112553888,-0.17511253528648796,0.9633325703822386,0.26349279011215376
1658790112569885,-0.1732814526588844,0.9234149691004809,0.2586099031052109
1658790112585882,-0.18353551537346435,0.9320820935378045,0.2755779354543373
1658790112601879,-0.18536659800106792,0.9645532921339743,0.26898603799496446
1658790112617876,-0.18060578316929865,0.9878690775921264,0.275944151979858
1658790112633880,-0.18255893797207579,0.9660181582360572,0.2804608224612801
1658790112649877,-0.1867093919279772,0.951857785915923,0.2852216372930494
1658790112665874,-0.17462424658579367,0.9650415808346686,0.2683756771190966
1658790112681871,-0.17975127794308365,0.9728542000457772,0.25006485084306096
1658790112697868,-0.18451209277485292,0.97944609750515,0.2667887388418402
1658790112713865,-0.17584496833752938,0.9369649805447473,0.26190585183489734
1658790112729862,-0.1854886701762415,0.919996948195621,0.26556801709010447
1658790112745859,-0.201113908598459,0.9553978789959565,0.281071183337148
1658790112761856,-0.19476615548943332,0.9821316853589686,0.2771648737315937
1658790112777853,-0.17596704051270295,0.9817654688334478,0.27985046158541227
1658790112793850,-0.16217288471808944,0.9599145494773786,0.2709391927977416
1658790112809847,-0.1727931639581901,0.9489280537117573,0.27582207980468443
1658790112825843,-0.1890287632562755,0.9916533150225071,0.2893720912489508
1658790112841840,-0.17682154573891795,1.0038605325398642,0.2788738841840237
1658790112857837,-0.17206073090714868,0.9738307774471657,0.26813153276874946
1658790112873834,-0.1867093919279772,0.9413595788509959,0.2620279240100709
1658790112889831,-0.1923247119859619,0.9315938048371102,0.25641260395208665
1658790112905828,-0.18353551537346435,0.9387960631723509,0.23834592202639815
1658790112921825,-0.16559090562294942,0.936476691844053,0.23712520027466244
1658790112937822,-0.161440451667048,0.9207293812466624,0.24542610818646526
1658790112953796,-0.19159227893492048,0.9385519188220037,0.2570229648279545
1658790112969793,-0.19049362935835834,1.0032501716639963,0.2549477378500038
1658790112985790,-0.17596704051270295,1.0117952239261463,0.26776531624322875
1658790113001787,-0.1694972152285037,0.9699244678416115,0.2586099031052109
1658790113017784,-0.16925307087815655,0.940749217975128,0.2788738841840237
1658790113033781,-0.18573281452658863,0.9499046311131458,0.2638590066376745
1658790113049778,-0.18756389715419264,0.9982452124818799,0.24640268558785383
1658790113065775,-0.1745021744106201,0.9962920576791028,0.23504997329671173
1658790113081771,-0.1644922560463873,0.9586938277256429,0.23920042725261315
1658790113097768,-0.17486839093614082,0.9392843518730452,0.24505989166094455
1658790113113765,-0.18048371099412508,0.9470969710841537,0.24847791256580454
1658790113129762,-0.18512245365072078,0.9669947356374458,0.24701304646372169
1658790113145759,-0.1677882047760737,0.9564965285725187,0.24225223163195242
1658790113161756,-0.17059586480506583,0.9549095902952622,0.2494544899671931
1658790113177753,-0.17901884489204223,0.9789578088044557,0.2582436865796902
1658790113193750,-0.1770656900892651,0.9916533150225071,0.2611734187838559
1658790113209747,-0.18512245365072078,0.9804226749065386,0.2650797283894102
1658790113225744,-0.18451209277485292,0.9699244678416115,0.27862973983367656
1658790113241741,-0.17901884489204223,0.9571068894483865,0.280216678110933
1658790113257738,-0.1791409170672158,0.9573510337987337,0.2653238727397573
1658790113273681,-0.17865262836652152,0.9693141069657436,0.2553139543755245
1658790113289678,-0.17132829785610726,0.9622339208056765,0.2556801709010452
1658790113305674,-0.1707179369802394,0.9496604867627987,0.24872205691615168
1658790113321671,-0.16351567864499872,0.9562523842221715,0.2439612420843824
1658790113337667,-0.17303730830853725,0.953566796368353,0.2503089951934081
1658790113353664,-0.17267109178301654,0.9699244678416115,0.2620279240100709
1658790113369660,-0.17010757610437155,0.9634546425574122,0.2764324406805523
1658790113385656,-0.15924315251392374,0.9290302891584652,0.2670328831921873
1658790113401653,-0.17718776226443866,0.9440451667048144,0.2630045014114595
1658790113417649,-0.18182650492103436,0.9702906843671322,0.28033875028610655
1658790113433646,-0.1715724422064544,0.9638208590829329,0.2717936980239566
1658790113449642,-0.16241702906843658,0.9525902189669644,0.24847791256580454
1658790113465639,-0.16302738994430443,0.9352559700923173,0.24701304646372169
1658790113481635,-0.18829633020523406,0.951003280689708,0.272526131074998
1658790113497632,-0.18109407186999293,0.9721217669947357,0.2800946059357594
1658790113513628,-0.16791027695124727,0.9585717555504694,0.2637369344625009
1658790113529625,-0.16852063782711513,0.9545433737697415,0.2506752117189288
1658790113545621,-0.17975127794308365,0.9627222095063708,0.26727702754253446
1658790113561617,-0.18268101014724936,0.9623559929808501,0.2852216372930494
1658790113577614,-0.17804226749065366,0.9505149919890137,0.26898603799496446
1658790113593414,-0.17645532921339724,0.9661402304112308,0.2527504386968795
1658790113609410,-0.17291523613336368,0.9805447470817121,0.2310215915159839
1658790113625406,-0.1782864118410008,0.9855497062638285,0.2565346761272602
1658790113641402,-0.1757228961623558,0.9617456321049822,0.25677882047760736
1658790113657398,-0.166567483024338,0.9386739909971773,0.2482337682154574
1658790113673394,-0.17438010223544653,0.9350118257419702,0.25604638742656594
1658790113689390,-0.18487830930037363,0.9662623025864043,0.2621499961852445
1658790113705386,-0.1867093919279772,0.9965362020294499,0.2667887388418402
1658790113721382,-0.17547875181200867,1.0006866559853513,0.2609292744335088
1658790113737378,-0.17315938048371082,0.9588158999008165,0.25421530479896237
1658790113753374,-0.17718776226443866,0.9251239795529109,0.25641260395208665
1658790113769370,-0.17987335011825722,0.939040207522698,0.2586099031052109
1658790113785366,-0.1812161440451665,0.9687037460898758,0.2439612420843824
1658790113801362,-0.1791409170672158,0.9829861905851836,0.24164187075608456
1658790113817358,-0.1850003814755472,0.9639429312581065,0.25226214999618524
1658790113833354,-0.18573281452658863,0.9344014648661023,0.26312657358663305
1658790113849350,-0.19330128938735047,0.9615014877546351,0.2678873884184023
1658790113865346,-0.18182650492103436,0.9939726863508049,0.27106126497291516
1658790113881342,-0.1787747005416951,0.9812771801327536,0.2604409857328145
1658790113897338,-0.17853055619134794,0.9499046311131458,0.2573891813534752
1658790113913177,-0.17889677271686866,0.9461203936827651,0.25641260395208665
1658790113929172,-0.1841458762493322,0.9561303120469979,0.24542610818646526
1658790113945167,-0.19012741283283763,0.9761501487754636,0.2554360265506981
1658790113961162,-0.18243686579690221,0.9669947356374458,0.2590981918059052
1658790113977157,-0.17804226749065366,0.9549095902952622,0.27069504844739445
1658790113993152,-0.19378957808804476,0.9638208590829329,0.2695963988708323
1658790114009147,-0.20062561989776473,0.9895780880445564,0.26825360494392303
1658790114025142,-0.20172426947432687,0.98457312886244,0.2688639658197909
1658790114041137,-0.18158236057068722,0.9626001373311972,0.25690089265278093
1658790114057132,-0.16668955519951156,0.9442893110551616,0.2208896009765775
1658790114073127,-0.17474631876096725,0.9378194857709623,0.25091935606927596
1658790114089122,-0.18524452582589435,0.9159685664148931,0.2540932326237888
1658790114105117,-0.19085984588387905,0.9267109178301673,0.2587319752803845
1658790114121112,-0.19366750591287119,0.9524681467917908,0.24689097428854812
1658790114137107,-0.19049362935835834,0.9832303349355307,0.2625162127107652
1658790114153102,-0.19671931029221046,0.9824979018844893,0.2781414511329823
1658790114169098,-0.20209048599984758,0.9824979018844893,0.29718471046005934
1658790114185093,-0.19964904249637616,0.9801785305561914,0.3014572365911343
1658790114201088,-0.18756389715419264,0.9756618600747693,0.2907148851758601
1658790114217083,-0.19330128938735047,0.9754177157244222,0.2676432440680552
1658790114232940,-0.19586480506599546,0.9823758297093157,0.26312657358663305
1658790114248935,-0.18829633020523406,0.9500267032883194,0.24884412909132525
1658790114264929,-0.1854886701762415,0.9240253299763488,0.2066071564812697
1658790114280924,-0.1902494850080112,0.9448996719310294,0.23553826199740602
1658790114296918,-0.18512245365072078,0.980300602731365,0.2525062943465324
1658790114312913,-0.17962920576791008,0.9551537346456094,0.24664682993820097
1658790114328908,-0.18597695887693577,0.9293965056839859,0.2609292744335088
1658790114344902,-0.20343327992675686,0.9568627450980394,0.2728923476005187
1658790114360897,-0.19842832074464045,0.9945830472266728,0.28278019378957797
1658790114376891,-0.18426794842450578,0.9867704280155642,0.2683756771190966
1658790114392886,-0.18268101014724936,0.9641870756084536,0.26776531624322875
1658790114408880,-0.18646524757763006,0.9597924773022051,0.2578774700541695
1658790114424875,-0.19220263981078833,0.9645532921339743,0.24750133516441597
1658790114440869,-0.18512245365072078,0.9612573434042879,0.2401770046540017
1658790114456864,-0.17926298924238937,0.9308613717860688,0.2523842221713588
1658790114472859,-0.18304722667277007,0.9081559472037846,0.2650797283894102
1658790114488853,-0.19378957808804476,0.9319600213626309,0.2604409857328145
1658790114504848,-0.206240939955749,0.9826199740596628,0.2533607995727474
1658790114520842,-0.19586480506599546,1.0192416266117341,0.26227206836041805
1658790114536837,-0.18451209277485292,1.0023956664377813,0.2653238727397573
1658790114552703,-0.17901884489204223,0.9384298466468302,0.2654459449149309
1658790114568698,-0.18683146410315077,0.9160906385900667,0.2465247577630274
1658790114584692,-0.19928282597085545,0.9623559929808501,0.24408331425955598
1658790114600686,-0.18976119630731692,0.9727321278706036,0.24847791256580454
1658790114616680,-0.1803616388189515,0.9547875181200887,0.2461585412375067
1658790114632674,-0.18695353627832434,0.9541771572442208,0.24310673685816742
1658790114648668,-0.19134813458457334,0.9744411383230336,0.2647135118638895
1658790114664662,-0.18719768062867148,0.9547875181200887,0.2620279240100709
1658790114680656,-0.19122606240939977,0.9538109407187001,0.25677882047760736
1658790114696650,-0.19378957808804476,0.9568627450980394,0.26276035706111234
1658790114712644,-0.19671931029221046,0.9816433966582743,0.2630045014114595
1658790114728638,-0.19171435111009405,0.9873807888914321,0.26642252231631947
1658790114744632,-0.18731975280384505,0.9655298695353629,0.25091935606927596
1658790114760626,-0.18133821622034008,0.9326924544136723,0.25983062485694663
1658790114776620,-0.19159227893492048,0.9109636072327767,0.2575112535286488
1658790114792615,-0.20904859998474112,0.9590600442511636,0.2545815213244831
1658790114808609,-0.2024567025253683,0.983718623636225,0.25470359349965666
1658790114824603,-0.19391165026321833,0.9824979018844893,0.2599526970321202
1658790114840597,-0.18439002059967935,0.9623559929808501,0.26605630579079875
1658790114856591,-0.18365758754863792,0.9423361562523844,0.2586099031052109
1658790114872467,-0.19720759899290474,0.9506370641641873,0.2516517891203174
1658790114888460,-0.19537651636530118,0.9738307774471657,0.24957656214236668
1658790114904454,-0.19513237201495404,0.9694361791409172,0.2641031509880216
1658790114920447,-0.19806210421911974,0.9662623025864043,0.26190585183489734
1658790114936441,-0.19085984588387905,0.9613794155794615,0.2587319752803845
1658790114952435,-0.18890669108110192,0.950148775463493,0.24847791256580454
1658790114968428,-0.19598687724116903,0.9594262607766844,0.25677882047760736
1658790114984422,-0.1973296711680783,0.9740749217975129,0.2641031509880216
1658790115000415,-0.1961089494163426,0.9741969939726864,0.25470359349965666
1658790115016409,-0.1952544441901276,0.9865262836652171,0.25470359349965666
1658790115032403,-0.19183642328526762,0.9656519417105365,0.24884412909132525
1658790115048396,-0.1965972381170369,0.9389181353475244,0.2633707179369802
1658790115064390,-0.19244678416113548,0.9494163424124515,0.2670328831921873
1658790115080383,-0.18756389715419264,0.9464866102082858,0.25506981002517737
1658790115096377,-0.1885404745555812,0.952712291142138,0.24957656214236668
1658790115112371,-0.19134813458457334,0.9616235599298086,0.2356603341725796
1658790115128364,-0.19391165026321833,0.9571068894483865,0.24591439688715955
1658790115144358,-0.19037155718318477,0.947585259784848,0.2616617074845502
1658790115160351,-0.1969634546425576,0.9571068894483865,0.2667887388418402
1658790115176345,-0.1981841763942933,0.97773708705272,0.27606622415503157
1658790115192230,-0.1902494850080112,0.953566796368353,0.2705729762722209
1658790115208223,-0.18878461890592835,0.9417257953765166,0.25641260395208665
1658790115224216,-0.19098191805905262,0.9480735484855423,0.2623941405355916
1658790115240209,-0.20209048599984758,0.9590600442511636,0.2658121614404516
1658790115256202,-0.20001525902189687,0.9596704051270315,0.25799954222934307
1658790115272195,-0.19330128938735047,0.9588158999008165,0.2642252231631952
1658790115288189,-0.18780804150453978,0.9490501258869308,0.26141756313420306
1658790115304182,-0.19842832074464045,0.9650415808346686,0.2562905317769131
1658790115320175,-0.19342336156252404,0.9840848401617457,0.26520180056458376
1658790115336168,-0.18866254673075478,0.9536888685435265,0.2609292744335088
1658790115352161,-0.19415579461356547,0.9378194857709623,0.2609292744335088
1658790115368154,-0.20221255817502115,0.9532005798428322,0.2687418936446173
1658790115384147,-0.20733958953231113,0.9727321278706036,0.2670328831921873
1658790115400140,-0.1986724650949876,0.9849393453879607,0.2717936980239566
1658790115416134,-0.19415579461356547,0.9661402304112308,0.25506981002517737
1658790115432127,-0.19977111467154973,0.9521019302662701,0.25897611963073164
1658790115448120,-0.19855039291981402,0.9557640955214772,0.26227206836041805
1658790115464113,-0.19964904249637616,0.9444113832303351,0.25934233615625235
1658790115480106,-0.19354543373769761,0.9522240024414437,0.2461585412375067
1658790115496099,-0.19928282597085545,0.9563744563973451,0.26825360494392303
1658790115511993,-0.20135805294880615,0.9563744563973451,0.2562905317769131
1658790115527986,-0.1981841763942933,0.9595483329518579,0.2558022430762188
1658790115543978,-0.19757381551842546,0.9466086823834594,0.25506981002517737
1658790115559971,-0.20685130083161685,0.9600366216525522,0.26056305790798806
1658790115575964,-0.205386434729534,0.9792019531548029,0.27692072938124657
1658790115591956,-0.19830624856946688,0.9634546425574122,0.2637369344625009
1658790115607949,-0.19037155718318477,0.9489280537117573,0.25970855268177306
1658790115623942,-0.19757381551842546,0.931349660486763,0.25641260395208665
1658790115639934,-0.19720759899290474,0.949294270237278,0.2582436865796902
1658790115655927,-0.19501029983978047,0.951003280689708,0.2663004501411459
1658790115671919,-0.201968413824674,0.9626001373311972,0.2549477378500038
1658790115687912,-0.20148012512397973,0.9776150148775464,0.2549477378500038
1658790115703905,-0.20221255817502115,0.9817654688334478,0.2637369344625009
1658790115719897,-0.1952544441901276,0.9689478904402229,0.2658121614404516
1658790115735890,-0.20062561989776473,0.954421301594568,0.271671625848783
1658790115751883,-0.1978179598687726,0.9507591363393608,0.26739909971770803
1658790115767875,-0.20062561989776473,0.9608911268787672,0.2515297169451438
1658790115783868,-0.2024567025253683,0.9746852826733807,0.25885404745555807
1658790115799861,-0.19562066071564832,0.97431906614786,0.25177386129549095
1658790115815853,-0.19769588769359903,0.9413595788509959,0.2587319752803845
1658790115831726,-0.1986724650949876,0.9345235370412759,0.26019684138246735
1658790115847718,-0.20856031128404684,0.9525902189669644,0.2594644083314259
1658790115863710,-0.20416571297779829,0.9749294270237279,0.26105134660868234
1658790115879702,-0.19806210421911974,0.9590600442511636,0.2726482032501716
1658790115895694,-0.19769588769359903,0.9517357137407494,0.2604409857328145
1658790115911687,-0.19794003204394617,0.9478294041351951,0.2565346761272602
1658790115927679,-0.19977111467154973,0.9402609292744337,0.2590981918059052
1658790115943671,-0.20587472343022828,0.9474631876096744,0.25384908827344166
1658790115959663,-0.20392156862745114,0.9684596017395286,0.2678873884184023
1658790115975655,-0.202822919050889,0.9633325703822386,0.27032883192187374
1658790115991647,-0.20843823910887327,0.9645532921339743,0.2695963988708323
1658790116007640,-0.19940489814602902,0.955275806820783,0.2676432440680552
1658790116023632,-0.1911039902342262,0.9425803006027316,0.2594644083314259
1658790116039624,-0.19940489814602902,0.9483176928358894,0.25470359349965666
1658790116055616,-0.20001525902189687,0.9651636530098422,0.25934233615625235
1658790116071608,-0.19830624856946688,0.9639429312581065,0.25848783093003735
1658790116087600,-0.19598687724116903,0.9567406729228658,0.2566567483024338
1658790116103592,-0.1943999389639126,0.939894712748913,0.24298466468299385
1658790116119585,-0.2091706721599147,0.9532005798428322,0.26068513008316163
1658790116135577,-0.21991302357518894,0.973464560921645,0.2649576562142366
1658790116151489,-0.2112458991378654,0.9754177157244222,0.269962615396353
1658790116167481,-0.1928130006866562,0.9557640955214772,0.27032883192187374
1658790116183473,-0.19305714503700333,0.9451438162813766,0.2676432440680552
1658790116199465,-0.19366750591287119,0.9584496833752958,0.2666666666666666
1658790116215458,-0.20257877470054186,0.9773708705271993,0.26227206836041805
1658790116231450,-0.21026932173647683,0.9795681696803236,0.2583657587548638
1658790116247442,-0.20697337300679042,0.9499046311131458,0.26263828488593877
1658790116263434,-0.203677424277104,0.9525902189669644,0.2670328831921873
1658790116279426,-0.20099183642328544,0.929640650034333,0.26483558403906304
1658790116295418,-0.20990310521095612,0.9275654230563823,0.26520180056458376
1658790116311411,-0.21356527046616325,0.9685816739147022,0.26153963530937663
1658790116327403,-0.20514229037918685,0.9907988097962921,0.2578774700541695
1658790116343395,-0.20880445563439398,0.9739528496223393,0.26068513008316163
1658790116359387,-0.21014724956130326,0.9557640955214772,0.28619821469443796
1658790116375379,-0.20404364080262472,0.9258564126039524,0.2850995651178758
1658790116391371,-0.20502021820401328,0.9068131532768753,0.26825360494392303
1658790116407364,-0.2095368886854354,0.9391622796978716,0.2628824292362859
1658790116423356,-0.20794995040817899,0.9738307774471657,0.25763332570382236
1658790116439348,-0.21173418783855968,0.9942168307011521,0.26398107881284805
1658790116455340,-0.19977111467154973,0.9816433966582743,0.2611734187838559
1658790116471252,-0.19415579461356547,0.908888380254826,0.26984054322117945
1658790116487244,-0.20477607385366614,0.912306401159686,0.2754558632791637
1658790116503235,-0.21014724956130326,0.9738307774471657,0.2876630807965208
1658790116519227,-0.2095368886854354,0.9889677271686885,0.27740901808194085
1658790116535219,-0.2016021972991533,0.9738307774471657,0.26947432669565874
1658790116551211,-0.19940489814602902,0.9479514763103687,0.2503089951934081
1658790116567202,-0.20257877470054186,0.9413595788509959,0.2570229648279545
1658790116583194,-0.20086976424811187,0.9409933623254751,0.26849774929427017
1658790116599186,-0.203677424277104,0.9384298466468302,0.2603189135576409
1658790116615177,-0.2103913939116504,0.9599145494773786,0.2523842221713588
1658790116631169,-0.2133211261158161,0.9805447470817121,0.2649576562142366
1658790116647161,-0.21234454871442754,0.9815213244831007,0.2822919050888837
1658790116663152,-0.205386434729534,0.9507591363393608,0.2789959563591973
1658790116679144,-0.20135805294880615,0.9290302891584652,0.26605630579079875
1658790116695136,-0.2133211261158161,0.9452658884565501,0.26825360494392303
1658790116711127,-0.21100175478751826,0.9668726634622722,0.2633707179369802
1658790116727119,-0.21344319829098968,0.9626001373311972,0.2654459449149309
1658790116743111,-0.21185626001373326,0.9568627450980394,0.2670328831921873
1658790116759102,-0.20392156862745114,0.9447775997558558,0.2713054093232623
1658790116775094,-0.20587472343022828,0.9392843518730452,0.2612954909590295
1658790116791015,-0.20843823910887327,0.9568627450980394,0.26691081101701375
1658790116807006,-0.2167391470206761,0.9698023956664379,0.27325856412603944
1658790116822998,-0.2103913939116504,0.9848172732127871,0.2666666666666666
1658790116838989,-0.1981841763942933,0.9665064469367515,0.2566567483024338
1658790116854980,-0.20148012512397973,0.9302510109102009,0.25934233615625235
1658790116870971,-0.2066071564812697,0.9422140840772109,0.25299458304722666
1658790116886963,-0.21075761043717112,0.9638208590829329,0.2604409857328145
1658790116902954,-0.20978103303578255,0.9669947356374458,0.2525062943465324
1658790116918945,-0.21063553826199755,0.9702906843671322,0.2595864805065995
1658790116934936,-0.2048981460288397,0.9634546425574122,0.27203784237430373
1658790116950927,-0.20001525902189687,0.9411154345006487,0.28241397726405726
1658790116966919,-0.206240939955749,0.9447775997558558,0.2831464103150987
1658790116982910,-0.2048981460288397,0.9698023956664379,0.26105134660868234
1658790116998901,-0.20318913557640972,0.9779812314030671,0.25848783093003735
1658790117014892,-0.20123598077363258,0.9668726634622722,0.2586099031052109
1658790117030883,-0.20587472343022828,0.9478294041351951,0.271671625848783
1658790117046875,-0.20904859998474112,0.9342793926909287,0.2704509040970473
1658790117062866,-0.2057526512550547,0.9521019302662701,0.2671549553673609
1658790117078857,-0.19476615548943332,0.9538109407187001,0.2717936980239566
1658790117094848,-0.20086976424811187,0.9562523842221715,0.26654459449149304
1658790117110778,-0.20599679560540185,0.9757839322499429,0.25677882047760736
1658790117126770,-0.2066071564812697,0.9524681467917908,0.27313649195086587
1658790117142761,-0.21051346608682397,0.9187762264438852,0.27655451285572585
1658790117158752,-0.20477607385366614,0.9320820935378045,0.2809491111619744
1658790117174743,-0.2074616617074847,0.9506370641641873,0.2709391927977416
1658790117190734,-0.1998931868467233,0.9822537575341421,0.2630045014114595
1658790117206726,-0.19623102159151617,0.9522240024414437,0.26849774929427017
1658790117222717,-0.2003814755474176,0.9267109178301673,0.273380636301213
1658790117238708,-0.20721751735713756,0.945021744106203,0.278507667658503
1658790117254699,-0.20221255817502115,0.9695582513160907,0.27533379110399014
1658790117270691,-0.19562066071564832,0.9632104982070651,0.2721599145494773
1658790117286682,-0.19256885633630905,0.9462424658579387,0.2721599145494773
1658790117302673,-0.20025940337224402,0.9306172274357216,0.26605630579079875
1658790117318664,-0.20440985732814543,0.9480735484855423,0.26947432669565874
1658790117334655,-0.20172426947432687,0.9619897764553293,0.26642252231631947
1658790117350647,-0.2024567025253683,0.9680933852140079,0.2747234302281223
1658790117366638,-0.19366750591287119,0.9606469825284201,0.27411306935225443
1658790117382629,-0.19891660944533474,0.935622186617838,0.2654459449149309
1658790117398620,-0.21222247653925397,0.9422140840772109,0.27618829633020514
1658790117414611,-0.21283283741512182,0.9563744563973451,0.28998245212481866
1658790117430511,-0.2024567025253683,0.9536888685435265,0.27618829633020514
1658790117446502,-0.19830624856946688,0.9566186007476922,0.26691081101701375
1658790117462493,-0.20123598077363258,0.951003280689708,0.26483558403906304
1658790117478483,-0.21344319829098968,0.9594262607766844,0.27032883192187374
1658790117494474,-0.21173418783855968,0.9680933852140079,0.27362478065156015
1658790117510465,-0.20392156862745114,0.9472190432593273,0.2704509040970473
1658790117526456,-0.19647516594186332,0.9368429083695737,0.2620279240100709
1658790117542446,-0.2066071564812697,0.9512474250400551,0.2721599145494773
1658790117558437,-0.2112458991378654,0.9881132219424735,0.2735027084763866
1658790117574428,-0.20843823910887327,0.9773708705271993,0.27570000762951086
1658790117590418,-0.206240939955749,0.939040207522698,0.2766765850308994
1658790117606409,-0.2016021972991533,0.9331807431143666,0.2671549553673609
1658790117622400,-0.20587472343022828,0.9571068894483865,0.2666666666666666
1658790117638391,-0.20941481651026184,0.9765163653009843,0.27154955367360945
1658790117654381,-0.2095368886854354,0.9710231174181736,0.27032883192187374
1658790117670372,-0.20172426947432687,0.9459983215075916,0.28119325551232155
1658790117686363,-0.2066071564812697,0.9250019073777374,0.2763103685053787
1658790117702354,-0.21600671396963467,0.9494163424124515,0.26153963530937663
1658790117718344,-0.2095368886854354,0.9732204165712979,0.27862973983367656
1658790117734335,-0.20587472343022828,0.9580834668497751,0.26398107881284805
1658790117750244,-0.19256885633630905,0.9506370641641873,0.2697184710460059
1658790117766234,-0.19220263981078833,0.9341573205157552,0.2638590066376745
1658790117782225,-0.20782787823300541,0.9328145265888459,0.2653238727397573
1658790117798216,-0.21893644617380037,0.9624780651560236,0.27570000762951086
1658790117814207,-0.21429770351720467,0.9759060044251164,0.28290226596475154
1658790117830197,-0.1995269703212026,0.9722438391699093,0.2730144197756923
1658790117846188,-0.19427786678873904,0.952712291142138,0.2676432440680552
1658790117862179,-0.19830624856946688,0.9271992065308616,0.27069504844739445
1658790117878170,-0.20965896086060898,0.9234149691004809,0.26739909971770803
1658790117894160,-0.21441977569237824,0.9635767147325858,0.2645914396887159
1658790117910151,-0.201968413824674,0.9583276112001222,0.2713054093232623
1658790117926142,-0.19964904249637616,0.9513694972152287,0.26190585183489734
1658790117942133,-0.20355535210193043,0.9654077973601893,0.2654459449149309
1658790117958123,-0.20477607385366614,0.9522240024414437,0.2746013580529487
1658790117974114,-0.21197833218890683,0.9434348058289466,0.27582207980468443
1658790117990105,-0.20636301213092256,0.9613794155794615,0.2726482032501716
1658790118006096,-0.21075761043717112,0.9610131990539408,0.2653238727397573
1658790118022086,-0.22101167315175108,0.9757839322499429,0.26556801709010447
1658790118038077,-0.20770580605783184,0.9572289616235601,0.2717936980239566
1658790118054068,-0.20221255817502115,0.9077897306782639,0.27118333714808873
1658790118070037,-0.19879453727016116,0.9208514534218359,0.2752117189288166
1658790118086028,-0.20843823910887327,0.9626001373311972,0.2604409857328145
1658790118102018,-0.21405355916685753,0.9937285420004578,0.2573891813534752
1658790118118008,-0.20770580605783184,0.9856717784390021,0.26691081101701375
1658790118133998,-0.2003814755474176,0.9438010223544673,0.2840009155413137
1658790118149989,-0.2112458991378654,0.9195086594949267,0.2868085755703058
1658790118165979,-0.21942473487449465,0.9528343633173115,0.28204776073853655
1658790118181969,-0.21527428091859324,0.98628213931487,0.27118333714808873
1658790118197960,-0.20697337300679042,0.9616235599298086,0.2616617074845502
1658790118213950,-0.20941481651026184,0.949294270237278,0.26654459449149304
1658790118229940,-0.20782787823300541,0.9440451667048144,0.27789730678263513
1658790118245930,-0.2124666208896011,0.938185702296483,0.2700846875715266
1658790118261921,-0.21185626001373326,0.9582055390249486,0.2743572137026016
1658790118277911,-0.20819409475852613,0.9586938277256429,0.2717936980239566
1658790118293901,-0.21393148699168396,0.9647974364843215,0.2805828946364537
1658790118309891,-0.20563057907988114,0.9538109407187001,0.27496757457846943
1658790118325882,-0.1990386816205083,0.9303730830853745,0.27228198672465087
1658790118341872,-0.21258869306477468,0.9293965056839859,0.2697184710460059
1658790118357862,-0.21820401312275894,0.9607690547035936,0.278507667658503
1658790118373852,-0.2146639200427254,0.9584496833752958,0.2771648737315937
1658790118389770,-0.20465400167849257,0.9699244678416115,0.27191577019913016
1658790118405760,-0.20343327992675686,0.9574731059739072,0.2735027084763866
1658790118421751,-0.20843823910887327,0.9355001144426645,0.279362172884718
1658790118437741,-0.21356527046616325,0.9256122682536052,0.279362172884718
1658790118453731,-0.2175936522468911,0.9521019302662701,0.28204776073853655
1658790118469721,-0.20892652780956755,0.9660181582360572,0.2680094605935759
1658790118485712,-0.2095368886854354,0.9573510337987337,0.2638590066376745
1658790118501702,-0.21600671396963467,0.9589379720759901,0.26861982146944374
1658790118517692,-0.2108796826123447,0.9541771572442208,0.2705729762722209
1658790118533682,-0.20672922865644328,0.9342793926909287,0.2671549553673609
1658790118549673,-0.2112458991378654,0.9324483100633252,0.2678873884184023
1658790118565663,-0.22479591058213177,0.96577401388571,0.27203784237430373
1658790118581653,-0.21185626001373326,0.9784695201037614,0.28155947203784226
1658790118597643,-0.20550850690470757,0.9425803006027316,0.2766765850308994
1658790118613634,-0.20611886778057542,0.9286640726329445,0.27496757457846943
1658790118629624,-0.21490806439307253,0.952712291142138,0.2735027084763866
1658790118645614,-0.21808194094758537,0.9745632104982072,0.26691081101701375
1658790118661605,-0.21478599221789896,0.9713893339436943,0.2616617074845502
1658790118677595,-0.20929274433508827,0.9585717555504694,0.2697184710460059
1658790118693585,-0.2066071564812697,0.9395284962233923,0.2789959563591973
1658790118709533,-0.22027924010070965,0.9396505683985659,0.2766765850308994
1658790118725523,-0.21820401312275894,0.9497825589379723,0.2747234302281223
1658790118741513,-0.21136797131303897,0.9502708476386665,0.2667887388418402
1658790118757503,-0.21026932173647683,0.9623559929808501,0.2678873884184023
1658790118773492,-0.2138094148165104,0.9693141069657436,0.2763103685053787
1658790118789482,-0.21454184786755182,0.9735866330968186,0.2752117189288166
1658790118805472,-0.206240939955749,0.9479514763103687,0.26483558403906304
1658790118821462,-0.20965896086060898,0.9336690318150609,0.2687418936446173
1658790118837452,-0.21783779659723823,0.9418478675516901,0.2792401007095444
1658790118853441,-0.2175936522468911,0.9641870756084536,0.2869306477454794
1658790118869431,-0.21051346608682397,0.9547875181200887,0.2852216372930494
1658790118885421,-0.20404364080262472,0.9246356908522166,0.27911802853437084
1658790118901411,-0.2175936522468911,0.937331197070268,0.2754558632791637
1658790118917400,-0.21661707484550252,0.9632104982070651,0.27362478065156015
1658790118933390,-0.2066071564812697,0.9462424658579387,0.2746013580529487
1658790118949380,-0.20440985732814543,0.912306401159686,0.26935225452048517
1658790118965370,-0.21405355916685753,0.9208514534218359,0.2735027084763866
1658790118981360,-0.21478599221789896,0.9582055390249486,0.271671625848783
1658790118997349,-0.21368734264133682,0.9776150148775464,0.27777523460746156
1658790119013339,-0.20697337300679042,0.9669947356374458,0.28448920424200796
1658790119029266,-0.2057526512550547,0.9508812085145344,0.27496757457846943
1658790119045256,-0.20611886778057542,0.9365987640192266,0.27069504844739445
1658790119061246,-0.2179598687724118,0.9491721980621044,0.26776531624322875
1658790119077235,-0.21319905394064254,0.9651636530098422,0.27484550240329586
1658790119093225,-0.20514229037918685,0.9685816739147022,0.26861982146944374
1658790119109215,-0.19745174334325188,0.9497825589379723,0.26276035706111234
1658790119125205,-0.21014724956130326,0.9341573205157552,0.2666666666666666
1658790119141194,-0.2313878080415046,0.9505149919890137,0.28241397726405726
1658790119157184,-0.2276035706111239,0.9710231174181736,0.27948424505989156
1658790119173174,-0.2205233844510568,0.9549095902952622,0.27447928587777515
1658790119189164,-0.21637293049515538,0.9459983215075916,0.27020675974670016
1658790119205154,-0.21857022964827966,0.951857785915923,0.26825360494392303
1658790119221143,-0.22504005493247892,0.9623559929808501,0.27203784237430373
1658790119237133,-0.22577248798352034,0.9528343633173115,0.2818036163881894
1658790119253123,-0.2200350957503625,0.9389181353475244,0.2754558632791637
1658790119269113,-0.21857022964827966,0.939040207522698,0.2780193789578087
1658790119285102,-0.22162203402761893,0.9654077973601893,0.28632028686961153
1658790119301092,-0.21612878614480824,0.9628442816815443,0.2894941634241244
1658790119317082,-0.2103913939116504,0.9302510109102009,0.2809491111619744
1658790119333072,-0.21393148699168396,0.9324483100633252,0.2661783779659723
1658790119349029,-0.2158846417944611,0.9541771572442208,0.2797283894102387
1658790119365018,-0.21869230182345323,0.9842069123369193,0.2780193789578087
1658790119381008,-0.2103913939116504,0.9715114061188679,0.2898603799496451
1658790119396997,-0.21222247653925397,0.906324864576181,0.28375677119096654
1658790119412986,-0.22418554970626392,0.8930189974822618,0.29681849393453863
1658790119428976,-0.23382925154497602,0.9413595788509959,0.29034866865033937
1658790119444965,-0.2229648279545282,0.9893339436942092,0.2766765850308994
1658790119460954,-0.21808194094758537,0.9711451895933472,0.27032883192187374
1658790119476944,-0.22333104448004892,0.9489280537117573,0.27911802853437084
1658790119492933,-0.21857022964827966,0.929640650034333,0.2919356069275958
1658790119508922,-0.21600671396963467,0.9340352483405816,0.2880292973220415
1658790119524912,-0.20794995040817899,0.940749217975128,0.2813153276874951
1658790119540901,-0.22076752880140393,0.9611352712291144,0.2754558632791637
1658790119556890,-0.22735942626077676,0.9661402304112308,0.2800946059357594
1658790119572879,-0.22064545662623036,0.9604028381780729,0.2893720912489508
1658790119588869,-0.21515220874341967,0.9348897535667966,0.27985046158541227
1658790119604858,-0.21429770351720467,0.9374532692454416,0.2818036163881894
1658790119620847,-0.21515220874341967,0.954421301594568,0.27191577019913016
1658790119636837,-0.2263828488593882,0.9597924773022051,0.2809491111619744
1658790119652826,-0.2280918593118182,0.9689478904402229,0.2876630807965208
1658790119668792,-0.21734950789654395,0.936476691844053,0.2833905546654458
1658790119684782,-0.21747158007171752,0.9269550621805145,0.27997253376058584
1658790119700771,-0.2267490653849089,0.9632104982070651,0.2675211718928816
1658790119716760,-0.22442969405661106,0.983718623636225,0.2695963988708323
1658790119732750,-0.2146639200427254,0.9577172503242544,0.2747234302281223
1658790119748739,-0.2103913939116504,0.931349660486763,0.28741893644617367
1658790119764728,-0.21100175478751826,0.9246356908522166,0.28204776073853655
1658790119780717,-0.2150301365682461,0.9405050736247809,0.26861982146944374
1658790119796707,-0.2162508583199818,0.9429465171282523,0.2714274814984359
1658790119812696,-0.22235446707866036,0.9397726405737394,0.2833905546654458
1658790119828685,-0.22565041580834677,0.9656519417105365,0.2822919050888837
1658790119844675,-0.21283283741512182,0.9650415808346686,0.28912794689860366
1658790119860664,-0.2074616617074847,0.9267109178301673,0.28827344167238866
1658790119876653,-0.21185626001373326,0.9212176699473567,0.2859540703440908
1658790119892643,-0.21661707484550252,0.9494163424124515,0.2788738841840237
1658790119908632,-0.22040131227588322,0.9473411154345008,0.26947432669565874
1658790119924621,-0.21576256961928753,0.9606469825284201,0.278507667658503
1658790119940611,-0.21771572442206466,0.953566796368353,0.2826581216144044
1658790119956600,-0.2133211261158161,0.9584496833752958,0.28790722514686795
1658790119972589,-0.2153963530937668,0.9253681239032581,0.28278019378957797
1658790119988525,-0.21857022964827966,0.9273212787060352,0.2792401007095444
1658790120004514,-0.2171053635461968,0.9525902189669644,0.2848554207675287
1658790120020504,-0.21490806439307253,0.9818875410086214,0.28082703898680084
1658790120036493,-0.2112458991378654,0.9698023956664379,0.2747234302281223
1658790120052482,-0.21686121919584966,0.9478294041351951,0.27875181200885013
1658790120068472,-0.21454184786755182,0.9135271229114217,0.28448920424200796
1658790120084461,-0.23089951934081032,0.9124284733348595,0.2919356069275958
1658790120100450,-0.23028915846494247,0.9541771572442208,0.277653162432288
1658790120116439,-0.22369726100556964,0.971755550469215,0.27789730678263513
1658790120132429,-0.21991302357518894,0.9737087052719922,0.2835126268406194
1658790120148418,-0.22540627145799963,0.9577172503242544,0.28961623559929794
1658790120164407,-0.22186617837796607,0.9479514763103687,0.28876173037308295
1658790120180397,-0.21283283741512182,0.9275654230563823,0.27948424505989156
1658790120196386,-0.21991302357518894,0.9303730830853745,0.2821698329137101
1658790120212375,-0.22687113756008248,0.9508812085145344,0.28155947203784226
1658790120228365,-0.22491798275730535,0.9699244678416115,0.28253604943923083
1658790120244354,-0.22479591058213177,0.9538109407187001,0.27862973983367656
1658790120260343,-0.22369726100556964,0.9229266803997866,0.29584191653315006
1658790120276332,-0.22650492103456177,0.9279316395819031,0.29291218432898436
1658790120292322,-0.2280918593118182,0.9646753643091479,0.3032883192187379
1658790120308288,-0.22613870450904106,0.9688258182650493,0.28998245212481866
1658790120324278,-0.21551842526894038,0.9580834668497751,0.2738689250019073
1658790120340267,-0.21271076523994825,0.9213397421225302,0.2746013580529487
1658790120356256,-0.22650492103456177,0.9350118257419702,0.2848554207675287
1658790120372245,-0.22076752880140393,0.9477073319600215,0.28619821469443796
1658790120388235,-0.22040131227588322,0.9488059815365837,0.2864423590447851
1658790120404224,-0.2171053635461968,0.9491721980621044,0.2840009155413137
1658790120420213,-0.22613870450904106,0.9524681467917908,0.29510948348210864
1658790120436203,-0.22455176623178463,0.9610131990539408,0.28583199816891725
1658790120452192,-0.21820401312275894,0.9533226520180058,0.26642252231631947
1658790120468181,-0.2171053635461968,0.9337911039902345,0.27533379110399014
1658790120484171,-0.22491798275730535,0.9285420004577709,0.29413290608072007
1658790120500160,-0.22687113756008248,0.9464866102082858,0.2953536278324558
1658790120516149,-0.2153963530937668,0.9505149919890137,0.29010452429999223
1658790120532138,-0.21026932173647683,0.9395284962233923,0.2857099259937437
1658790120548128,-0.2138094148165104,0.9478294041351951,0.2914473182269015
1658790120564117,-0.2188143739986268,0.9481956206607158,0.29010452429999223
1658790120580106,-0.22308690012970178,0.9622339208056765,0.2833905546654458
1658790120596096,-0.2141756313420311,0.9644312199588008,0.280216678110933
1658790120612085,-0.21075761043717112,0.9302510109102009,0.28790722514686795
1658790120628051,-0.2124666208896011,0.916578927290761,0.269962615396353
1658790120644040,-0.21930266269932108,0.9453879606317237,0.28070496681162727
1658790120660029,-0.21954680704966822,0.9651636530098422,0.27704280155642014
1658790120676018,-0.22149996185244536,0.9643091477836272,0.29010452429999223
1658790120692007,-0.21319905394064254,0.9579613946746015,0.2898603799496451
1658790120707996,-0.2086823834592204,0.9385519188220037,0.29340047302967864
1658790120723984,-0.2229648279545282,0.953566796368353,0.27191577019913016
1658790120739973,-0.22284275577935464,0.9918974593728542,0.28155947203784226
1658790120755962,-0.2196688792248418,0.9894560158693828,0.2831464103150987
1658790120771951,-0.20648508430609613,0.9489280537117573,0.26446936751354233
1658790120787940,-0.20733958953231113,0.9154802777141988,0.26361486228732733
1658790120803928,-0.21405355916685753,0.9103532463569088,0.2780193789578087
1658790120819917,-0.22162203402761893,0.9486839093614101,0.2833905546654458
1658790120835906,-0.21234454871442754,0.9607690547035936,0.27618829633020514
1658790120851895,-0.20563057907988114,0.938185702296483,0.2855878538185701
1658790120867884,-0.22394140535591678,0.9237811856260016,0.2974288548104065
1658790120883873,-0.22186617837796607,0.946730754558633,0.30353246356908503
1658790120899861,-0.21197833218890683,0.9680933852140079,0.2977950713359272
1658790120915850,-0.20648508430609613,0.9523460746166172,0.27447928587777515
1658790120931839,-0.20172426947432687,0.9337911039902345,0.2752117189288166
1658790120947815,-0.21405355916685753,0.9268329900053409,0.2840009155413137
1658790120963803,-0.2133211261158161,0.9341573205157552,0.281071183337148
1658790120979792,-0.21454184786755182,0.9574731059739072,0.2881513694972151
1658790120995781,-0.21393148699168396,0.9596704051270315,0.29596398870832363
1658790121011770,-0.21319905394064254,0.9539330128938737,0.3117112993057143
1658790121027759,-0.21014724956130326,0.945876249332418,0.3203784237430378
1658790121043748,-0.20416571297779829,0.9317158770122838,0.30926985580224287
1658790121059736,-0.20416571297779829,0.933058670939193,0.28204776073853655
1658790121075725,-0.2153963530937668,0.9409933623254751,0.2838788433661401
1658790121091714,-0.2263828488593882,0.9634546425574122,0.2926680399786372
1658790121107703,-0.2188143739986268,0.9539330128938737,0.2915693904020751
1658790121123692,-0.2100251773861297,0.9513694972152287,0.30011444266422505
1658790121139680,-0.1973296711680783,0.9333028152895402,0.30182345311665504
1658790121155669,-0.20013733119707044,0.9167009994659345,0.2885175860227358
1658790121171658,-0.21185626001373326,0.9345235370412759,0.28998245212481866
1658790121187647,-0.21832608529793252,0.9521019302662701,0.29376668955519936
1658790121203636,-0.2229648279545282,0.9566186007476922,0.2822919050888837
1658790121219625,-0.2066071564812697,0.9596704051270315,0.2831464103150987
1658790121235613,-0.2133211261158161,0.9679713130388343,0.29962615396353076
1658790121251602,-0.20611886778057542,0.9436789501792937,0.2962081330586708
1658790121267578,-0.21515220874341967,0.9214618142977038,0.29413290608072007
1658790121283567,-0.22455176623178463,0.941603723201343,0.28705271992065295
1658790121299555,-0.21698329137102323,0.9496604867627987,0.28925001907377723
1658790121315544,-0.2146639200427254,0.9556420233463037,0.2859540703440908
1658790121331533,-0.1965972381170369,0.9529564354924851,0.28461127641718154
1658790121347522,-0.20758373388265827,0.9394064240482187,0.2880292973220415
1658790121363511,-0.22272068360418107,0.949294270237278,0.2766765850308994
1658790121379500,-0.20794995040817899,0.9748073548485543,0.2721599145494773
1658790121395488,-0.21026932173647683,0.935622186617838,0.2780193789578087
1658790121411477,-0.21515220874341967,0.9405050736247809,0.2842450598916608
1658790121427466,-0.21405355916685753,0.9507591363393608,0.28790722514686795
1658790121443455,-0.21808194094758537,0.9490501258869308,0.2848554207675287
1658790121459444,-0.21356527046616325,0.9689478904402229,0.29425497825589364
1658790121475432,-0.20550850690470757,0.9678492408636608,0.29425497825589364
1658790121491421,-0.20611886778057542,0.9551537346456094,0.27362478065156015
1658790121507410,-0.20965896086060898,0.9451438162813766,0.27655451285572585
1658790121523399,-0.21930266269932108,0.9439230945296408,0.2726482032501716
1658790121539388,-0.21551842526894038,0.9665064469367515,0.29010452429999223
1658790121555377,-0.2057526512550547,0.9634546425574122,0.3057297627222093
1658790121571365,-0.20294499122606258,0.9532005798428322,0.28998245212481866
1658790121587310,-0.20318913557640972,0.9579613946746015,0.28632028686961153
1658790121603299,-0.21075761043717112,0.938185702296483,0.2830243381399251
1658790121619287,-0.2108796826123447,0.9348897535667966,0.2692301823453116
1658790121635275,-0.21747158007171752,0.9591821164263372,0.28155947203784226
1658790121651264,-0.2129549095902954,0.9685816739147022,0.2814373998626687
1658790121667252,-0.21600671396963467,0.949294270237278,0.2775310902571144
1658790121683241,-0.21222247653925397,0.9387960631723509,0.2905928130006865
1658790121699229,-0.20086976424811187,0.9231708247501338,0.2935225452048522
1658790121715217,-0.21112382696269183,0.939894712748913,0.31268787670710285
1658790121731206,-0.20990310521095612,0.9452658884565501,0.29510948348210864
1658790121747194,-0.2066071564812697,0.9462424658579387,0.2888838025482565
1658790121763182,-0.21258869306477468,0.9558861676966508,0.2935225452048522
1658790121779171,-0.20306706340123615,0.9480735484855423,0.29340047302967864
1658790121795159,-0.19537651636530118,0.9279316395819031,0.29755092698558006
1658790121811147,-0.20184634164950044,0.9269550621805145,0.2869306477454794
1658790121827136,-0.19794003204394617,0.9386739909971773,0.28082703898680084
1658790121843124,-0.20209048599984758,0.9505149919890137,0.28912794689860366
1658790121859112,-0.2086823834592204,0.9630884260318915,0.31097886625467286
1658790121875101,-0.20477607385366614,0.976882581826505,0.31317616540779714
1658790121891089,-0.19183642328526762,0.9699244678416115,0.2981612878614479
1658790121907074,-0.19122606240939977,0.9297627222095066,0.2948653391317615
1658790121923062,-0.2138094148165104,0.9444113832303351,0.2952315556572822
1658790121939050,-0.21319905394064254,0.9601586938277258,0.2962081330586708
1658790121955039,-0.21258869306477468,0.941603723201343,0.26569008926527804
1658790121971027,-0.20477607385366614,0.9370870527199209,0.24798962386511025
1658790121987015,-0.20685130083161685,0.9341573205157552,0.270817120622568
1658790122003004,-0.20794995040817899,0.9505149919890137,0.27948424505989156
1658790122018992,-0.20929274433508827,0.9478294041351951,0.2953536278324558
1658790122034980,-0.2100251773861297,0.951857785915923,0.28790722514686795
1658790122050969,-0.20770580605783184,0.9765163653009843,0.276798657206073
1658790122066957,-0.20404364080262472,0.9778591592278936,0.2869306477454794
1658790122082945,-0.1965972381170369,0.9597924773022051,0.28082703898680084
1658790122098934,-0.19549858854047475,0.946730754558633,0.2781414511329823
1658790122114922,-0.20270084687571543,0.9539330128938737,0.26642252231631947
1658790122130910,-0.19879453727016116,0.9728542000457772,0.25555809872587165
1658790122146899,-0.18609903105210934,0.9667505912870986,0.2527504386968795
1658790122162887,-0.18915083543144906,0.9481956206607158,0.26849774929427017
1658790122178876,-0.20123598077363258,0.9309834439612423,0.2675211718928816
1658790122194864,-0.20514229037918685,0.9456321049820708,0.273380636301213
1658790122210852,-0.19720759899290474,0.9573510337987337,0.26520180056458376
1658790122226806,-0.1943999389639126,0.9463645380331123,0.2582436865796902
1658790122242795,-0.19684138246738403,0.9621118486305029,0.27191577019913016
1658790122258783,-0.19891660944533474,0.9457541771572444,0.27692072938124657
1658790122274771,-0.19171435111009405,0.9340352483405816,0.26361486228732733
1658790122290760,-0.18731975280384505,0.9405050736247809,0.2670328831921873
1658790122306748,-0.19269092851148262,0.951857785915923,0.2771648737315937
1658790122322736,-0.20636301213092256,0.9634546425574122,0.2998702983138779
1658790122338725,-0.19464408331425975,0.9470969710841537,0.2871747920958265
1658790122354713,-0.18512245365072078,0.947585259784848,0.2666666666666666
1658790122370701,-0.1990386816205083,0.952712291142138,0.27240405889982444
1658790122386690,-0.20502021820401328,0.9633325703822386,0.28375677119096654
1658790122402678,-0.19000534065766406,0.9562523842221715,0.28241397726405726
1658790122418666,-0.18048371099412508,0.9278095674067295,0.26691081101701375
1658790122434655,-0.1923247119859619,0.9262226291294731,0.2714274814984359
1658790122450643,-0.21014724956130326,0.9783474479285879,0.2905928130006865
1658790122466632,-0.20807202258335256,0.9981231403067063,0.28998245212481866
1658790122482620,-0.1940337224383919,0.9707789730678265,0.29120317387655437
1658790122498608,-0.18390173189898507,0.9264667734798202,0.2728923476005187
1658790122514597,-0.19757381551842546,0.9262226291294731,0.2919356069275958
1658790122530585,-0.20563057907988114,0.9545433737697415,0.2936446173800258
1658790122546569,-0.20392156862745114,0.9662623025864043,0.2697184710460059
1658790122562558,-0.20611886778057542,0.9545433737697415,0.2641031509880216
1658790122578546,-0.20794995040817899,0.9440451667048144,0.2927901121538108
1658790122594534,-0.20733958953231113,0.9507591363393608,0.29718471046005934
1658790122610523,-0.201968413824674,0.9533226520180058,0.2919356069275958
1658790122626511,-0.19879453727016116,0.9560082398718244,0.2822919050888837
1658790122642500,-0.2016021972991533,0.9418478675516901,0.28375677119096654
1658790122658488,-0.21063553826199755,0.9591821164263372,0.2833905546654458
1658790122674476,-0.2066071564812697,0.97261005569543,0.2754558632791637
1658790122690465,-0.20611886778057542,0.9580834668497751,0.2826581216144044
1658790122706453,-0.20233463035019472,0.9279316395819031,0.28705271992065295
1658790122722441,-0.1940337224383919,0.9103532463569088,0.2962081330586708
1658790122738430,-0.2112458991378654,0.9517357137407494,0.2855878538185701
1658790122754418,-0.20563057907988114,0.9956816968032349,0.28070496681162727
1658790122770406,-0.1906157015335319,0.9740749217975129,0.26861982146944374
1658790122786395,-0.18744182497901862,0.9300068665598538,0.28119325551232155
1658790122802383,-0.19647516594186332,0.9261005569542995,0.2848554207675287
1658790122818371,-0.20416571297779829,0.9621118486305029,0.2783855954833294
1658790122834360,-0.20563057907988114,0.9713893339436943,0.27411306935225443
1658790122850348,-0.2016021972991533,0.9638208590829329,0.275944151979858
1658790122866333,-0.19305714503700333,0.9264667734798202,0.27447928587777515
1658790122882321,-0.20001525902189687,0.9405050736247809,0.2938887617303729
1658790122898309,-0.19977111467154973,0.9711451895933472,0.2813153276874951
1658790122914298,-0.1978179598687726,0.9644312199588008,0.27277027542534515
1658790122930286,-0.19842832074464045,0.9442893110551616,0.26141756313420306
1658790122946274,-0.19855039291981402,0.9583276112001222,0.25812161440451664
1658790122962263,-0.20123598077363258,0.964919508659495,0.27997253376058584
1658790122978251,-0.204531929503319,0.9463645380331123,0.28925001907377723
1658790122994239,-0.20148012512397973,0.919142442969406,0.2775310902571144
1658790123010228,-0.20721751735713756,0.9414816510261694,0.2671549553673609
1658790123026216,-0.20587472343022828,0.9680933852140079,0.2661783779659723
1658790123042204,-0.203677424277104,0.9633325703822386,0.2746013580529487
1658790123058193,-0.1981841763942933,0.9445334554055087,0.27020675974670016
1658790123074181,-0.20209048599984758,0.9346456092164495,0.27875181200885013
1658790123090170,-0.205386434729534,0.946730754558633,0.2869306477454794
1658790123106158,-0.20563057907988114,0.9555199511711301,0.27533379110399014
1658790123122146,-0.20392156862745114,0.9705348287174793,0.27692072938124657
1658790123138135,-0.2074616617074847,0.9661402304112308,0.26776531624322875
1658790123154123,-0.207095445181964,0.9650415808346686,0.272526131074998
1658790123170111,-0.20257877470054186,0.96748302433814,0.27606622415503157
1658790123186065,-0.1995269703212026,0.9325703822384988,0.26776531624322875
1658790123202054,-0.2048981460288397,0.9326924544136723,0.2641031509880216
1658790123218042,-0.204531929503319,0.9682154573891815,0.2676432440680552
1658790123234030,-0.2086823834592204,0.9763942931258107,0.276798657206073
1658790123250019,-0.2108796826123447,0.9812771801327536,0.27862973983367656
1658790123266007,-0.20001525902189687,0.9533226520180058,0.275089646753643
1658790123281995,-0.202822919050889,0.9278095674067295,0.27362478065156015
1658790123297984,-0.21173418783855968,0.9517357137407494,0.2838788433661401
1658790123313972,-0.20672922865644328,0.9690699626153965,0.2728923476005187
1658790123329960,-0.20343327992675686,0.9539330128938737,0.2553139543755245
1658790123345949,-0.20294499122606258,0.9298847943846802,0.25555809872587165
1658790123361937,-0.20685130083161685,0.930495155260548,0.2747234302281223
1658790123377925,-0.20978103303578255,0.9541771572442208,0.2809491111619744
1658790123393914,-0.20672922865644328,0.971755550469215,0.27911802853437084
1658790123409902,-0.2091706721599147,0.9628442816815443,0.279362172884718
1658790123425891,-0.205386434729534,0.9512474250400551,0.27862973983367656
1658790123441879,-0.207095445181964,0.9480735484855423,0.28253604943923083
1658790123457867,-0.20221255817502115,0.9468528267338066,0.2730144197756923
1658790123473856,-0.20135805294880615,0.9588158999008165,0.26898603799496446
1658790123489844,-0.2024567025253683,0.9480735484855423,0.2738689250019073
1658790123505828,-0.21356527046616325,0.9463645380331123,0.2746013580529487
1658790123521817,-0.21014724956130326,0.9448996719310294,0.2852216372930494
1658790123537805,-0.2048981460288397,0.9564965285725187,0.28961623559929794
1658790123553794,-0.20050354772259116,0.9532005798428322,0.275944151979858
1658790123569782,-0.20318913557640972,0.9478294041351951,0.26141756313420306
1658790123585770,-0.2057526512550547,0.9600366216525522,0.2800946059357594
1658790123601759,-0.2100251773861297,0.9676050965133136,0.27533379110399014
1658790123617747,-0.2083161669336997,0.9615014877546351,0.275944151979858
1658790123633735,-0.20721751735713756,0.9357442587930116,0.2747234302281223
1658790123649724,-0.20502021820401328,0.9370870527199209,0.2859540703440908
1658790123665712,-0.20904859998474112,0.9574731059739072,0.273380636301213
1658790123681700,-0.19830624856946688,0.9668726634622722,0.25812161440451664
1658790123697689,-0.19891660944533474,0.9425803006027316,0.26361486228732733
1658790123713677,-0.203677424277104,0.9387960631723509,0.26483558403906304
1658790123729665,-0.21051346608682397,0.9541771572442208,0.2847333485923551
1658790123745654,-0.21576256961928753,0.9601586938277258,0.2805828946364537
1658790123761642,-0.21063553826199755,0.9689478904402229,0.27985046158541227
1658790123777630,-0.1969634546425576,0.9572289616235601,0.27032883192187374
1658790123793619,-0.19391165026321833,0.9286640726329445,0.26861982146944374
1658790123809607,-0.21051346608682397,0.9359884031433587,0.2687418936446173
1658790123825561,-0.21063553826199755,0.9517357137407494,0.2650797283894102
1658790123841549,-0.20929274433508827,0.9567406729228658,0.2659342336156252
1658790123857537,-0.20941481651026184,0.9624780651560236,0.2692301823453116
1658790123873525,-0.20990310521095612,0.9618677042801558,0.28033875028610655
1658790123889513,-0.207095445181964,0.9440451667048144,0.2868085755703058
1658790123905501,-0.2066071564812697,0.9209735255970095,0.27570000762951086
1658790123921488,-0.2057526512550547,0.933058670939193,0.274235141527428
1658790123937476,-0.2188143739986268,0.9656519417105365,0.27533379110399014
1658790123953464,-0.2153963530937668,0.9978789959563592,0.277653162432288
1658790123969452,-0.20172426947432687,0.971755550469215,0.27203784237430373
1658790123985440,-0.19671931029221046,0.9290302891584652,0.26691081101701375
1658790124001428,-0.20941481651026184,0.919996948195621,0.27985046158541227
1658790124017416,-0.21722743572137038,0.9594262607766844,0.2775310902571144
1658790124033403,-0.2133211261158161,0.9817654688334478,0.2830243381399251
1658790124049391,-0.21063553826199755,0.9789578088044557,0.27277027542534515
1658790124065379,-0.20233463035019472,0.9462424658579387,0.27191577019913016
1658790124081367,-0.20721751735713756,0.9326924544136723,0.281925688563363
1658790124097355,-0.21564049744411395,0.9436789501792937,0.27618829633020514
1658790124113343,-0.22394140535591678,0.9545433737697415,0.2755779354543373
1658790124129331,-0.22601663233386748,0.9827420462348364,0.2804608224612801
1658790124145294,-0.20721751735713756,0.96577401388571,0.28253604943923083
1658790124161282,-0.20880445563439398,0.9308613717860688,0.28204776073853655
1658790124177270,-0.21368734264133682,0.9285420004577709,0.28290226596475154
1658790124193257,-0.2116121156633861,0.944167238879988,0.2717936980239566
1658790124209245,-0.2100251773861297,0.9610131990539408,0.26483558403906304
1658790124225233,-0.2167391470206761,0.9590600442511636,0.26312657358663305
1658790124241221,-0.22101167315175108,0.9704127565423057,0.28412298771648725
1658790124257209,-0.21991302357518894,0.9513694972152287,0.29462119478141435
1658790124273197,-0.205386434729534,0.9325703822384988,0.2805828946364537
1658790124289185,-0.19757381551842546,0.9077897306782639,0.26605630579079875
1658790124305173,-0.21173418783855968,0.9353780422674909,0.26569008926527804
1658790124321160,-0.2175936522468911,0.9771267261768521,0.269962615396353
1658790124337148,-0.2141756313420311,0.9733424887464714,0.2743572137026016
1658790124353136,-0.20721751735713756,0.9478294041351951,0.27862973983367656
1658790124369124,-0.19708552681773117,0.9232928969253074,0.2772869459067673
1658790124385112,-0.2066071564812697,0.9411154345006487,0.2860761425192644
1658790124401100,-0.21197833218890683,0.9541771572442208,0.27618829633020514
1658790124417088,-0.20990310521095612,0.9612573434042879,0.2671549553673609
1658790124433076,-0.2103913939116504,0.9539330128938737,0.2688639658197909
1658790124449063,-0.20428778515297186,0.9490501258869308,0.26861982146944374
1658790124465057,-0.21356527046616325,0.9585717555504694,0.27618829633020514
1658790124481045,-0.21612878614480824,0.9519798580910965,0.2840009155413137
1658790124497033,-0.2175936522468911,0.9335469596398873,0.27240405889982444
1658790124513021,-0.2083161669336997,0.9428244449530787,0.269108110170138
1658790124529008,-0.2158846417944611,0.9469748989089801,0.2763103685053787
1658790124544996,-0.22565041580834677,0.9647974364843215,0.2783855954833294
1658790124560984,-0.21527428091859324,0.9607690547035936,0.2735027084763866
1658790124576972,-0.20904859998474112,0.941603723201343,0.2650797283894102
1658790124592960,-0.21747158007171752,0.9334248874647137,0.2654459449149309
1658790124608948,-0.22772564278629748,0.9790798809796293,0.27411306935225443
1658790124624936,-0.2243076218814375,0.9790798809796293,0.28204776073853655
1658790124640924,-0.2150301365682461,0.9551537346456094,0.27570000762951086
1658790124656911,-0.2048981460288397,0.9459983215075916,0.2649576562142366
1658790124672899,-0.21844815747310609,0.9434348058289466,0.27069504844739445
1658790124688887,-0.22565041580834677,0.9783474479285879,0.26861982146944374
1658790124704875,-0.21893644617380037,0.9835965514610514,0.2705729762722209
1658790124720863,-0.21576256961928753,0.9774929427023729,0.26935225452048517
1658790124736851,-0.21222247653925397,0.9644312199588008,0.26349279011215376
1658790124752839,-0.2196688792248418,0.9868925001907378,0.2940108339055465
1658790124768827,-0.2301670862897689,0.9860379949645228,0.281925688563363
1658790124784820,-0.2121004043640804,1.0124055848020141,0.2688639658197909
1658790124800808,-0.203677424277104,1.0059357595178149,0.2726482032501716
1658790124816796,-0.21612878614480824,1.001052872510872,0.2604409857328145
1658790124832784,-0.21075761043717112,1.0176546883344777,0.2730144197756923
1658790124848772,-0.19330128938735047,1.0222934309910734,0.26434729533836876
1658790124864760,-0.19635309376668975,1.0037384603646906,0.26276035706111234
1658790124880747,-0.21356527046616325,1.0009308003356985,0.2809491111619744
1658790124896735,-0.21271076523994825,1.0141145952544441,0.2647135118638895
1658790124912723,-0.19330128938735047,1.0290074006256198,0.271671625848783
1658790124928711,-0.18439002059967935,1.0124055848020141,0.2755779354543373
1658790124944699,-0.18182650492103436,1.0203402761882963,0.2813153276874951
1658790124960687,-0.17486839093614082,1.0209506370641641,0.2818036163881894
1658790124976675,-0.17169451438162797,1.020706492713817,0.280216678110933
1658790124992663,-0.1893949797817962,1.0487830930037383,0.28827344167238866
1658790125008650,-0.20514229037918685,1.0935835812924388,0.3065842679484243
1658790125024638,-0.18744182497901862,1.1287403677424281,0.30926985580224287
1658790125040626,-0.1392233157854581,1.1153124284733344,0.3107347219043257
1658790125056614,-0.10370031280994896,1.0695353627832453,0.2821698329137101
1658790125072602,-0.091737239642939,1.0376745250629433,0.2558022430762188
1658790125088590,-0.07208361943999408,1.0419470511940183,0.24383916990920884
1658790125104553,-0.07232776379034123,1.0387731746395055,0.2103913939116504
1658790125120541,-0.07086289768825837,1.0710002288853282,0.22198825055313964
1658790125136529,-0.06768902113374553,1.0545204852368961,0.24420538643472955
1658790125152516,-0.04730296787975874,1.063675898374914,0.23956664377813386
1658790125168504,-0.010559243152513886,1.0684367132066832,0.24628061341268026
1658790125184492,0.009338521400778177,1.0247348744945448,0.2600747692072938
1658790125200480,-1.831082627603564E-4,1.0592813000686654,0.2877851529716944
1658790125216468,-0.0036011291676203427,1.0970016021972988,0.2935225452048522
1658790125232456,0.039124132143129486,1.0866254673075453,0.2860761425192644
1658790125248444,0.08502327000839216,1.0142366674296177,0.3096360723277636
1658790125264432,0.10162508583199781,0.9832303349355307,0.2838788433661401
1658790125280419,0.11505302510109061,1.0110627908751049,0.25677882047760736
1658790125296407,0.12176699473563701,1.034378576333257,0.28461127641718154
1658790125312395,0.17084000915541342,1.0111848630502784,0.2915693904020751
1658790125328383,0.21173418783855968,0.9290302891584652,0.2771648737315937
1658790125344371,0.24811169604028382,0.8585946440833139,0.2805828946364537
1658790125360359,0.2545815213244831,0.8817883573662932,0.2575112535286488
1658790125376347,0.2661783779659723,0.8737315938048367,0.2936446173800258
1658790125392335,0.2804608224612801,0.8638437476157774,0.29681849393453863
1658790125408322,0.30170138094148147,0.8758068207827883,0.31989013504234354
1658790125424316,0.3707942320897226,0.8581063553826196,0.2986495765621422
1658790125440304,0.43915465018692323,0.7796139467460135,0.3024338139925229
1658790125456292,0.47516594186312666,0.74189364461738,0.2860761425192644
1658790125472280,0.4498970016021975,0.8069581139848934,0.31976806286716997
1658790125488268,0.47724116884107737,0.7738765545128556,0.3277027542534521
1658790125504255,0.566109712367437,0.6842755779354546,0.2944991226062408
1658790125520243,0.5835660334172577,0.6547341115434504,0.27154955367360945
1658790125536231,0.5097123674372472,0.7080796520943009,0.312077515831235
1658790125552219,0.46466773479819956,0.7434805828946365,0.3518730449378191
1658790125568207,0.5314412146181429,0.716014343480583,0.3742122529945826
1658790125584195,0.6395971618219276,0.6179903868162047,0.34418249790188415
1658790125600183,0.7250476844434273,0.510933089188983,0.31390859845883856
1658790125616171,0.7023422598611431,0.5341268024719614,0.3258716716258485
1658790125632158,0.6537575341420618,0.626413366903182,0.348210879682612
1658790125648146,0.6598611429007404,0.6646219577325096,0.3561455710688941
1658790125664134,0.7071030746929123,0.5758754863813227,0.32111085679407925
1658790125680122,0.792553597314412,0.4569771877622646,0.29925993743801005
1658790125696110,0.813305867093919,0.39423208972304913,0.32697032120241065
1658790125712098,0.7783932249942778,0.3699397268635076,0.34381628137636344
1658790125728086,0.7388418402380408,0.4358587014572368,0.30597390707255645
1658790125744049,0.7544670786602579,0.44415960936903964,0.25897611963073164
1658790125760037,0.8455329213397418,0.42975509269855827,0.2717936980239566
1658790125776024,0.8728770885786217,0.48395513847562377,0.3377126726176849
1658790125792012,0.815869382772564,0.44965285725185034,0.33990997177080917
1658790125808000,0.8096437018387119,0.27447928587777515,0.31561760891126855
1658790125823988,0.8203860532539862,0.19916075379568188,0.2876630807965208
1658790125839976,0.8113527122911419,0.37531090257114563,0.29169146257724865
1658790125855964,0.781445029373617,0.5608606088349735,0.3390554665445942
1658790125871952,0.8504158083466846,0.4717479209582667,0.3292896925307085
1658790125887940,0.9568627450980394,0.24518196383611812,0.2902265964751658
1658790125903927,0.9118181124589917,0.1334859235523007,0.32611581597619566
1658790125919915,0.8178225375753412,0.18084992751964624,0.4195010299839783
1658790125935903,0.8366216525520711,0.25262836652170595,0.40888075074387764
1658790125951891,0.8684824902723731,0.24957656214236668,0.35053025101090984
1658790125967879,0.8484626535439075,0.19879453727016116,0.30133516441596075
1658790125983867,0.8297856107423511,0.15167467765316278,0.3117112993057143
1658790125999855,0.8701915007248031,0.1398336766613264,0.33319600213626277
1658790126015843,0.9574731059739072,0.10809491111619707,0.36481269550621764
1658790126031830,1.0396276798657205,0.051819638361180864,0.35809872587167124
1658790126047818,1.0315709163042648,-0.0017700465400167786,0.37201495384145833
1658790126063812,0.9644312199588008,-0.005554283970397478,0.3804379339284356
1658790126079800,0.9168230716411081,0.028137636377508102,0.38153658350499775
1658790126095788,0.8850843060959797,0.07147325856412579,0.3733577477683676
1658790126111776,0.8161135271229112,0.062439917601281536,0.36102845807583694
1658790126127763,0.7565423056382086,-0.12042420080872818,0.34723430228122343
1658790126143751,0.8041504539559012,-0.38056000610360874,0.3527275501640341
1658790126159739,0.936476691844053,-0.4959182116426337,0.38666361486228773
1658790126175727,1.0020294499122606,-0.43988708323796466,0.4069275959411005
1658790126191715,0.9866483558403907,-0.2905928130006865,0.3642023346303498
1658790126207703,0.9263447013046466,-0.15167467765316234,0.3504081788357363
1658790126223691,0.8817883573662932,-0.06280613412680269,0.36444647898069693
1658790126239678,0.8920424200808732,-0.023132677195391693,0.3562676432440677
1658790126255666,0.9125505455100331,-0.08514534218356618,0.3600518806744484
1658790126271654,0.9043717097734039,-0.1497215228503852,0.4069275959411005
1658790126287642,0.9394064240482187,-0.22394140535591678,0.41925688563363117
1658790126303630,0.9665064469367515,-0.2661783779659723,0.38776226443884987
1658790126319618,0.9405050736247809,-0.242374303807126,0.3645685511558705
1658790126335606,0.9175555046921495,-0.17840848401617437,0.35309376668955483
1658790126351594,0.8880140383001454,-0.1010147249561304,0.3327077134355685
1658790126367581,0.8803234912642104,-0.054383154039825854,0.3263599603265428
1658790126383575,0.892652780956741,-0.04254215304798947,0.3234302281223771
1658790126399563,0.901197833218891,-0.0424200808728159,0.32367437247272424
1658790126415551,0.9103532463569088,-0.04608224612802303,0.33246356908522134
1658790126431539,0.8848401617456325,-0.037781338216220206,0.34210727092393345
1658790126447527,0.8445563439383532,-0.027649347676813818,0.35175097276264555
1658790126463514,0.8441901274128325,0.005920500495918191,0.3327077134355685
1658790126479502,0.8283207446402683,0.08636606393530144,0.33112077515831206
1658790126495490,0.7927977416647591,0.17877470054169553,0.3242847333485921
1658790126511478,0.7924315251392384,0.23297474631876103,0.30341039139391146
1658790126527466,0.8042725261310748,0.25214007782101167,0.2990157930876629
1658790126543454,0.8106202792401005,0.23627069504844744,0.3082932784008543
1658790126559442,0.7832761120012206,0.346501869230182,0.31610589761196284
1658790126575430,0.7385976958876936,0.5056839856565194,0.3632257572289612
1658790126591417,0.7433585107194629,0.5062943465323873,0.32538338292515423
1658790126607405,0.7880369268329899,0.46515602349889384,0.28546578164339653
1658790126623393,0.7669184405279621,0.5250934615091172,0.2783855954833294
1658790126639381,0.6912336919203481,0.5739223315785456,0.31525139238574784
1658790126655369,0.7371328297856108,0.546211947814145,0.2549477378500038
1658790126671357,0.8220950637064162,0.4737010757610438,0.18402380407415908
1658790126687345,0.7434805828946365,0.5886930647745476,0.13214312962539143
1658790126703308,0.5884489204242005,0.7698481727321278,0.2658121614404516
1658790126719296,0.5641565575646599,0.7732661936369878,0.273380636301213
1658790126735283,0.6569314106965747,0.6782940413519496,0.22577248798352034
1658790126751271,0.6367895017929355,0.6421606775005726,0.2623941405355916
1658790126767259,0.600534065766384,0.6682841229877168,0.22149996185244536
1658790126783247,0.6319066147859926,0.75556572823682,0.12079041733424845
1658790126799235,0.5449912260624092,0.9224383916990924,0.1549706263828492
1658790126815223,0.3754329747463192,0.939894712748913,0.3255054551003278
1658790126831211,0.41046768902113406,0.8098878461890591,0.2763103685053787
1658790126847199,0.5818570229648277,0.7445792324711986,0.13116655222400286
1658790126863186,0.5249713893339436,0.8583504997329667,0.14801251239795565
1658790126879174,0.3209887846189057,1.0110627908751049,0.2754558632791637
1658790126895162,0.2789959563591973,1.0941939421683067,0.34711223010604986
1658790126911150,0.44501411459525464,0.9525902189669644,0.23968871595330743
1658790126927138,0.5701380941481649,0.8570077058060575,0.17462424658579412
1658790126943126,0.48285648889906163,0.7871824216067749,0.20428778515297186
1658790126959114,0.28241397726405726,0.8705577172503238,0.2103913939116504
1658790126975102,0.22735942626077676,1.0393835355153733,0.22284275577935464
1658790126991089,0.32941176470588207,1.0163118944075684,0.16351567864499916
1658790127007077,0.39716182192721483,0.8749523155565724,0.13995574883649997
1658790127023071,0.2683756771190966,0.8534676127260239,0.24200808728160528
1658790127039059,0.08490119783321859,0.9892118715190357,0.3351491569390399
1658790127055047,0.13385214007782142,1.0637979705500875,0.30426489662012646
1658790127071035,0.33026626993209707,0.9956816968032349,0.22748149843595034
1658790127087022,0.34796673533226485,0.9311055161364159,0.20843823910887327
1658790127103010,0.1839017318989855,0.9636987869077593,0.2713054093232623
1658790127118998,0.11725032425421489,0.9903105210955978,0.23334096284428174
1658790127134986,0.17914091706721624,0.975173571374075,0.19586480506599546
1658790127150974,0.18170443274586123,0.9744411383230336,0.22113374532692465
1658790127166962,0.06756694895857152,1.0452429999237047,0.2670328831921873
1658790127182950,0.021667811093308842,1.1262989242389567,0.28741893644617367
1658790127198938,0.09076066224155,1.1105516136415652,0.2427405203326467
1658790127214925,0.1486228732738235,1.026688029297322,0.2545815213244831
1658790127230913,0.10455481803616351,1.0246128023193712,0.2549477378500038
1658790127246901,0.021667811093308842,1.1581597619592587,0.30048065918974576
1658790127262889,-0.012146181429770309,1.2250553139543756,0.28241397726405726
1658790127278877,0.036438544289310926,1.1352101930266274,0.2213778896772718
1658790127294865,0.03668268863965807,1.066483558403906,0.23456168459601745
1658790127310853,-0.015808346684977437,1.118852521553368,0.22247653925383393
1658790127326841,-0.001159685664148924,1.185381857022965,0.2108796826123447
1658790127342834,0.04522774090180803,1.1750057221332115,0.20550850690470757
1658790127358822,0.023132677195391693,1.1746395056076908,0.21063553826199755
1658790127374810,-0.03717097734035235,1.2134584573128864,0.23248645761806674
1658790127390798,-0.03314259555962451,1.2536202029449912,0.22821393148699176
1658790127406786,0.0042114900434881974,1.2277409018081942,0.24383916990920884
1658790127422773,0.007019150072480329,1.136186770428016,0.2558022430762188
1658790127438761,-0.010681315327687457,1.1538872358281838,0.2573891813534752
1658790127454749,-0.003479056992446772,1.1935606927595943,0.2334630350194553
1658790127470737,0.01617456321049815,1.1891660944533458,0.22613870450904106
1658790127486725,-1.831082627603564E-4,1.1707331960021365,0.23504997329671173
1658790127502713,-0.01641870756084529,1.1729304951552608,0.26190585183489734
1658790127518701,0.022400244144350268,1.1474174105439845,0.23834592202639815
1658790127534689,0.09332417792019498,1.122270542458228,0.22821393148699176
1658790127550676,0.09222552834363285,1.1165331502250702,0.238956282902266
1658790127566664,0.056946669718470844,1.1304493781948581,0.26227206836041805
1658790127582652,0.10003814755474139,1.0893110551613638,0.23639276722362101
1658790127598640,0.18829633020523406,1.036942092011902,0.18451209277485336
1658790127614628,0.21307698176546896,1.0291294728007934,0.20550850690470757
1658790127630616,0.17645532921339768,1.0543984130617226,0.22455176623178463
1658790127646604,0.18719768062867193,1.0366979476615548,0.19855039291981402
1658790127662567,0.26849774929427017,0.9960479133287556,0.19171435111009405
1658790127678555,0.3224536507209885,0.9036392767223624,0.2267490653849089
1658790127694543,0.32831311512931993,0.8905775539787903,0.2124666208896011
1658790127710530,0.3201342793926907,0.9806668192568857,0.20880445563439398
1658790127726518,0.3192797741664757,0.9663843747615779,0.2565346761272602
1658790127742506,0.3784847791256585,0.8629892423895624,0.2225986114290075
1658790127758494,0.4712596322575724,0.786572060730907,0.20013733119707044
1658790127774482,0.5008010986495766,0.7871824216067749,0.20599679560540185
1658790127790470,0.5163042648966201,0.7605706874189364,0.20904859998474112
1658790127806458,0.5340047302967879,0.7086900129701688,0.18597695887693622
1658790127822445,0.5507286182955671,0.6797589074540324,0.19769588769359903
1658790127838433,0.5590295262073699,0.718577859159228,0.22308690012970178
1658790127854421,0.5680628671702141,0.6707255664911882,0.2764324406805523
1658790127870409,0.6028534370946819,0.640329594872969,0.26019684138246735
1658790127886397,0.6581521324483104,0.5331502250705729,0.2738689250019073
1658790127902385,0.6693827725642789,0.4682078278782331,0.2752117189288166
1658790127918373,0.6516823071641111,0.5102006561379415,0.28033875028610655
1658790127934361,0.6992904554818038,0.5383993286030364,0.30768291752498644
1658790127950348,0.7707026779583428,0.48187991149767306,0.2809491111619744
1658790127966336,0.7697261005569542,0.4144960708018619,0.2377355611505303
1658790127982330,0.6863508049134053,0.4107118333714812,0.25775539787899593
1658790127998318,0.721141374837873,0.3776302738994435,0.3082932784008543
1658790128014306,0.8330815594720375,0.3604180971999691,0.28754100862134724
1658790128030294,0.8859388113221947,0.22125581750209822,0.2490882734416724
1658790128046281,0.898634317540246,0.1071183337148085,0.24689097428854812
1658790128062269,0.9120622568093388,0.07367055771725006,0.28278019378957797
1658790128078257,0.8891126878767075,0.14142061493858282,0.30853742275120144
1658790128094245,0.8031738765545127,0.26141756313420306,0.34088654917219774
1658790128110233,0.794262607766842,0.25397116044861523,0.3272144655527578
1658790128126221,0.9479514763103687,0.14337376974135996,0.2814373998626687
1658790128142209,1.0556191348134583,0.015564202334630295,0.2523842221713588
1658790128158197,1.030960555428397,-0.025818265049210254,0.27313649195086587
1658790128174184,0.9912870984969864,0.017761501487754572,0.3297779812314028
1658790128190172,0.8990005340657667,0.0995498588540471,0.3602960250247955
1658790128206160,0.7898680094605934,0.15228503852903064,0.3659113450827798
1658790128222148,0.7709468223086899,0.08722056916151644,0.36432440680552336
1658790128238136,0.8601815823605703,-0.053284504463263715,0.32574959945067494
1658790128254124,0.9418478675516901,-0.16266117341878372,0.2962081330586708
1658790128270112,1.0135042343785763,-0.22223239490348679,0.3014572365911343
1658790128286100,1.038895246814679,-0.22320897230487535,0.31097886625467286
1658790128302063,0.9557640955214772,-0.14996566720073234,0.3356374456397342
1658790128318050,0.8738536659800102,-0.02935835812924381,0.34418249790188415
1658790128334037,0.8764171816586561,0.024963759822995257,0.2995040817883572
1658790128350025,0.9289082169832916,-0.020569161516746703,0.25433737697413594
1658790128366012,0.9386739909971773,-0.0774547951476312,0.2632486457618066
1658790128382000,0.9442893110551616,-0.10528725108720538,0.3045090409704736
1658790128397987,0.9500267032883194,-0.11078049897001607,0.32196536202029424
1658790128413974,0.9312275883115895,-0.09088273441672401,0.32062256809338496
1658790128429962,0.8891126878767075,-0.025085831998168828,0.3267261768520635
1658790128445949,0.8996108949416346,-7.934691386282111E-4,0.33417257953765134
1658790128461937,0.9357442587930116,0.002990768291752488,0.3344167238879985
1658790128477924,0.9469748989089801,0.0012817578393224949,0.3292896925307085
1658790128493911,0.9062027924010074,0.06012054627298369,0.33417257953765134
1658790128509899,0.858838788433661,0.11444266422522276,0.3288014038300142
1658790128525886,0.8313725490196076,0.15008773937590636,0.3279468986037992
1658790128541874,0.8319829098954754,0.17657740138857125,0.3318532082093535
1658790128557861,0.8758068207827883,0.17926298924238981,0.32318608377202995
1658790128573848,0.9065690089265281,0.18365758754863837,0.3091477836270693
1658790128589836,0.8688487067978938,0.17901884489204267,0.30853742275120144
1658790128605823,0.8156252384222169,0.2348058289463646,0.29925993743801005
1658790128621826,0.7890135042343784,0.35883115892271267,0.2860761425192644
1658790128637813,0.8172121766994733,0.40888075074387764,0.28619821469443796
1658790128653801,0.8356450751506825,0.3451590753032727,0.3100022888532843
1658790128669788,0.7953612573434041,0.34552529182879343,0.305241474021515
1658790128685775,0.7329823758297094,0.45831998168917387,0.35638971541924125
1658790128701763,0.7130846112764173,0.5847867551689934,0.3250171663996335
1658790128717750,0.7479972533760586,0.5696498054474706,0.2842450598916608
1658790128733738,0.8068360418097198,0.4578316929884796,0.2318760967421989
1658790128749725,0.7759517814908063,0.49750514991989014,0.21686121919584966
1658790128765712,0.641184100099184,0.710887312123293,0.28412298771648725
1658790128781700,0.6330052643625548,0.7738765545128556,0.25091935606927596
1658790128797687,0.7494621194781415,0.6366674296177619,0.17657740138857125
1658790128813675,0.7366445410849165,0.5831998168917369,0.13141069657435
1658790128829662,0.5617151140611885,0.7289539940489815,0.23529411764705888
1658790128845649,0.4737010757610438,0.8394293125810632,0.3142748149843593
1658790128861637,0.6305638208590834,0.7487296864271,0.21234454871442754
1658790128877624,0.7956054016937513,0.6089570458533604,0.1231097886625463
1658790128893612,0.6547341115434504,0.7020981155107959,0.14142061493858282
1658790128909599,0.4140077821011676,0.9237811856260016,0.29303425650415793
1658790128925586,0.3733577477683676,0.9058365758754867,0.2630045014114595
1658790128941589,0.5486533913176164,0.8187991149767297,0.17364766918440555
1658790128957577,0.6718242160677503,0.7720454718852521,0.1284809643701843
1658790128973565,0.5363241016250857,0.8458991378652625,0.169253070878157
1658790128989553,0.3150072480354007,0.9789578088044557,0.2924238956282901
1658790129005540,0.2709391927977416,0.9718776226443886,0.28583199816891725
1658790129021528,0.423285267414359,0.8246585793850612,0.18243686579690266
1658790129037516,0.5012893873502708,0.8152590218966962,0.14386205844205424
1658790129053504,0.392278934920272,0.9147478446631574,0.20233463035019472
1658790129069492,0.25812161440451664,1.0655069810025175,0.2573891813534752
1658790129085480,0.24921034561684596,1.0334019989318683,0.2385900663767453
1658790129101468,0.3737239642938883,0.9181658655680174,0.13751430533302855
1658790129117456,0.40119020370794267,0.8783703364614333,0.13287556267643286
1658790129133443,0.2670328831921873,0.9314717326619366,0.25812161440451664
1658790129149431,0.12201113908598415,1.0454871442740519,0.2833905546654458
1658790129165419,0.17779812314030696,1.0860151064316774,0.24591439688715955
1658790129181407,0.3372243839169906,1.009597924773022,0.17914091706721624
1658790129197395,0.3518730449378191,0.98970016021973,0.16571297779812344
1658790129213383,0.2112458991378654,1.0359655146105133,0.23260852979324032
1658790129229371,0.16119630731670131,1.0437781338216219,0.2385900663767453
1658790129245359,0.24225223163195242,0.9478294041351951,0.14642557412069923
1658790129261322,0.19476615548943332,0.9782253757534143,0.16534676127260273
1658790129277309,0.055970092317082276,1.0846723125047681,0.2612954909590295
1658790129293296,0.0802624551766229,1.1048142214084073,0.22772564278629748
1658790129309284,0.18756389715419264,1.0381628137636376,0.1734035248340584
1658790129325271,0.1570458533607999,1.0265659571221484,0.2150301365682461
1658790129341259,0.0957656214236664,1.0399938963912412,0.22601663233386748
1658790129357246,0.0718394750896465,1.0614785992217897,0.24872205691615168
1658790129373233,0.056946669718470844,1.0409704737926297,0.23077744716563675
1658790129389221,0.06744487678339794,1.0502479591058211,0.1965972381170369
1658790129405208,0.07354848554207649,1.072465094987411,0.19415579461356547
1658790129421196,0.06732280460822437,1.1420462348363474,0.20843823910887327
1658790129437183,0.07745479514763076,1.1582818341344323,0.19928282597085545
1658790129453170,0.06158541237506654,1.131914244296941,0.19293507286182976
1658790129469158,-0.004699778744182481,1.1588921950103002,0.22015716792553608
1658790129485145,-0.016540779736018862,1.2006408789196614,0.2473792629892424
1658790129501133,0.06353856717784367,1.1884336614023043,0.2289463645380332
1658790129517120,0.11566338597695847,1.1585259784847795,0.23273060196841389
1658790129533107,0.09246967269397999,1.144731822690166,0.25604638742656594
1658790129549095,0.05218585488670158,1.1940489814602886,0.25519188220035094
1658790129565082,0.04498359655146089,1.2137026016632335,0.2516517891203174
1658790129581085,0.04571602960250232,1.1623102159151601,0.20477607385366614
1658790129597072,0.06268406195162868,1.150957503624018,0.201968413824674
1658790129613060,0.06768902113374509,1.1131151293202102,0.205386434729534
1658790129629047,0.08575570305943359,1.107499809262226,0.19391165026321833
1658790129645034,0.09857328145265853,1.1170214389257644,0.19342336156252404
1658790129661022,0.09308003356984784,1.1093308918898295,0.22882429236285962
1658790129677009,0.09332417792019498,1.0977340352483402,0.2587319752803845
1658790129692997,0.11517509727626418,1.0996871900511174,0.2893720912489508
1658790129708984,0.17462424658579412,1.0231479362172884,0.24542610818646526
1658790129724971,0.24005493247882814,1.026077668421454,0.18707560845349835
1658790129740959,0.25091935606927596,1.0425574120698862,0.21722743572137038
1658790129756946,0.24579232471198598,1.0248569466697184,0.19879453727016116
1658790129772934,0.27228198672465087,1.0131380178530556,0.1620508125429163
1658790129788921,0.31854734111543426,0.9875028610666057,0.1499656672007328
1658790129804908,0.3342946517128249,0.9511253528648815,0.18500038147554765
1658790129820896,0.32904554818036136,0.8954604409857332,0.21551842526894038
1658790129836883,0.31476310368505356,0.8739757381551838,0.24762340733958954
1658790129852871,0.3418631265735863,0.7956054016937513,0.26520180056458376
1658790129868858,0.42780193789578114,0.820996414129854,0.1928130006866562
1658790129884845,0.48908216983291375,0.8773937590600447,0.18573281452658907
1658790129900817,0.49372091248950944,0.8302738994430454,0.23871213855191886
1658790129916805,0.5285114824139772,0.7437247272449836,0.273380636301213
1658790129932792,0.6028534370946819,0.6797589074540324,0.23126573586633103
1658790129948780,0.6207980468451968,0.6922102693217367,0.20550850690470757
1658790129964767,0.5717250324254213,0.7267566948958573,0.23492790112153816
1658790129980754,0.5381551842526893,0.7179674982833602,0.3037766079194322
1658790129996742,0.5692835889219499,0.6327611200122076,0.32440680552376566
1658790130012729,0.6817120622568096,0.5036087586785687,0.2687418936446173
1658790130028717,0.7923094529640649,0.44110780498970037,0.21954680704966822
1658790130044704,0.7448233768215458,0.49616235599298086,0.1928130006866562
1658790130060691,0.5648889906157013,0.6659647516594189,0.2936446173800258
1658790130076679,0.5034866865033951,0.7508049134050507,0.3900816357671477
1658790130092666,0.7013656824597545,0.6358129243915469,0.3573662928206298
1658790130108654,0.9658960860608836,0.37360189211871475,0.2621499961852445
1658790130124641,0.9457541771572444,0.23907835507743957,0.2909590295262072
1658790130140628,0.7327382314793622,0.27533379110399014,0.3977721828030827
1658790130156616,0.6338597695887698,0.5097123674372472,0.37116044861524333
1658790130172603,0.6970931563286795,0.5774624246585791,0.30048065918974576
1658790130188591,0.8704356450751503,0.4074158846417948,0.19049362935835834
1658790130204578,0.9899443045700771,0.22442969405661106,0.1873197528038455
1658790130220550,0.9457541771572444,0.23260852979324032,0.26825360494392303
1658790130236538,0.8228274967574576,0.2893720912489508,0.344792858777752
1658790130252525,0.7569085221637293,0.2857099259937437,0.3659113450827798
1658790130268512,0.7866941329060806,0.2141756313420311,0.3272144655527578
1658790130284500,0.8382085908293275,0.18878461890592835,0.28827344167238866
1658790130300487,0.8612802319371324,0.21551842526894038,0.2872968642710001
1658790130316475,0.9156023498893724,0.19464408331425975,0.28448920424200796
1658790130332462,0.9773708705271993,0.166689555199512,0.27997253376058584
1658790130348449,0.9512474250400551,0.19842832074464045,0.31866941329060783
1658790130364437,0.8869153887235832,0.23334096284428174,0.36737621118486263
1658790130380424,0.9022964827954532,0.21490806439307253,0.3594415197985805
1658790130396412,0.9583276112001222,0.11309987029831348,0.3347829404135192
1658790130412399,0.9547875181200887,0.028747997253375956,0.3225757228961621
1658790130428386,0.9086442359044788,0.05157549401083372,0.30560769054703574
1658790130444374,0.8777599755855654,0.13250934615091214,0.2935225452048522
1658790130460361,0.9170672159914552,0.19012741283283763,0.2796063172350651
1658790130476349,0.9702906843671322,0.13299763485160643,0.2709391927977416
1658790130492336,0.9627222095063708,0.02398718242160669,0.2843671320668344
1658790130508323,0.9102311741817353,-0.04205386434729519,0.3523613336385134
1658790130524311,0.861402304112306,-0.039002059967955915,0.41437399862668833
1658790130540313,0.8738536659800102,0.01373311970702673,0.42682536049439257
1658790130556301,0.9186541542687117,0.06353856717784367,0.3678644998855569
1658790130572288,0.9566186007476922,0.04852368963149445,0.3098802166781107
1658790130588276,0.9798123140306707,-0.019592584115358136,0.2940108339055465
1658790130604263,0.975173571374075,-0.06158541237506654,0.35394827191576983
1658790130620250,0.9375753414206152,-0.07855344472419334,0.4098573281452662
1658790130636238,0.8976577401388575,-0.11541924162661177,0.4364690623331047
1658790130652225,0.8902113374532696,-0.15167467765316234,0.41766994735637475
1658790130668213,0.9243915465018695,-0.17682154573891795,0.3775082017242699
1658790130684200,0.9344014648661023,-0.13434042877851526,0.35309376668955483
1658790130700187,0.9175555046921495,-0.07122911421377909,0.343938353551537
1658790130716175,0.919142442969406,-0.032288090333409514,0.341374837872892
1658790130732162,0.9168230716411081,-0.00848401617456318,0.3595635919737541
1658790130748149,0.9215838864728774,-0.016540779736018862,0.3833676661326013
1658790130764137,0.9008316166933703,0.002868696116578917,0.39911497672999197
1658790130780124,0.8992446784161139,0.02642862592507811,0.4102235446707869
1658790130796112,0.9314717326619366,0.01495384145876244,0.40582894636453837
1658790130812099,0.9395284962233923,-0.03399710078583951,0.37103837644006976
1658790130828086,0.8751964599069204,0.004333562218661768,0.36932936598763977
1658790130844074,0.8446784161135268,0.08514534218356573,0.39496452277409055
1658790130860077,0.8772716868848711,0.12335393301289344,0.37201495384145833
1658790130876064,0.8863050278477154,0.13629358358129284,0.3284351873044935
1658790130892051,0.8738536659800102,0.11419851987487561,0.33502708476386633
1658790130908039,0.837232013427939,0.12286564431219915,0.3633478294041348
1658790130924026,0.8339360646982525,0.16095216296635417,0.3812924391546506
1658790130940014,0.8599374380102232,0.20672922865644328,0.35602349889372054
1658790130956001,0.8726329442282745,0.22442969405661106,0.3145189593347064
1658790130971988,0.8251468680857554,0.2609292744335088,0.3024338139925229
1658790130987976,0.7736324101625085,0.31146715495536714,0.3372243839169906
1658790131003963,0.7730220492866406,0.36151674677653123,0.36310368505378765
1658790131019950,0.8152590218966962,0.3650568398565648,0.3632257572289612
1658790131035938,0.8412603952086668,0.33746852826733775,0.30682841229877145
1658790131051925,0.779736018921187,0.36273746852826694,0.2838788433661401
1658790131067913,0.7058823529411766,0.4418402380407418,0.2914473182269015
1658790131083900,0.7009994659342338,0.5246051728084229,0.2743572137026016
1658790131099887,0.7119859616998552,0.5993133440146483,0.21100175478751826
1658790131115875,0.6699931334401468,0.6475318532082097,0.19671931029221046
1658790131131862,0.6655985351338982,0.7141832608529795,0.23614862287327387
1658790131147850,0.7732661936369878,0.6349584191653319,0.19208056763561476
1658790131163837,0.7990234225986113,0.5518272678721292,0.1537499046311135
1658790131179809,0.6370336461432826,0.6295872434576948,0.18548867017624193
1658790131195797,0.48444342717631805,0.8628671702143889,0.22735942626077676
1658790131211784,0.5283894102388036,0.8767833981841768,0.21454184786755182
1658790131227771,0.6706034943160146,0.7190661478599223,0.16070801861600703
1658790131243759,0.566964217593652,0.7431143663691158,0.2272373540856032
1658790131259746,0.36395819028000265,0.8809338521400782,0.30634012359807716
1658790131275734,0.4213321126115819,0.9502708476386665,0.22272068360418107
1658790131291721,0.6384985122453655,0.829541466392004,0.09857328145265853
1658790131307708,0.6182345311665518,0.8155031662470433,0.09552147707331926
1658790131323696,0.4177920195315483,0.949294270237278,0.21808194094758537
1658790131339683,0.31805905241474,0.9324483100633252,0.23822384985122458
1658790131355671,0.4032654306858934,0.9024185549706267,0.14666971847104637
1658790131371658,0.46051728084229815,0.8896009765774018,0.15851071946288275
1658790131387645,0.4354924849317161,0.8620126649881739,0.16266117341878417
1658790131403633,0.3814145113298242,0.9274433508812088,0.14056610971236783
1658790131419620,0.24286259250782027,1.0285191119249255,0.21869230182345323
1658790131435608,0.19891660944533474,1.0480506599526969,0.26141756313420306
1658790131451595,0.3654230563820855,0.901197833218891,0.15899900816357704
1658790131467582,0.4149843595025562,0.8178225375753412,0.0831921873807886
1658790131483570,0.2461585412375067,0.9630884260318915,0.23822384985122458
1658790131499572,0.11798275730525631,1.0489051651789119,0.25091935606927596
1658790131515560,0.20172426947432687,1.079301136797131,0.17779812314030696
1658790131531547,0.2910811017013808,0.9723659113450829,0.16241702906843702
1658790131547535,0.239810788128481,0.8955825131609068,0.1852445258258948
1658790131563522,0.17230487525749627,0.9573510337987337,0.2095368886854354
1658790131579509,0.10308995193408066,0.9918974593728542,0.22223239490348679
1658790131595497,0.10492103456168422,0.9936064698252842,0.1566796368352792
1658790131611484,0.14666971847104637,1.0169222552834363,0.14435034714274853
1658790131627472,0.09417868314640998,1.0984664682993817,0.1830472266727705
1658790131643459,0.07049668116273722,1.1521782253757538,0.21576256961928753
1658790131659446,0.11566338597695847,1.0490272373540854,0.19134813458457334
1658790131675434,0.12237735561150487,0.9665064469367515,0.16998550392919842
1658790131691421,0.04046692607003877,1.0136263065537499,0.1885404745555812
1658790131707409,-0.02276646066987098,1.171465629053178,0.238956282902266
1658790131723396,0.024841687647821686,1.1826962691691465,0.1768215457389184
1658790131739383,0.11273365377279276,1.0823529411764703,0.1491111619745178
1658790131755371,0.08587777523460716,1.0563515678644997,0.1566796368352792
1658790131771358,3.0518043793392735E-4,1.1203173876554509,0.15692378118562633
1658790131787346,-0.029968719005111666,1.1979552910658429,0.14605935759517852
1658790131803333,-0.03826962691691449,1.2132143129625392,0.13177691309987072
1658790131819336,-0.05145342183566015,1.195635919737545,0.19684138246738403
1658790131835323,-0.036438544289310926,1.1615777828641187,0.21258869306477468
1658790131851310,-0.015930418860151008,1.2040588998245214,0.21551842526894038
1658790131867298,-0.01239032578011745,1.2134584573128864,0.19037155718318477
1658790131883285,-0.041687647821774476,1.19478141451133,0.1852445258258948
1658790131899273,-0.06353856717784412,1.1754940108339058,0.19635309376668975
1658790131915260,-0.04364080262455161,1.18281834134432,0.19330128938735047
1658790131931247,-0.02130159456778813,1.1767147325856415,0.14032196536202068
1658790131947235,-0.019714656290531707,1.1897764553292136,0.16156252384222203
1658790131963222,-0.03595025558861664,1.184283207446403,0.17364766918440555
1658790131979210,-0.018493934538795997,1.1703669794766158,0.2066071564812697
1658790131995197,0.026916914625772392,1.099198901350423,0.20611886778057542
1658790132011184,0.055970092317082276,1.0658731975280382,0.1911039902342262
1658790132027172,0.04058899824521234,1.0978561074235138,0.20209048599984758
1658790132043159,0.04583810177767589,1.0926070038910503,0.2200350957503625
1658790132059147,0.06353856717784367,1.1149462119478137,0.2033112077515833
1658790132075134,0.10760662241550278,1.1244678416113523,0.19708552681773117
1658790132091121,0.1663233386739913,1.082719157701991,0.18194857709620837
1658790132107109,0.19366750591287119,1.0507362478065154,0.18036163881895195
1658790132123096,0.18194857709620837,1.0319371328297855,0.21905851834897394
1658790132139068,0.16986343175402485,1.0105745021744106,0.2565346761272602
1658790132155056,0.22772564278629748,0.9859159227893493,0.21857022964827966
1658790132171043,0.313786526283665,0.9909208819714657,0.1809719996948198
1658790132187030,0.32111085679407925,0.9608911268787672,0.2103913939116504
1658790132203018,0.3014572365911343,0.9158464942397195,0.25006485084306096
1658790132219005,0.3384451056687263,0.8910658426794846,0.22504005493247892
1658790132234993,0.419867246509499,0.8582284275577932,0.1721828030823227
1658790132250980,0.44452582589456036,0.8399176012817575,0.15094224460212136
1658790132266967,0.44501411459525464,0.8316166933699547,0.1961089494163426
1658790132282955,0.4791943236438545,0.7600823987182421,0.21051346608682397
1658790132298942,0.5426718547341114,0.7195544365606166,0.16412603952086702
1658790132314930,0.5757534142061491,0.6934309910734724,0.1419089036392771
1658790132330917,0.5423056382085907,0.7053940642404823,0.1998931868467233
1658790132346904,0.5137407492179751,0.6947737850003817,0.26056305790798806
1658790132362892,0.6189669642175932,0.5713588158999006,0.23236438544289317
1658790132378879,0.75043869687953,0.5008010986495766,0.14508278019378995
1658790132394867,0.7321278706034944,0.52314030670634,0.14715800717174066
1658790132410854,0.5985809109636069,0.6083466849774926,0.2503089951934081
1658790132426841,0.5479209582665749,0.6905012588693067,0.29291218432898436
1658790132442829,0.6947737850003817,0.5553673609521628,0.23248645761806674
1658790132458831,0.8777599755855654,0.40753795681696836,0.12970168612192
1658790132474819,0.8949721522850389,0.3268482490272371,0.1620508125429163
1658790132490806,0.8091554131380176,0.4019226367589841,0.24640268558785383
1658790132506794,0.7356679636835279,0.4959182116426337,0.2897383077744715
1658790132522781,0.7356679636835279,0.4376897840848404,0.2876630807965208
1658790132538768,0.8059815365835048,0.3213550011444264,0.20929274433508827
1658790132554756,0.8428473334859232,0.3208667124437321,0.19171435111009405
1658790132570743,0.8277103837644004,0.3594415197985805,0.22406347753109035
1658790132586731,0.8369878690775918,0.3339284351873042,0.24676890211337454
1658790132602718,0.8582284275577932,0.23541618982223245,0.2592202639810788
1658790132618705,0.8455329213397418,0.24054322117952243,0.28033875028610655
1658790132634693,0.840650034332799,0.35004196231021556,0.31122301060502
1658790132650680,0.8364995803768975,0.3674982833600362,0.29718471046005934
1658790132666668,0.9109636072327767,0.20440985732814543,0.27618829633020514
1658790132682655,0.9665064469367515,0.0776989394979779,0.25470359349965666
1658790132698642,1.0030060273136492,0.12835889219501073,0.28204776073853655
1658790132714630,0.9809109636072328,0.2528725108720531,0.23651483939879459
1658790132730617,0.934767681391623,0.28583199816891725,0.2191805905241475
1658790132746605,0.943312733653773,0.17169451438162842,0.23065537499046318
1658790132762592,0.98286411841001,0.02276646066987098,0.22699320973525605
1658790132778595,0.9906767376211185,-0.038879987792782345,0.27484550240329586
1658790132794582,0.9553978789959565,-0.015564202334630295,0.32062256809338496
1658790132810569,0.9301289387350273,0.060975051499198685,0.3418631265735863
1658790132826557,0.9357442587930116,0.09332417792019498,0.30634012359807716
1658790132842544,0.9490501258869308,0.06524757763027367,0.2709391927977416
1658790132858532,0.9801785305561914,0.018127718013275285,0.28497749294270225
1658790132874519,0.9733424887464714,0.015808346684977437,0.3220874341954678
1658790132890506,0.9274433508812088,6.103608758678547E-5,0.3327077134355685
1658790132906494,0.9031509880216682,-0.05035477225909801,0.3242847333485921
1658790132922481,0.8863050278477154,-0.07489127946898622,0.3275806820782785
1658790132938469,0.8905775539787903,-0.05499351491569371,0.3179369802395664
1658790132954456,0.8867933165484096,-0.007629510948348184,0.29047074082551294
1658790132970443,0.9135271229114217,0.02655069810025168,0.26483558403906304
1658790132986431,0.9490501258869308,0.013122758831158876,0.23382925154497602
1658790133002418,0.9324483100633252,0.001159685664148924,0.2473792629892424
1658790133018406,0.8920424200808732,0.05011062790875087,0.2752117189288166
1658790133034393,0.8932631418326089,0.09185931181811213,0.30426489662012646
1658790133050380,0.9007095445181967,0.11187914854657777,0.3157396810864421
1658790133066368,0.8931410696574353,0.09820706492713782,0.32904554818036136
1658790133082355,0.8698252841992824,0.11334401464866062,0.28925001907377723
1658790133098327,0.8556649118791482,0.17206073090714913,0.26190585183489734
1658790133114315,0.857984283207446,0.2503089951934081,0.2410315098802167
1658790133130302,0.8427252613107497,0.317204547188525,0.240665293354696
1658790133146289,0.828686961165789,0.341374837872892,0.2573891813534752
1658790133162277,0.7879148546578163,0.37946135652704704,0.26361486228732733
1658790133178264,0.7674067292286564,0.38947127489127986,0.3091477836270693
1658790133194252,0.7844968337529563,0.39838254367895054,0.2855878538185701
1658790133210239,0.7904783703364613,0.45795376516365316,0.30646219577325073
1658790133226226,0.75727473868925,0.5418173495078964,0.27032883192187374
1658790133242214,0.7229724574654766,0.5692835889219499,0.22235446707866036
1658790133258201,0.6973373006790267,0.5380331120775157,0.2351720454718853
1658790133274189,0.6519264515144583,0.6400854505226219,0.24628061341268026
1658790133290176,0.5946746013580526,0.7813229571984435,0.29547570000762935
1658790133306163,0.6907454032196538,0.6752422369726103,0.206240939955749
1658790133322151,0.7869382772564277,0.5578088044556342,0.06524757763027367
1658790133338138,0.6282444495307855,0.7561760891126879,0.13507286182955713
1658790133354126,0.47394522011139095,0.9004654001678496,0.23285267414358746
1658790133370113,0.5852750438696877,0.8051270313572898,0.17279316395819055
1658790133386100,0.7229724574654766,0.6187228198672461,0.08343633173113574
1658790133402088,0.5587853818570228,0.7588616769665064,0.16058594644083346
1658790133418090,0.3843442435339899,0.9367208361944002,0.25018692301823453
1658790133434078,0.47858396276798665,0.9823758297093157,0.1398336766613264
1658790133450065,0.6272678721293969,0.7935301747158006,0.052918287937743
1658790133466053,0.5656214236667427,0.7257801174944687,0.11566338597695847
1658790133482040,0.3909361409933627,0.8671396963454638,0.1520408941786835
1658790133498027,0.26349279011215376,1.0651407644769968,0.2603189135576409
1658790133514015,0.32562752727550137,0.9873807888914321,0.18829633020523406
1658790133530002,0.4485542076752882,0.871656366826886,0.12799267566949002
1658790133545990,0.4007019150072484,0.8546883344777596,0.1351949340047307
1658790133561977,0.2554360265506981,1.0108186465247577,0.23236438544289317
1658790133577964,0.21857022964827966,1.0536659800106811,0.21454184786755182
1658790133593952,0.3339284351873042,0.9384298466468302,0.1419089036392771
1658790133609939,0.36823071641107763,0.8959487296864275,0.14935530632486493
1658790133625927,0.23712520027466244,0.96748302433814,0.20343327992675686
1658790133641914,0.19476615548943332,1.125078202487221,0.1713282978561077
1658790133657901,0.27484550240329586,1.0612344548714425,0.11456473640039633
1658790133673889,0.2993820096131836,0.9380636301213094,0.13482871747921
1658790133689876,0.20123598077363258,0.9320820935378045,0.1768215457389184
1658790133705864,0.08160524910353217,1.0513466086823833,0.25421530479896237
1658790133721851,0.05511558709086728,1.0711223010605018,0.240665293354696
1658790133737854,0.14435034714274853,1.0141145952544441,0.17242694743266984
1658790133753841,0.2305333028152896,0.9684596017395286,0.13116655222400286
1658790133769828,0.1763332570382241,1.0128938735027084,0.19928282597085545
1658790133785816,0.0718394750896465,1.0420691233691919,0.21661707484550252
1658790133801803,0.08331425955596217,1.0213168535896848,0.13092240787365572
1658790133817791,0.123476005188067,0.9877470054169528,0.07403677424277078
1658790133833778,0.0802624551766229,0.9887235828183414,0.12664988174258074
1658790133849765,-0.011779964904249596,1.0606240939955747,0.16095216296635417
1658790133865753,-0.06976424811169624,1.1190966659037151,0.18622110322728336
1658790133881740,-0.023132677195391693,1.0473182269016554,0.15606927595941134
1658790133897728,0.010315098802166744,1.0171663996337834,0.1663233386739913
1658790133913715,-0.053284504463263715,1.0519569695582511,0.27240405889982444
1658790133929702,-0.08636606393530188,1.0791790646219575,0.2843671320668344
1658790133945690,-0.04095521477073305,1.0851606012054624,0.18536659800106836
1658790133961677,-0.019348439765010994,1.0891889829861903,0.13373006790264785
1658790133977665,-0.054505226214999425,1.1317921721217674,0.15045395590142707
1658790133993652,-0.058411535820553695,1.1508354314488445,0.1310444800488293
1658790134009639,-0.04095521477073305,1.1216601815823601,0.08795300221255786
1658790134025627,-0.06073090714885154,1.065629053177691,0.1155413138017849
1658790134041614,-0.1455710688944838,1.1420462348363474,0.17145037003128127
1658790134057586,-0.1998931868467233,1.2921950102998396,0.21979095140001537
1658790134073574,-0.14789044022278164,1.3025711451895932,0.20648508430609613
1658790134089561,-0.07025253681239052,1.212970168612192,0.19928282597085545
1658790134105548,-0.07953002212558191,1.188555733577478,0.20514229037918685
1658790134121536,-0.0875867856870376,1.2397039749752041,0.19256885633630905
1658790134137523,-0.07672236209658978,1.255939574273289,0.15899900816357704
1658790134153511,-0.048157473105973736,1.1936827649347679,0.12994583047226715
1658790134169498,-0.03973449301899734,1.1045700770580602,0.12237735561150487
1658790134185485,-0.0838025482566569,1.1193408102540623,0.13873502708476426
1658790134201473,-0.08099488822766476,1.1230029755092694,0.14312962539101282
1658790134217460,-0.02777141985198739,1.1005416952773324,0.13665980010681356
1658790134233448,-0.011535820553902454,1.1123826962691687,0.17120622568093413
1658790134249435,-0.044251163500419466,1.1559624628061345,0.19769588769359903
1658790134265422,-0.02130159456778813,1.1419241626611738,0.19745174334325188
1658790134281410,0.053040360112916574,1.0738078889143203,0.19134813458457334
1658790134297397,0.11151293202105705,1.0149691004806591,0.18036163881895195
1658790134313385,0.11505302510109061,1.0498817425803004,0.1680323491264213
1658790134329372,0.10650797283894065,1.0890669108110167,0.15545891508354348
1658790134345359,0.14679179064621994,1.0836957351033796,0.11798275730525631
1658790134361347,0.1948882276646069,1.0375524528877698,0.12372014953841415
1658790134377349,0.21515220874341967,0.9676050965133136,0.1680323491264213
1658790134393337,0.19891660944533474,0.9311055161364159,0.17547875181200911
1658790134409324,0.23639276722362101,0.9151140611886781,0.1986724650949876
1658790134425312,0.3028000305180436,0.9202410925459681,0.20758373388265827
1658790134441299,0.3192797741664757,0.9068131532768753,0.23041123064011604
1658790134457286,0.3314869916838328,0.8968032349126425,0.23334096284428174
1658790134473274,0.38361181048294846,0.8465094987411304,0.26056305790798806
1658790134489261,0.46845197222858026,0.8156252384222169,0.22235446707866036
1658790134505249,0.5114213778896772,0.8131837949187455,0.20099183642328544
1658790134521236,0.4837109941252766,0.7838864728770885,0.237247272449836
1658790134537223,0.4165712977798126,0.8388189517051954,0.28033875028610655
1658790134553211,0.4447699702449075,0.763256275272755,0.30438696879530003
1658790134569198,0.5502403295948728,0.7062485694666973,0.2153963530937668
1658790134585186,0.6071259632257568,0.677317463950561,0.20648508430609613
1658790134601173,0.5866178377965969,0.6515602349889376,0.27655451285572585
1658790134617160,0.5474326695658807,0.6626688029297325,0.31403067063401213
1658790134633148,0.6049286640726326,0.6271457999542234,0.2838788433661401
1658790134649135,0.6970931563286795,0.5884489204242005,0.2676432440680552
1658790134665123,0.6749980926222632,0.5029983978027008,0.2881513694972151
1658790134681110,0.6345922026398112,0.5026321812771801,0.2507972838941024
1658790134697113,0.7039291981383995,0.5235065232318608,0.2162508583199818
1658790134713100,0.8583504997329667,0.420721751735714,0.16351567864499916
1658790134729087,0.9345235370412759,0.36102845807583694,0.12079041733424845
1658790134745075,0.8327153429465168,0.4149843595025562,0.1948882276646069
1658790134761062,0.6559548332951861,0.5076371404592965,0.34760051880674414
1658790134777050,0.591134508278019,0.5177691309987029,0.4216983291371026
1658790134793037,0.7720454718852521,0.33966582742046203,0.3444266422522313
1658790134809024,1.0116731517509727,0.14801251239795565,0.16693369954985915
1658790134825012,1.0695353627832453,0.0844129091325243,0.11712825207904132
1658790134840999,0.9254901960784316,0.18536659800106836,0.22235446707866036
1658790134856987,0.7851071946288242,0.3898374914168006,0.33746852826733775
1658790134872974,0.7306630045014115,0.5206988632028686,0.35211718928816627
1658790134888961,0.8142824444953076,0.390569924467842,0.2833905546654458
1658790134904949,0.9490501258869308,0.13824673838406998,0.2642252231631952
1658790134920936,0.9704127565423057,-0.04071107042038591,0.30255588616769646
1658790134936924,0.9184100099183645,-0.06256198977645555,0.3519951171129927
1658790134952911,0.9026626993209739,0.04718089570458517,0.3612726024261841
1658790134968898,0.912306401159686,0.15814450293736204,0.30389868009460574
1658790134984886,0.9069352254520489,0.18878461890592835,0.26276035706111234
1658790135000873,0.8825207904173347,0.16778820477607415,0.2743572137026016
1658790135016845,0.8968032349126425,0.11139085984588348,0.32404058899824495
1658790135032833,0.9677271686884872,0.03424124513618665,0.385442893110552
1658790135048820,0.9990997177080949,-0.014709697108415298,0.39545281147478484
1658790135064808,0.9590600442511636,0.01873807888914314,0.39166857404440414
1658790135080795,0.9134050507362481,0.03997863736934448,0.38275730525673346
1658790135096782,0.8963149462119482,0.04486152437628732,0.35468070496681126
1658790135112770,0.8928969253070882,0.0499885557335773,0.3323414969100478
1658790135128757,0.8944838635843446,0.05621423666742942,0.3327077134355685
1658790135144744,0.8875257495994511,0.03973449301899734,0.317204547188525
1658790135160732,0.9048599984740981,-0.003356984817273201,0.31110093842984643
1658790135176719,0.9225604638742659,-0.020935378042267416,0.3288014038300142
1658790135192707,0.9171892881666288,0.01483176928358887,0.34467078660257844
1658790135208694,0.9042496375982303,0.07367055771725006,0.3363698786907756
1658790135224681,0.869947356374456,0.11163500419623062,0.31903562981612854
1658790135240669,0.8283207446402683,0.16656748302433844,0.3306324864576178
1658790135256656,0.8327153429465168,0.21405355916685753,0.3495536736095213
1658790135272644,0.8800793469138632,0.20978103303578255,0.3478446631570913
1658790135288631,0.893507286182956,0.2138094148165104,0.32782482642862565
1658790135304618,0.8606698710612646,0.25384908827344166,0.2993820096131836
1658790135320606,0.8417486839093611,0.28546578164339653,0.29217975127794293
1658790135336609,0.8211184863050276,0.3355153734645606,0.28705271992065295
1658790135352596,0.7997558556496527,0.37531090257114563,0.3191577019913021
1658790135368583,0.7715571831845578,0.4148622873273826,0.30463111314564717
1658790135384571,0.7215075913633937,0.5034866865033951,0.28632028686961153
1658790135400558,0.6907454032196538,0.5370565346761271,0.28754100862134724
1658790135416545,0.7312733653772794,0.49445334554055087,0.2595864805065995
1658790135432533,0.7957274738689248,0.4984817273212787,0.20941481651026184
1658790135448520,0.7376211184863051,0.601388570992599,0.20733958953231113
1658790135464508,0.6520485236896318,0.6880598153658353,0.21686121919584966
1658790135480495,0.6561989776455333,0.6627908751049061,0.2289463645380332
1658790135496482,0.710887312123293,0.5830777447165634,0.18463416495002694
1658790135512470,0.6697489890897996,0.6290989547570005,0.1943999389639126
1658790135528457,0.555855649652857,0.7746089875638971,0.278507667658503
1658790135544445,0.49420920119020373,0.8500495918211639,0.3683527885862512
1658790135560432,0.5768520637827113,0.7311512932021058,0.2628824292362859
1658790135576419,0.6464332036316476,0.7056382085908295,0.12872510872053144
1658790135592407,0.5436484321355,0.8476081483176925,0.20611886778057542
1658790135608394,0.49286640726329445,0.8963149462119482,0.19562066071564832
1658790135624382,0.5741664759288927,0.892652780956741,0.12384222171358772
1658790135640369,0.54023041123064,0.8805676356145575,0.15106431677729493
1658790135656341,0.3717708094911112,0.863111314564736,0.22858014801251247
1658790135672329,0.3175707637140457,0.9512474250400551,0.2499427786678874
1658790135688316,0.44867627985046177,0.9008316166933703,0.16571297779812344
1658790135704303,0.5623254749370563,0.7854734111543449,0.07281605249103507
1658790135720291,0.4845654993514916,0.8461432822156096,0.14093232623788854
1658790135736278,0.29547570000762935,0.929640650034333,0.21136797131303897
1658790135752266,0.24029907682917528,1.0171663996337834,0.1931792172121769
1658790135768253,0.3457694361791406,0.8915541313801789,0.1486228732738235
1658790135784240,0.37909514000152633,0.7793698023956663,0.09063859006637642
1658790135800228,0.24591439688715955,0.9759060044251164,0.17914091706721624
1658790135816215,0.10186923018234495,1.1046921492332338,0.32990005340657635
1658790135832203,0.14630350194552566,1.0366979476615548,0.2305333028152896
1658790135848190,0.3104905775539786,0.940749217975128,0.13373006790264785
1658790135864177,0.2781414511329823,0.9678492408636608,0.1906157015335319
1658790135880165,0.12957961394674644,1.0349889372091248,0.2599526970321202
1658790135896152,0.08905165178912,1.074174105439841,0.26861982146944374
1658790135912140,0.17535667963683554,1.0524452582589454,0.15521477073319634
1658790135928127,0.25775539787899593,1.0065461203936827,0.10235751888303923
1658790135944114,0.20379949645227757,1.0077668421454185,0.14703593499656709
1658790135960102,0.09100480659189714,1.0629434653238725,0.19757381551842546
1658790135976104,0.016662851911192433,1.0412146181429769,0.2258945601586939
1658790135992092,0.036316472114137355,0.9772487983520257,0.17193865873197556
1658790136008079,0.05535973144121442,0.9916533150225071,0.16400396734569345
1658790136024067,0.013000686655985305,1.0598916609445332,0.23456168459601745
1658790136040054,-5.493247882810692E-4,1.1332570382238503,0.22980086976424818
1658790136056041,0.06756694895857152,1.174883649958038,0.1541161211566342
1658790136072029,0.054627298390172996,1.1504692149233238,0.16009765774013918
1658790136088016,-0.04205386434729519,1.1253223468375682,0.22455176623178463
1658790136104004,-0.061097123674372256,1.131914244296941,0.24811169604028382
1658790136119991,-0.013488975356679589,1.1038376440070188,0.19171435111009405
1658790136135978,0.02008087281605242,1.0669718471046004,0.12664988174258074
1658790136151966,-0.006530861371786045,1.0641641870756082,0.14703593499656709
1658790136167953,-0.10174715800717182,1.1610894941634244,0.2296787975890746
1658790136183941,-0.12262149996185245,1.1820859082932786,0.2628824292362859
1658790136199928,-0.0669565880827041,1.1615777828641187,0.2645914396887159
1658790136215915,-0.02008087281605242,1.1471732661936374,0.2520180056458381
1658790136231903,-0.045593957427328746,1.214679179064622,0.2842450598916608
1658790136247890,-0.08978408484016187,1.287800411993591,0.29120317387655437
1658790136263877,-0.062317845426107965,1.255939574273289,0.24176394293125814
1658790136279865,-0.024475471122300974,1.135332265201801,0.2153963530937668
1658790136295837,-0.00848401617456318,1.0501258869306476,0.22943465323872747
1658790136311824,-0.060852979324025114,1.0839398794537267,0.22235446707866036
1658790136327812,-0.0980849927519647,1.169756618600748,0.24225223163195242
1658790136343799,-0.06060883497367797,1.142168307011521,0.23846799420157172
1658790136359787,0.004333562218661768,1.0832074464026853,0.23212024109254603
1658790136375774,0.06573586633096795,1.0321812771801326,0.22504005493247892
1658790136391761,0.11248950942244562,1.0578164339665825,0.19635309376668975
1658790136407749,0.09967193102922067,1.1497367818722823,0.19049362935835834
1658790136423736,0.0575570305943387,1.1721980621042194,0.22613870450904106
1658790136439724,0.0936903944457157,1.1200732433051037,0.22980086976424818
1658790136455711,0.14728007934691423,1.0746623941405353,0.22394140535591678
1658790136471698,0.1713282978561077,1.0445105668726633,0.24005493247882814
1658790136487686,0.18207064927138195,1.0183871213855191,0.2351720454718853
1658790136503673,0.1957427328908219,0.9894560158693828,0.26276035706111234
1658790136519661,0.20685130083161685,0.975173571374075,0.26776531624322875
1658790136535648,0.23175402456702532,0.9951934081025406,0.27313649195086587
1658790136551635,0.2649576562142366,0.9446555275806823,0.2632486457618066
1658790136567623,0.2850995651178758,0.9596704051270315,0.2205233844510568
1658790136583610,0.3117112993057143,0.9696803234912643,0.2100251773861297
1658790136599598,0.40460822461280266,0.882154573891814,0.19305714503700333
1658790136615600,0.4876173037308309,0.8111085679407948,0.1864652475776305
1658790136631588,0.4700389105058367,0.7626459143968871,0.20477607385366614
1658790136647575,0.38239108873121275,0.8152590218966962,0.2313878080415046
1658790136663562,0.3674982833600362,0.8267338063630119,0.2553139543755245
1658790136679550,0.5159380483710994,0.6990463111314567,0.22735942626077676
1658790136695537,0.7058823529411766,0.5657434958419163,0.10516517891203137
1658790136711525,0.7238269626916916,0.5451132982375828,0.11432059205004919
1658790136727512,0.5622034027618827,0.6697489890897996,0.22565041580834677
1658790136743499,0.4574654764629589,0.7388418402380408,0.32269779507133567
1658790136759487,0.5967498283360033,0.5758754863813227,0.2561684596017395
1658790136775474,0.834668497749294,0.39545281147478484,0.13238727397573857
1658790136791462,0.8422369726100554,0.42853437094682256,0.1620508125429163
1658790136807449,0.6643778133821625,0.5475547417410542,0.31940184634164925
1658790136823436,0.6367895017929355,0.5759975585564963,0.345647364003967
1658790136839424,0.7871824216067749,0.4762645914396888,0.2747234302281223
1658790136855411,0.8461432822156096,0.36176089112687837,0.21551842526894038
1658790136871399,0.7654535744258792,0.3002365148393986,0.24786755168993668
1658790136887386,0.7364003967345694,0.3306324864576178,0.29974822613870433
1658790136903373,0.7986572060730905,0.3075608453498129,0.26019684138246735
1658790136919361,0.9317158770122838,0.18866254673075478,0.22064545662623036
1658790136935333,1.0478065156023497,0.09442282749675712,0.19891660944533474
1658790136951320,1.0083772030212863,0.10455481803616351,0.2153963530937668
1658790136967308,0.8806897077897311,0.1852445258258948,0.2553139543755245
1658790136983295,0.800244144350347,0.2566567483024338,0.3020675974670022
1658790136999282,0.8417486839093611,0.20611886778057542,0.2831464103150987
1658790137015270,0.9542992294193944,0.06366063935301725,0.24847791256580454
1658790137031257,1.0812542915999082,-0.011535820553902454,0.24176394293125814
1658790137047245,1.071366445410849,0.01483176928358887,0.270817120622568
1658790137063232,0.9485618371862365,0.08368047608148288,0.3090257114518957
1658790137079219,0.8427252613107497,0.10614175631341993,0.34833295185778557
1658790137095207,0.7875486381322956,0.049378194857709445,0.3633478294041348
1658790137111194,0.8125734340428776,-0.045593957427328746,0.34540321965361986
1658790137127182,0.9098649576562146,-0.11810482948043033,0.3532158388647284
1658790137143169,0.9833524071107043,-0.1464255741206988,0.351628900587472
1658790137159156,0.9801785305561914,-0.10272373540856039,0.31854734111543426
1658790137175144,0.9082780193789581,-0.01104753185320817,0.2728923476005187
1658790137191131,0.8606698710612646,0.04376287479972518,0.23273060196841389
1658790137207119,0.8695811398489353,0.03436331731136022,0.22919050888838033
1658790137223106,0.9031509880216682,-4.272526131074983E-4,0.25983062485694663
1658790137239093,0.9098649576562146,0.0289921416037231,0.27911802853437084
1658790137255096,0.9363546196688795,0.05560387579156156,0.280216678110933
1658790137271083,0.9246356908522166,0.08075074387731718,0.29462119478141435
1658790137287071,0.860547798886091,0.0986953536278321,0.27447928587777515
1658790137303058,0.8180666819256883,0.16595712214847058,0.28546578164339653
1658790137319046,0.8345464255741204,0.238101777676051,0.31317616540779714
1658790137335033,0.8405279621576254,0.30353246356908503,0.29669642175936506
1658790137351020,0.823559929808499,0.31146715495536714,0.25726710917830165
1658790137367008,0.7887693598840313,0.346501869230182,0.2385900663767453
1658790137382995,0.7830319676508735,0.44379339284351893,0.2208896009765775
1658790137398983,0.7630121309224078,0.5753871976806284,0.2263828488593882
1658790137414970,0.7367666132600901,0.6110322728313111,0.22333104448004892
1658790137430957,0.7217517357137408,0.4740672922865645,0.24603646906233312
1658790137446945,0.7062485694666973,0.4265812161440454,0.22833600366216533
1658790137462932,0.6808575570305946,0.5105668726634622,0.24176394293125814
1658790137478920,0.6325169756618605,0.646311131456474,0.207095445181964
1658790137494907,0.5722133211261156,0.7019760433356224,0.20306706340123615
1658790137510894,0.5271686884870679,0.7815671015487906,0.2511635004196231
1658790137526882,0.6320286869611662,0.712596322575723,0.21942473487449465
1658790137542869,0.7566643778133821,0.6614480811779968,0.12872510872053144
1658790137558857,0.6570534828717483,0.8216067750057219,0.08404669260700359
1658790137574829,0.4821240558480202,0.9120622568093388,0.21393148699168396
1658790137590816,0.495551995117113,0.7746089875638971,0.1272602426184486
1658790137606804,0.5241168841077286,0.7947508964675363,0.050476844434271584
1658790137622791,0.3955748836499584,0.9319600213626309,0.13311970702678
1658790137638778,0.29547570000762935,0.9300068665598538,0.1952544441901276
