Timestamp (microseconds),Gyro X (°/s),Gyro Y (°/s),Gyro Z (°/s)
1658790028789337,0.8850232700083325,-2.5940337224383256,-0.5188067444876197
1658790028805335,1.8005645838102282,-2.288853284504512,0.2746623941404778
1658790028821333,0.7019150072480898,-1.9226367589837992,0.7629510948347615
1658790028837330,-0.5188067444876197,-1.9226367589837992,0.7629510948347615
1658790028853328,-1.739528496223329,-2.166781109330941,0.5798428320745188
1658790028869326,-0.5798428320745188,-1.983672846570471,1.0681315327688026
1658790028885324,-0.03051804379333589,-2.288853284504512,0.5188067444876197
1658790028901322,-0.8850232700083325,-2.166781109330941,0.33569848172737693
1658790028917320,-1.1902037079423735,-1.8005645838102282,0.09155413138023505
1658790028933318,-0.33569848172737693,-1.3733119707026162,0.8239871824216607
1658790028949316,0.7629510948347615,-1.1902037079423735,1.1902037079423735
1658790028965314,-0.213626306553806,-1.2512397955290453,1.0070954451819034
1658790028981311,-1.1291676203554744,-0.8850232700083325,1.1291676203554744
1658790028997309,-1.8005645838102282,-0.7019150072480898,0.8239871824216607
1658790029013307,-1.0070954451819034,-0.7629510948347615,1.0070954451819034
1658790029029305,0.33569848172737693,-0.45777065690094787,1.5564202334630863
1658790029045303,1.4953841458761872,-0.7629510948347615,1.4343480582895154
1658790029061301,-0.15259021896690683,-0.8850232700083325,1.0070954451819034
1658790029077299,-0.3967345693140487,-0.5188067444876197,1.1291676203554744
1658790029093297,-0.2746623941404778,0.2746623941404778,1.6174563210497581
1658790029109283,-1.3733119707026162,1.0070954451819034,2.3498893720911838
1658790029125281,-0.03051804379333589,0.9460593575952316,2.8381780727854675
1658790029141279,0.03051804379333589,0.33569848172737693,2.5940337224383256
1658790029157277,1.739528496223329,-0.33569848172737693,2.7161058976118966
1658790029173275,2.4719615472647547,-0.5798428320745188,2.3498893720911838
1658790029189273,0.7629510948347615,-0.213626306553806,2.04470893415737
1658790029205270,-0.03051804379333589,0.15259021896690683,1.4343480582895154
1658790029221268,-0.5798428320745188,-0.09155413138023505,0.7019150072480898
1658790029237266,0.7629510948347615,-0.7629510948347615,1.0070954451819034
1658790029253264,0.5798428320745188,-1.6784924086366573,1.0681315327688026
1658790029269262,0.7019150072480898,-2.04470893415737,1.4343480582895154
1658790029285260,-0.5188067444876197,-2.04470893415737,1.0070954451819034
1658790029301258,-1.6784924086366573,-1.8616006713969,0.213626306553806
1658790029317256,-0.7629510948347615,-1.1902037079423735,-0.15259021896690683
1658790029333253,0.2746623941404778,-1.3733119707026162,-0.213626306553806
1658790029349251,1.3122758831159445,-2.105745021744042,-0.03051804379333589
1658790029365249,1.6784924086366573,-2.8992141603723667,0.2746623941404778
1658790029381247,1.8616006713969,-3.2654306858930795,0.03051804379333589
1658790029397245,-0.2746623941404778,-2.288853284504512,-0.15259021896690683
1658790029413243,-1.739528496223329,-0.7019150072480898,-0.45777065690094787
1658790029429260,-2.288853284504512,0.2746623941404778,-0.8850232700083325
1658790029445258,-2.105745021744042,0.03051804379333589,-0.7629510948347615
1658790029461256,1.1902037079423735,-0.7019150072480898,0.15259021896690683
1658790029477254,3.4485389486533222,-1.1902037079423735,0.45777065690094787
1658790029493251,3.2043945983061803,-1.3733119707026162,0.5798428320745188
1658790029509249,0.03051804379333589,-1.4953841458761872,0.3967345693140487
1658790029525247,-3.570611123826893,-1.1902037079423735,0.7019150072480898
1658790029541245,-3.7537193865873633,-1.0070954451819034,1.0681315327688026
1658790029557243,-2.8381780727854675,-1.1902037079423735,1.1291676203554744
1658790029573241,0.03051804379333589,-1.3733119707026162,1.0681315327688026
1658790029589239,1.3733119707026162,-1.8005645838102282,0.6408789196611906
1658790029605237,1.0681315327688026,-1.4953841458761872,0.8850232700083325
1658790029621235,1.4343480582895154,-1.3122758831159445,0.9460593575952316
1658790029637232,0.8239871824216607,-1.3122758831159445,0.8850232700083325
1658790029653230,-0.7629510948347615,-1.5564202334630863,0.8850232700083325
1658790029669228,-2.532997634851654,-1.9226367589837992,1.3122758831159445
1658790029685226,-4.547188525215461,-2.7771419851987957,1.4343480582895154
1658790029701224,-5.462729839017356,-3.997863736934505,1.739528496223329
1658790029717222,-5.0354772259097444,-4.119935912108076,1.6174563210497581
1658790029733220,-2.532997634851654,-3.4485389486533222,1.739528496223329
1658790029749115,-1.3122758831159445,-3.0823224231326094,1.6784924086366573
1658790029765112,1.5564202334630863,-2.655069810025225,1.3733119707026162
1658790029781109,4.730296787975931,-2.5940337224383256,0.7019150072480898
1658790029797107,4.791332875562603,-2.5940337224383256,0.09155413138023505
1658790029813104,4.852368963149502,-2.166781109330941,-0.213626306553806
1658790029829102,3.814755474174035,-1.739528496223329,-0.33569848172737693
1658790029845099,2.3498893720911838,-1.9226367589837992,-0.213626306553806
1658790029861096,0.7019150072480898,-2.532997634851654,0.09155413138023505
1658790029877094,0.03051804379333589,-2.5940337224383256,0.5188067444876197
1658790029893091,0.45777065690094787,-1.983672846570471,0.7629510948347615
1658790029909089,0.213626306553806,-1.5564202334630863,0.7629510948347615
1658790029925086,-1.1291676203554744,-1.4953841458761872,0.7019150072480898
1658790029941084,-1.8616006713969,-1.1291676203554744,1.2512397955290453
1658790029957081,-2.166781109330941,-0.8239871824216607,1.5564202334630863
1658790029973078,-3.3264667734797513,-0.03051804379333589,1.8005645838102282
1658790029989076,-2.7771419851987957,0.9460593575952316,2.105745021744042
1658790030005073,-1.5564202334630863,1.4343480582895154,2.105745021744042
1658790030021071,0.2746623941404778,1.3733119707026162,2.04470893415737
1658790030037068,2.7161058976118966,1.1902037079423735,2.04470893415737
1658790030053065,3.997863736934505,1.0070954451819034,1.6174563210497581
1658790030068939,2.655069810025225,0.9460593575952316,1.6784924086366573
1658790030084936,0.5188067444876197,0.8850232700083325,1.983672846570471
1658790030100933,-1.0070954451819034,0.8850232700083325,2.105745021744042
1658790030116930,-0.7629510948347615,0.6408789196611906,2.105745021744042
1658790030132927,-0.213626306553806,0.213626306553806,1.6784924086366573
1658790030148923,0.15259021896690683,-0.33569848172737693,1.3122758831159445
1658790030164920,0.5188067444876197,-0.213626306553806,1.1291676203554744
1658790030180917,0.8239871824216607,0.3967345693140487,1.6784924086366573
1658790030196914,0.5798428320745188,0.8239871824216607,1.1291676203554744
1658790030212911,1.4343480582895154,1.2512397955290453,1.3122758831159445
1658790030228908,2.7771419851987957,1.0070954451819034,1.3122758831159445
1658790030244905,2.5940337224383256,0.2746623941404778,1.1291676203554744
1658790030260902,2.410925459678083,-0.7019150072480898,0.7629510948347615
1658790030276899,2.166781109330941,-1.1902037079423735,1.1902037079423735
1658790030292896,1.5564202334630863,-1.3122758831159445,0.9460593575952316
1658790030308893,-0.45777065690094787,-2.166781109330941,0.8850232700083325
1658790030324890,-2.04470893415737,-2.7771419851987957,0.9460593575952316
1658790030340887,-1.4953841458761872,-3.5095750362402214,0.7019150072480898
1658790030356884,0.3967345693140487,-4.058899824521177,0.7629510948347615
1658790030372881,1.5564202334630863,-4.669260700389032,0.8850232700083325
1658790030388763,1.3733119707026162,-5.279621576256886,0.213626306553806
1658790030404760,1.4343480582895154,-5.401693751430457,0.09155413138023505
1658790030420756,2.04470893415737,-5.096513313496644,0.09155413138023505
1658790030436752,0.5798428320745188,-4.9134050507361735,-0.3967345693140487
1658790030452749,-0.09155413138023505,-4.303044174868319,-0.8239871824216607
1658790030468745,1.0070954451819034,-3.814755474174035,-1.0070954451819034
1658790030484742,1.0070954451819034,-4.242008087281647,-1.739528496223329
1658790030500738,-0.5798428320745188,-4.547188525215461,-1.4953841458761872
1658790030516735,-2.04470893415737,-5.0354772259097444,-1.3122758831159445
1658790030532731,-2.5940337224383256,-4.60822461280236,-0.8850232700083325
1658790030548728,-2.410925459678083,-3.3875028610666504,-0.3967345693140487
1658790030564724,-2.532997634851654,-2.4719615472647547,-0.8239871824216607
1658790030580721,-3.936827649347606,-1.8616006713969,-0.3967345693140487
1658790030596717,-2.532997634851654,-1.6784924086366573,-0.213626306553806
1658790030612713,-0.33569848172737693,-1.9226367589837992,-0.2746623941404778
1658790030628710,1.8616006713969,-1.9226367589837992,-0.2746623941404778
1658790030644706,2.410925459678083,-2.532997634851654,-0.5798428320745188
1658790030660703,-0.7019150072480898,-2.655069810025225,0.09155413138023505
1658790030676699,-2.227817196917613,-2.227817196917613,0.8850232700083325
1658790030692696,-3.2654306858930795,-1.739528496223329,0.6408789196611906
1658790030708618,-4.303044174868319,-1.3733119707026162,0.33569848172737693
1658790030724614,-3.6316472114137923,-0.9460593575952316,0.03051804379333589
1658790030740611,-0.6408789196611906,-0.2746623941404778,0.3967345693140487
1658790030756607,1.739528496223329,-0.03051804379333589,0.7019150072480898
1658790030772604,2.8381780727854675,-0.09155413138023505,0.7019150072480898
1658790030788600,2.227817196917613,0.09155413138023505,0.33569848172737693
1658790030804597,1.0070954451819034,0.2746623941404778,0.2746623941404778
1658790030820593,-0.5798428320745188,1.0681315327688026,1.0070954451819034
1658790030836589,-1.983672846570471,1.1902037079423735,1.1291676203554744
1658790030852586,-2.4719615472647547,1.0070954451819034,1.3733119707026162
1658790030868582,-0.5188067444876197,0.5188067444876197,1.2512397955290453
1658790030884579,1.6174563210497581,0.09155413138023505,0.7629510948347615
1658790030900575,2.3498893720911838,0.03051804379333589,0.7629510948347615
1658790030916572,2.532997634851654,0.2746623941404778,0.9460593575952316
1658790030932568,2.166781109330941,0.45777065690094787,0.9460593575952316
1658790030948565,0.8850232700083325,0.5798428320745188,1.4343480582895154
1658790030964561,1.4953841458761872,0.33569848172737693,1.3122758831159445
1658790030980558,1.2512397955290453,-0.3967345693140487,1.0681315327688026
1658790030996554,1.0681315327688026,-0.5188067444876197,1.4953841458761872
1658790031012550,0.9460593575952316,-0.5798428320745188,1.5564202334630863
1658790031028442,0.09155413138023505,-0.6408789196611906,1.4953841458761872
1658790031044438,0.213626306553806,-0.33569848172737693,1.4953841458761872
1658790031060434,0.33569848172737693,-0.5798428320745188,1.2512397955290453
1658790031076430,0.8239871824216607,-0.15259021896690683,1.6784924086366573
1658790031092426,1.2512397955290453,0.15259021896690683,1.6174563210497581
1658790031108422,1.0681315327688026,0.2746623941404778,1.4343480582895154
1658790031124418,1.8616006713969,0.33569848172737693,1.4343480582895154
1658790031140414,3.2654306858930795,0.03051804379333589,1.3733119707026162
1658790031156410,3.0212863355459376,-1.1902037079423735,0.7629510948347615
1658790031172406,2.04470893415737,-2.3498893720911838,0.213626306553806
1658790031188402,2.532997634851654,-2.8381780727854675,0.03051804379333589
1658790031204398,3.5095750362402214,-2.04470893415737,0.3967345693140487
1658790031220394,3.6316472114137923,-1.2512397955290453,0.33569848172737693
1658790031236390,2.8381780727854675,-1.1902037079423735,0.15259021896690683
1658790031252386,1.5564202334630863,-1.4343480582895154,0.5188067444876197
1658790031268382,0.2746623941404778,-2.105745021744042,0.7629510948347615
1658790031284378,-0.213626306553806,-2.655069810025225,0.7629510948347615
1658790031300374,-0.8239871824216607,-2.7161058976118966,0.5188067444876197
1658790031316370,-0.5798428320745188,-2.8992141603723667,-0.09155413138023505
1658790031332366,-1.8005645838102282,-2.7771419851987957,0.09155413138023505
1658790031348297,-2.04470893415737,-2.410925459678083,0.33569848172737693
1658790031364292,-1.2512397955290453,-2.166781109330941,0.5188067444876197
1658790031380288,-0.3967345693140487,-1.6784924086366573,0.5798428320745188
1658790031396283,0.213626306553806,-1.5564202334630863,0.213626306553806
1658790031412279,-0.8239871824216607,-0.9460593575952316,0.8850232700083325
1658790031428274,-1.8005645838102282,-0.45777065690094787,1.0681315327688026
1658790031444270,-2.7161058976118966,-0.213626306553806,0.3967345693140487
1658790031460265,-1.3733119707026162,0.03051804379333589,0.2746623941404778
1658790031476261,0.15259021896690683,-0.03051804379333589,0.2746623941404778
1658790031492256,1.0681315327688026,-0.45777065690094787,0.7629510948347615
1658790031508252,1.2512397955290453,-0.3967345693140487,1.4953841458761872
1658790031524247,0.7629510948347615,-0.03051804379333589,2.04470893415737
1658790031540243,-0.45777065690094787,0.5188067444876197,2.04470893415737
1658790031556238,-1.2512397955290453,0.8850232700083325,1.8005645838102282
1658790031572234,-0.8850232700083325,0.8850232700083325,1.6174563210497581
1658790031588229,0.2746623941404778,0.5188067444876197,2.166781109330941
1658790031604225,1.8616006713969,-0.09155413138023505,1.739528496223329
1658790031620220,2.9602502479590385,-0.2746623941404778,1.739528496223329
1658790031636216,2.166781109330941,0.09155413138023505,1.4953841458761872
1658790031652211,0.45777065690094787,0.3967345693140487,1.1902037079423735
1658790031668090,-1.0070954451819034,0.7629510948347615,1.739528496223329
1658790031684085,-1.1291676203554744,0.5188067444876197,1.9226367589837992
1658790031700080,-0.213626306553806,0.213626306553806,1.8616006713969
1658790031716076,1.5564202334630863,0.03051804379333589,1.8005645838102282
1658790031732071,1.739528496223329,-0.45777065690094787,0.9460593575952316
1658790031748066,0.7629510948347615,-0.8239871824216607,1.0070954451819034
1658790031764061,-0.5188067444876197,-1.0681315327688026,1.0070954451819034
1658790031780056,-1.1902037079423735,-1.0681315327688026,1.0070954451819034
1658790031796051,-0.7629510948347615,-1.0070954451819034,0.7629510948347615
1658790031812046,0.213626306553806,-1.4953841458761872,0.5188067444876197
1658790031828041,0.7019150072480898,-1.8616006713969,0.45777065690094787
1658790031844036,1.8616006713969,-2.105745021744042,0.5798428320745188
1658790031860031,1.983672846570471,-1.9226367589837992,0.5798428320745188
1658790031876026,1.2512397955290453,-2.04470893415737,0.03051804379333589
1658790031892021,-0.2746623941404778,-2.410925459678083,-0.213626306553806
1658790031908016,-2.410925459678083,-2.5940337224383256,-0.15259021896690683
1658790031924011,-3.0212863355459376,-2.4719615472647547,0.09155413138023505
1658790031940006,-3.0823224231326094,-1.983672846570471,0.45777065690094787
1658790031956001,-1.2512397955290453,-0.9460593575952316,0.7019150072480898
1658790031971996,0.9460593575952316,-0.45777065690094787,0.5188067444876197
1658790031987945,2.105745021744042,-0.5188067444876197,0.3967345693140487
1658790032003940,2.105745021744042,-0.7629510948347615,0.7019150072480898
1658790032019935,1.9226367589837992,-0.8239871824216607,1.1291676203554744
1658790032035930,1.4343480582895154,-0.5798428320745188,1.1902037079423735
1658790032051925,0.33569848172737693,-0.7629510948347615,0.8850232700083325
1658790032067920,-0.7019150072480898,-1.4953841458761872,0.2746623941404778
1658790032083915,-1.6174563210497581,-1.8616006713969,0.45777065690094787
1658790032099910,-1.0681315327688026,-1.983672846570471,0.9460593575952316
1658790032115905,0.213626306553806,-1.6784924086366573,1.3733119707026162
1658790032131900,0.15259021896690683,-1.3733119707026162,1.4953841458761872
1658790032147895,0.5798428320745188,-0.5188067444876197,1.6174563210497581
1658790032163890,1.8616006713969,-0.03051804379333589,1.6784924086366573
1658790032179885,3.0823224231326094,0.03051804379333589,1.5564202334630863
1658790032195881,2.166781109330941,-0.6408789196611906,1.5564202334630863
1658790032211876,-0.3967345693140487,-1.2512397955290453,1.1902037079423735
1658790032227871,-1.4343480582895154,-0.9460593575952316,1.6174563210497581
1658790032243866,-1.739528496223329,-0.5798428320745188,1.4953841458761872
1658790032259861,-1.1291676203554744,-0.213626306553806,1.4343480582895154
1658790032275856,0.15259021896690683,-0.45777065690094787,1.4343480582895154
1658790032291851,0.8239871824216607,-1.0070954451819034,1.5564202334630863
1658790032307769,1.1902037079423735,-1.4343480582895154,1.6784924086366573
1658790032323764,0.7629510948347615,-1.6174563210497581,1.5564202334630863
1658790032339758,-0.03051804379333589,-0.9460593575952316,1.4343480582895154
1658790032355753,-0.09155413138023505,-0.5188067444876197,1.3122758831159445
1658790032371748,-0.5188067444876197,-0.7629510948347615,1.4953841458761872
1658790032387742,0.03051804379333589,-1.4343480582895154,1.3733119707026162
1658790032403737,1.739528496223329,-2.04470893415737,1.2512397955290453
1658790032419731,1.5564202334630863,-2.3498893720911838,0.7629510948347615
1658790032435726,0.213626306553806,-1.6784924086366573,0.6408789196611906
1658790032451720,-1.0070954451819034,-1.1902037079423735,0.09155413138023505
1658790032467715,-1.3122758831159445,-1.1291676203554744,0.09155413138023505
1658790032483709,-1.0070954451819034,-1.3122758831159445,0.2746623941404778
1658790032499704,-1.1291676203554744,-1.1902037079423735,0.3967345693140487
1658790032515699,-0.33569848172737693,-0.15259021896690683,1.0070954451819034
1658790032531693,0.5798428320745188,0.213626306553806,1.3122758831159445
1658790032547688,1.0070954451819034,-0.09155413138023505,1.4343480582895154
1658790032563682,1.6174563210497581,-0.6408789196611906,1.0070954451819034
1658790032579677,0.213626306553806,-0.5798428320745188,0.9460593575952316
1658790032595671,-1.0070954451819034,-0.2746623941404778,0.7629510948347615
1658790032611666,-0.9460593575952316,0.03051804379333589,0.8239871824216607
1658790032627624,-0.15259021896690683,0.15259021896690683,1.4953841458761872
1658790032643619,1.0681315327688026,-0.09155413138023505,1.6174563210497581
1658790032659613,0.33569848172737693,-0.3967345693140487,1.4953841458761872
1658790032675608,0.5188067444876197,-0.5798428320745188,1.5564202334630863
1658790032691602,1.1291676203554744,-0.45777065690094787,1.4343480582895154
1658790032707597,0.2746623941404778,-0.213626306553806,1.1291676203554744
1658790032723591,-0.33569848172737693,-0.213626306553806,0.5798428320745188
1658790032739586,-1.3733119707026162,-0.3967345693140487,0.33569848172737693
1658790032755581,-0.6408789196611906,-0.6408789196611906,0.8239871824216607
1658790032771575,0.8239871824216607,-0.8239871824216607,0.8850232700083325
1658790032787570,1.8616006713969,-0.7019150072480898,1.0070954451819034
1658790032803564,2.288853284504512,-0.2746623941404778,1.0070954451819034
1658790032819559,1.5564202334630863,-0.5188067444876197,0.9460593575952316
1658790032835553,0.8850232700083325,-1.1291676203554744,0.7629510948347615
1658790032851548,0.8850232700083325,-1.8005645838102282,0.8239871824216607
1658790032867542,-0.03051804379333589,-2.4719615472647547,0.5188067444876197
1658790032883537,-2.166781109330941,-2.7161058976118966,0.3967345693140487
1658790032899531,-3.3264667734797513,-2.3498893720911838,0.5798428320745188
1658790032915526,-2.532997634851654,-1.9226367589837992,0.7019150072480898
1658790032931521,0.45777065690094787,-1.5564202334630863,0.7629510948347615
1658790032947418,1.3122758831159445,-1.1291676203554744,0.7019150072480898
1658790032963412,1.8616006713969,-0.7019150072480898,0.3967345693140487
1658790032979406,1.3122758831159445,-0.5798428320745188,0.09155413138023505
1658790032995400,0.5798428320745188,-0.5188067444876197,0.5188067444876197
1658790033011394,-0.09155413138023505,-0.8239871824216607,0.8239871824216607
1658790033027388,-2.105745021744042,-1.0070954451819034,0.7019150072480898
1658790033043382,-1.8005645838102282,-0.8239871824216607,0.6408789196611906
1658790033059376,-1.0070954451819034,-0.8850232700083325,0.33569848172737693
1658790033075370,0.09155413138023505,-0.8850232700083325,0.9460593575952316
1658790033091364,-0.15259021896690683,-0.8850232700083325,1.4953841458761872
1658790033107359,-0.3967345693140487,-0.8850232700083325,1.1902037079423735
1658790033123353,-1.1902037079423735,-0.7629510948347615,0.9460593575952316
1658790033139347,-1.1291676203554744,-1.1291676203554744,0.5798428320745188
1658790033155341,-1.2512397955290453,-1.2512397955290453,0.2746623941404778
1658790033171335,-0.09155413138023505,-1.3733119707026162,0.6408789196611906
1658790033187329,-0.5188067444876197,-1.6174563210497581,0.8239871824216607
1658790033203323,-0.09155413138023505,-1.4343480582895154,0.7629510948347615
1658790033219317,0.09155413138023505,-1.2512397955290453,0.8850232700083325
1658790033235311,0.15259021896690683,-1.3733119707026162,1.1291676203554744
1658790033251305,0.2746623941404778,-1.8005645838102282,0.8850232700083325
1658790033267242,0.8239871824216607,-1.8005645838102282,0.8239871824216607
1658790033283236,-0.15259021896690683,-1.8005645838102282,1.0681315327688026
1658790033299230,-1.6784924086366573,-1.8005645838102282,0.6408789196611906
1658790033315224,-3.2654306858930795,-1.5564202334630863,0.9460593575952316
1658790033331218,-3.3264667734797513,-1.5564202334630863,0.9460593575952316
1658790033347212,-2.227817196917613,-1.6784924086366573,0.8850232700083325
1658790033363206,-0.03051804379333589,-1.0681315327688026,1.0070954451819034
1658790033379201,1.6784924086366573,-0.8850232700083325,1.0070954451819034
1658790033395195,1.2512397955290453,-1.3122758831159445,0.5188067444876197
1658790033411189,0.33569848172737693,-1.6174563210497581,0.8850232700083325
1658790033427183,-0.09155413138023505,-1.6174563210497581,0.8850232700083325
1658790033443177,-1.2512397955290453,-1.1902037079423735,1.1902037079423735
1658790033459171,-2.8381780727854675,-1.0681315327688026,1.0681315327688026
1658790033475165,-2.3498893720911838,-1.1902037079423735,0.9460593575952316
1658790033491159,-0.5188067444876197,-1.4343480582895154,1.1902037079423735
1658790033507153,0.8850232700083325,-1.983672846570471,1.0681315327688026
1658790033523147,0.5188067444876197,-2.410925459678083,0.8239871824216607
1658790033539141,-0.09155413138023505,-2.105745021744042,0.8850232700083325
1658790033555135,0.213626306553806,-1.4953841458761872,1.1291676203554744
1658790033571129,1.3733119707026162,-1.1291676203554744,0.7629510948347615
1658790033587097,1.1291676203554744,-1.8616006713969,0.213626306553806
1658790033603091,-1.3122758831159445,-3.5095750362402214,-0.33569848172737693
1658790033619085,-1.3122758831159445,-3.997863736934505,-0.09155413138023505
1658790033635079,-1.0070954451819034,-4.058899824521177,0.03051804379333589
1658790033651073,-3.6316472114137923,-3.814755474174035,-0.15259021896690683
1658790033667067,-5.279621576256886,-3.6316472114137923,-0.3967345693140487
1658790033683061,-5.0354772259097444,-3.875791561760934,-0.2746623941404778
1658790033699055,-2.166781109330941,-4.303044174868319,0.03051804379333589
1658790033715049,0.8239871824216607,-4.60822461280236,0.2746623941404778
1658790033731043,1.6784924086366573,-4.9134050507361735,-0.03051804379333589
1658790033747038,-0.15259021896690683,-5.401693751430457,-0.2746623941404778
1658790033763032,-1.3733119707026162,-5.828946364538069,-0.213626306553806
1658790033779026,-0.7019150072480898,-6.500343327992596,-0.6408789196611906
1658790033795020,-1.0070954451819034,-7.904173342488775,-1.5564202334630863
1658790033811014,-3.2654306858930795,-9.430075532158298,-2.3498893720911838
1658790033827008,-4.852368963149502,-9.979400320439481,-2.4719615472647547
1658790033843002,-3.875791561760934,-9.918364232852582,-2.4719615472647547
1658790033858996,-1.0681315327688026,-9.85732814526591,-2.288853284504512
1658790033874990,0.45777065690094787,-10.955977721828049,-2.532997634851654
1658790033890984,0.8850232700083325,-11.871519035629717,-3.0212863355459376
1658790033906921,2.8992141603723667,-12.664988174258042,-3.2654306858930795
1658790033922915,2.166781109330941,-13.092240787365427,-2.8992141603723667
1658790033938908,0.8239871824216607,-13.275349050125897,-3.0823224231326094
1658790033954902,-0.33569848172737693,-13.58052948805971,-3.1433585107195086
1658790033970895,-0.03051804379333589,-14.740215152208748,-3.5095750362402214
1658790033986889,1.4953841458761872,-16.2050812542916,-3.936827649347606
1658790034002883,2.227817196917613,-17.853055619134693,-4.791332875562603
1658790034018876,2.105745021744042,-19.073777370870403,-4.974441138323073
1658790034034870,1.4953841458761872,-19.684138246738257,-5.76791027695117
1658790034050863,1.2512397955290453,-19.562066071564686,-5.95101853971164
1658790034066857,1.3733119707026162,-20.05035477225897,-6.073090714885211
1658790034082851,3.2043945983061803,-20.965896086060866,-5.828946364538069
1658790034098844,3.936827649347606,-22.308690012970146,-5.523765926604028
1658790034114838,2.410925459678083,-23.224231326771815,-5.401693751430457
1658790034130831,0.9460593575952316,-23.285267414358714,-4.852368963149502
1658790034146825,-0.3967345693140487,-23.651483939879427,-4.119935912108076
1658790034162819,-2.7161058976118966,-24.872205691615136,-3.936827649347606
1658790034178812,-2.288853284504512,-26.58121614404513,-3.936827649347606
1658790034194806,-1.4953841458761872,-27.61882963302037,-4.42511635004189
1658790034210799,-0.5188067444876197,-28.778515297169406,-4.852368963149502
1658790034226745,-2.3498893720911838,-30.4875257495994,-5.889982452124741
1658790034242739,-2.9602502479590385,-31.586175326161765,-6.927595941100208
1658790034258732,-1.983672846570471,-32.01342793926915,-7.11070420386045
1658790034274726,-3.6316472114137923,-33.478294041352,-8.209353780422589
1658790034290720,-5.584802014190927,-35.00419623102175,-9.002822919050914
1658790034306713,-5.706874189364498,-35.98077363241032,-9.491111619745197
1658790034322707,-3.6316472114137923,-35.98077363241032,-9.55214770733187
1658790034338700,-0.3967345693140487,-36.530098420691274,-9.308003356984727
1658790034354694,1.8616006713969,-37.50667582207984,-8.941786831464015
1658790034370688,4.242008087281647,-38.36118104829484,-9.369039444571627
1658790034386681,4.852368963149502,-38.1170366979477,-8.45349813076973
1658790034402675,3.5095750362402214,-38.78843366140245,-8.148317692835917
1658790034418668,-2.532997634851654,-39.58190280003055,-8.6366063935302
1658790034434662,-2.5940337224383256,-40.00915541313816,-9.063859006637585
1658790034450656,0.8239871824216607,-40.13122758831173,-8.51453421835663
1658790034466649,1.6174563210497581,-42.32852674143601,-9.67421988250544
1658790034482643,-1.4343480582895154,-45.01411459525457,-11.01701380941472
1658790034498636,-2.8992141603723667,-45.990691996643136,-10.650797283894008
1658790034514630,-0.5188067444876197,-46.29587243457695,-10.589761196307336
1658790034530624,-1.0681315327688026,-46.72312504768456,-11.566338597695903
1658790034546600,-2.655069810025225,-48.126955062180514,-13.58052948805971
1658790034562594,-3.0212863355459376,-49.22560463874265,-13.885709925993751
1658790034578587,0.8239871824216607,-50.01907377737098,-13.64156557564661
1658790034594581,6.439307240405924,-51.30083161669336,-14.679179064621849
1658790034610574,9.185931181811156,-52.216372930495254,-15.716792553597315
1658790034626568,5.3406576638437855,-53.07087815671025,-16.510261692225413
1658790034642562,0.7019150072480898,-53.43709468223096,-17.54787518120088
1658790034658555,0.2746623941404778,-52.94880598153668,-17.730983443961122
1658790034674549,0.15259021896690683,-53.31502250705739,-17.730983443961122
1658790034690542,-0.5798428320745188,-54.16952773327239,-17.42580300602731
1658790034706536,-1.0070954451819034,-54.596780346379774,-17.60891126878755
1658790034722530,1.8005645838102282,-53.681239032578105,-16.937514305333025
1658790034738523,7.2938124666209205,-52.3994811932555,-15.533684290836845
1658790034754517,7.049668116273779,-52.216372930495254,-14.862287327382319
1658790034770510,6.561379415579495,-51.97222858014811,-14.557106889448278
1658790034786504,6.8665598535133086,-50.812542915999074,-14.618142977035177
1658790034802497,4.791332875562603,-49.652857251850264,-14.435034714274707
1658790034818491,3.3875028610666504,-49.95803768978408,-14.496070801861606
1658790034834485,-1.2512397955290453,-51.117723353933116,-14.92332341496899
1658790034850478,-3.997863736934505,-50.26321812771812,-15.350576028076603
1658790034866424,-3.570611123826893,-48.49317158770123,-15.411612115663274
1658790034882417,-0.3967345693140487,-47.089341573205274,-15.411612115663274
1658790034898410,1.739528496223329,-47.8217746242467,-13.824673838406852
1658790034914404,2.9602502479590385,-48.6762798504617,-14.618142977035177
1658790034930397,4.303044174868319,-47.57763027389956,-14.312962539101136
1658790034946390,6.378271152819025,-45.19722285801481,-11.20012207217519
1658790034962383,3.3264667734797513,-44.647898069733856,-9.063859006637585
1658790034978376,0.9460593575952316,-45.990691996643136,-8.026245517662346
1658790034994369,0.3967345693140487,-47.028305485618375,-8.33142595559616
1658790035010362,-3.1433585107195086,-47.028305485618375,-10.406652933546866
1658790035026355,-6.378271152819025,-45.92965590905624,-10.955977721828049
1658790035042348,-4.730296787975931,-44.342717631799815,-10.162508583199724
1658790035058342,-1.0070954451819034,-45.07515068284124,-11.688410772869474
1658790035074335,-0.33569848172737693,-46.84519722285813,-15.655756466010416
1658790035090328,3.692683299000464,-48.310063324940984,-17.42580300602731
1658790035106321,3.7537193865873633,-47.45555809872599,-15.289539940489703
1658790035122314,-0.2746623941404778,-45.807583733882666,-13.397421225299468
1658790035138307,-1.739528496223329,-43.9765011062791,-11.932555123216616
1658790035154300,0.5188067444876197,-42.02334630350197,-11.01701380941472
1658790035170293,6.683451590753066,-40.92469672693983,-9.185931181811156
1658790035186248,5.0354772259097444,-41.35194934004744,-8.697642481116873
1658790035202242,2.7771419851987957,-40.98573281452673,-8.087281605249018
1658790035218235,4.791332875562603,-39.03257801174959,-4.730296787975931
1658790035234228,5.523765926604028,-37.3235675593196,-2.8992141603723667
1658790035250221,5.3406576638437855,-38.23910887312127,-4.60822461280236
1658790035266214,-1.2512397955290453,-38.42221713588174,-4.9134050507361735
1658790035282207,-7.476920729381163,-37.750820172426984,-4.242008087281647
1658790035298200,-9.796292057679011,-37.20149538414603,-3.692683299000464
1658790035314193,-6.073090714885211,-36.10284580758389,-2.4719615472647547
1658790035330186,-1.4953841458761872,-35.67559319447628,-2.04470893415737
1658790035346180,-0.7629510948347615,-35.85870145723675,-2.655069810025225
1658790035362173,-5.157549401083315,-36.16388189517056,-3.997863736934505
1658790035378166,-0.8239871824216607,-34.3938353551539,-3.570611123826893
1658790035394159,5.157549401083315,-32.19653620202962,-0.7629510948347615
1658790035410152,6.622415503166167,-33.60036621652557,-2.288853284504512
1658790035426145,2.9602502479590385,-36.28595407034413,-3.6316472114137923
1658790035442138,-1.1902037079423735,-37.01838712138556,-3.2654306858930795
1658790035458131,-2.4719615472647547,-36.591134508278174,-3.2043945983061803
1658790035474125,-6.073090714885211,-35.85870145723675,-5.0354772259097444
1658790035490118,-13.214312962538997,-36.530098420691274,-7.782101167315204
1658790035506073,-21.637293049515392,-36.774242771038416,-11.20012207217519
1658790035522066,-20.416571297779683,-34.94316014343485,-10.650797283894008
1658790035538059,-11.07804989700162,-33.29518577859176,-9.613183794918768
1658790035554052,-1.3122758831159445,-34.271763179980326,-11.627374685282575
1658790035570045,5.584802014190927,-36.957351033798886,-14.435034714274707
1658790035586038,5.157549401083315,-38.056000610361025,-14.862287327382319
1658790035602031,3.814755474174035,-35.55352101930271,-12.726024261844714
1658790035618024,-0.03051804379333589,-32.99000534065772,-10.467689021133765
1658790035634018,-6.500343327992596,-31.525139238574866,-10.223544670786623
1658790035650011,-10.162508583199724,-30.30441748683893,-10.589761196307336
1658790035666004,-12.603952086671143,-30.36545357442583,-10.772869459067579
1658790035681997,-10.711833371480907,-30.670634012359642,-10.650797283894008
1658790035697990,-0.8239871824216607,-29.816128786144645,-9.124895094224485
1658790035713983,7.721065079728305,-28.656443121995835,-7.232776379034021
1658790035729976,6.378271152819025,-29.38887617303726,-8.026245517662346
1658790035745969,-0.7019150072480898,-29.51094834821083,-9.491111619745197
1658790035761963,-3.0212863355459376,-27.80193789578084,-7.2938124666209205
1658790035777956,-3.3875028610666504,-26.459143968871558,-3.3264667734797513
1658790035793949,-5.157549401083315,-28.16815442130155,-4.9134050507361735
1658790035809942,-8.697642481116873,-29.633020523384403,-7.232776379034021
1658790035825897,-9.185931181811156,-29.877164873731545,-8.209353780422589
1658790035841890,-4.730296787975931,-30.243381399252257,-8.880750743877343
1658790035857883,-3.875791561760934,-31.464103150988194,-11.871519035629717
1658790035873876,-2.532997634851654,-30.060273136491787,-12.054627298390187
1658790035889869,-0.33569848172737693,-28.717479209582507,-9.85732814526591
1658790035905862,1.2512397955290453,-28.900587472342977,-10.589761196307336
1658790035921856,-1.2512397955290453,-30.121309224078686,-11.383230334935433
1658790035937849,-6.256198977645454,-30.30441748683893,-11.139085984588291
1658790035953842,-6.439307240405924,-29.449912260623933,-8.6366063935302
1658790035969835,-3.936827649347606,-29.32784008545036,-7.232776379034021
1658790035985828,-2.410925459678083,-29.51094834821083,-7.2938124666209205
1658790036001821,-1.4343480582895154,-29.755092698557974,-8.087281605249018
1658790036017814,0.15259021896690683,-28.595407034408936,-7.232776379034021
1658790036033807,4.058899824521177,-28.16815442130155,-5.828946364538069
1658790036049800,5.889982452124741,-28.290226596475122,-5.706874189364498
1658790036065794,5.76791027695117,-29.20576791027679,-5.76791027695117
1658790036081787,3.936827649347606,-29.755092698557974,-6.683451590753066
1658790036097780,3.4485389486533222,-28.717479209582507,-7.232776379034021
1658790036113773,3.6316472114137923,-27.61882963302037,-5.76791027695117
1658790036129766,0.15259021896690683,-28.473334859235365,-6.012054627298312
1658790036145721,-3.997863736934505,-29.022659647516548,-7.660028992141633
1658790036161714,-6.561379415579495,-27.313649195086555,-7.11070420386045
1658790036177706,-4.547188525215461,-24.872205691615136,-3.814755474174035
1658790036193699,-2.7161058976118966,-24.505989166094423,-1.983672846570471
1658790036209692,-1.6784924086366573,-26.764324406805372,-2.3498893720911838
1658790036225684,-2.8381780727854675,-28.839551384756078,-3.7537193865873633
1658790036241677,-3.875791561760934,-27.252613107499656,-2.288853284504512
1658790036257670,-2.3498893720911838,-24.689097428854666,-0.8850232700083325
1658790036273662,1.8616006713969,-22.308690012970146,0.8850232700083325
1658790036289655,4.486152437628789,-21.57625696192872,1.2512397955290453
1658790036305647,5.462729839017356,-23.163195239185143,-0.7019150072480898
1658790036321640,4.9134050507361735,-25.116350041962278,-1.4953841458761872
1658790036337633,3.3875028610666504,-25.29945830472252,-0.7629510948347615
1658790036353625,4.974441138323073,-24.13977264057371,0.2746623941404778
1658790036369618,5.3406576638437855,-22.73594262607753,1.0070954451819034
1658790036385611,2.04470893415737,-22.79697871366443,0.5188067444876197
1658790036401603,-2.8381780727854675,-23.529411764705856,-0.7019150072480898
1658790036417596,-6.378271152819025,-24.200808728160382,-1.5564202334630863
1658790036433589,-7.049668116273779,-23.590447852292527,-2.166781109330941
1658790036449581,-3.936827649347606,-21.759365224688963,-0.3967345693140487
1658790036465545,-0.5798428320745188,-20.294499122606112,1.8616006713969
1658790036481538,2.3498893720911838,-19.9893186846723,1.6174563210497581
1658790036497531,3.997863736934505,-19.745174334325156,0.6408789196611906
1658790036513523,4.730296787975931,-19.623102159151586,1.8005645838102282
1658790036529516,6.683451590753066,-18.524452582589447,3.936827649347606
1658790036545508,7.965209430075447,-17.730983443961122,5.3406576638437855
1658790036561501,7.660028992141633,-17.79201953154802,5.0354772259097444
1658790036577494,6.378271152819025,-17.303730830853738,5.3406576638437855
1658790036593486,2.8381780727854675,-18.158236057068734,3.7537193865873633
1658790036609479,-1.5564202334630863,-20.05035477225897,1.1902037079423735
1658790036625472,-6.927595941100208,-19.867246509498727,-0.7629510948347615
1658790036641464,-11.01701380941472,-17.059586480506596,-0.8239871824216607
1658790036657457,-17.48683909361398,-13.76363775082018,-1.6784924086366573
1658790036673450,-21.45418478675515,-10.589761196307336,-2.288853284504512
1658790036689442,-21.637293049515392,-8.148317692835917,-2.5940337224383256
1658790036705435,-18.463416495002548,-6.9886320286868795,-2.8992141603723667
1658790036721428,-11.810482948043045,-5.096513313496644,-2.410925459678083
1658790036737420,-4.60822461280236,-2.532997634851654,-1.4343480582895154
1658790036753413,1.5564202334630863,1.0681315327688026,-0.3967345693140487
1658790036769405,4.303044174868319,5.0354772259097444,0.9460593575952316
1658790036785400,5.096513313496644,8.33142595559616,2.04470893415737
1658790036801393,4.60822461280236,10.345616845960194,2.655069810025225
1658790036817385,4.486152437628789,11.932555123216616,3.3875028610666504
1658790036833378,1.5564202334630863,12.787060349431613,3.3875028610666504
1658790036849371,-0.8850232700083325,13.214312962538997,3.1433585107195086
1658790036865363,-4.669260700389032,14.312962539101136,4.242008087281647
1658790036881356,-6.683451590753066,15.838864728770886,5.401693751430457
1658790036897349,-7.904173342488775,16.02197299153113,5.401693751430457
1658790036913341,-7.660028992141633,16.02197299153113,4.242008087281647
1658790036929334,-4.486152437628789,17.42580300602731,5.157549401083315
1658790036945326,0.213626306553806,19.867246509498727,6.9886320286868795
1658790036961319,4.058899824521177,21.33211261158158,7.598992904554734
1658790036977312,6.012054627298312,21.087968261234437,6.439307240405924
1658790036993304,7.782101167315204,21.14900434882111,5.76791027695117
1658790037009297,8.880750743877343,22.247653925383247,6.744487678339738
1658790037025290,7.537956816968062,24.07873655298681,7.17174029144735
1658790037041282,4.547188525215461,25.848783093003703,6.744487678339738
1658790037057275,1.9226367589837992,27.313649195086555,5.828946364538069
1658790037073268,1.8616006713969,29.20576791027679,5.76791027695117
1658790037089260,3.5095750362402214,30.121309224078686,5.523765926604028
1658790037105194,6.012054627298312,31.464103150987967,5.157549401083315
1658790037121186,8.392462043183059,33.17311360341796,5.462729839017356
1658790037137179,9.67421988250544,35.43144884412891,5.706874189364498
1658790037153172,10.101472495613052,38.42221713588151,5.76791027695117
1658790037169164,9.613183794918768,40.375371938658645,5.096513313496644
1658790037185157,6.8665598535133086,41.35194934004721,4.42511635004189
1658790037201150,2.288853284504512,42.26749065384888,4.974441138323073
1658790037217142,1.0681315327688026,45.01411459525434,5.645838101777599
1658790037233135,0.03051804379333589,46.17380025940315,5.95101853971164
1658790037249127,-0.45777065690094787,46.967269398031476,5.401693751430457
1658790037265120,-2.288853284504512,48.24902723735386,5.645838101777599
1658790037281113,-7.049668116273779,48.31006332494053,5.76791027695117
1658790037297105,-9.491111619745197,47.6997024490729,5.2185854886702145
1658790037313098,-11.993591210803288,48.73731593804814,7.782101167315204
1658790037329091,-11.322194247348762,50.32425421530479,11.139085984588291
1658790037345083,-8.148317692835917,50.08010986495765,11.688410772869474
1658790037361076,-4.486152437628789,48.06591897459339,10.406652933546866
1658790037377069,0.2746623941404778,47.27244983596529,10.955977721828049
1658790037393061,4.058899824521177,47.08934157320505,11.993591210803288
1658790037409054,6.195162890058782,47.57763027389933,12.603952086671143
1658790037425018,7.904173342488775,47.82177462424647,12.359807736324
1658790037441011,5.95101853971164,46.967269398031476,11.871519035629717
1658790037457003,4.974441138323073,46.17380025940315,12.603952086671143
1658790037472996,7.232776379034021,45.380331120775054,12.848096437018285
1658790037488989,6.744487678339738,43.67132066834506,12.970168612191856
1658790037504981,1.4953841458761872,41.7792019531546,13.336385137712568
1658790037520974,0.8239871824216607,41.596093690394355,15.594720378423744
1658790037536966,4.669260700389032,41.04676890211317,16.815442130159454
1658790037552959,4.058899824521177,38.727397573815324,14.557106889448278
1658790037568952,1.1902037079423735,36.346990157930804,12.481879911497572
1658790037584944,2.227817196917613,36.163881895170334,13.946746013580423
1658790037600937,4.791332875562603,35.43144884412891,13.946746013580423
1658790037616930,6.683451590753066,34.63797970550081,11.505302510109004
1658790037632922,5.3406576638437855,33.722438391698915,8.941786831464015
1658790037648915,2.4719615472647547,33.600366216525344,7.782101167315204
1658790037664908,2.9602502479590385,34.39383535515367,9.67421988250544
1658790037680900,6.073090714885211,33.96658274204606,10.833905546654478
1658790037696893,7.232776379034021,32.562752727550105,9.67421988250544
1658790037712885,1.6784924086366573,30.670634012359642,8.51453421835663
1658790037728878,-3.1433585107195086,30.73167009994654,8.819714656290444
1658790037744842,-3.3264667734797513,32.01342793926892,10.711833371480907
1658790037760834,-1.4953841458761872,32.86793316548392,11.07804989700162
1658790037776826,-0.5798428320745188,31.403067063401068,9.430075532158298
1658790037792819,-1.0681315327688026,30.60959792477297,9.796292057679011
1658790037808811,2.8992141603723667,30.914778362706784,12.176699473563758
1658790037824803,2.7161058976118966,30.36545357442583,11.688410772869474
1658790037840795,0.8850232700083325,29.022659647516548,10.467689021133765
1658790037856787,0.6408789196611906,28.04608224612798,10.833905546654478
1658790037872779,2.227817196917613,27.191577019912984,11.505302510109004
1658790037888772,0.33569848172737693,26.7032883192187,10.650797283894008
1658790037904764,-2.7161058976118966,26.947432669565842,10.711833371480907
1658790037920756,-4.486152437628789,26.39810788128466,10.650797283894008
1658790037936748,-3.692683299000464,25.29945830472252,10.040436408026153
1658790037952740,0.7019150072480898,24.383916990920852,9.308003356984727
1658790037968732,3.4485389486533222,23.83459220263967,8.6366063935302
1658790037984725,0.2746623941404778,23.468375677118956,7.598992904554734
1658790038000717,-0.7019150072480898,24.872205691615136,8.941786831464015
1658790038016709,0.03051804379333589,25.60463874265656,9.491111619745197
1658790038032701,0.7629510948347615,24.689097428854666,8.270389868009488
1658790038048693,0.09155413138023505,23.102159151598244,6.805523765926637
1658790038064697,-0.15259021896690683,22.919050888838,6.8665598535133086
1658790038080689,-0.2746623941404778,24.200808728160382,8.026245517662346
1658790038096681,0.7629510948347615,25.23842221713585,7.782101167315204
1658790038112673,-0.7019150072480898,25.23842221713585,7.11070420386045
1658790038128666,-3.692683299000464,25.29945830472252,7.660028992141633
1658790038144658,-3.3875028610666504,25.42153047989609,8.941786831464015
1658790038160650,0.09155413138023505,25.726710917830133,9.85732814526591
1658790038176642,2.7161058976118966,24.994277866788707,9.246967269398056
1658790038192634,-1.8616006713969,23.346303501945386,7.537956816968062
1658790038208626,-5.0354772259097444,23.651483939879427,7.4158846417944915
1658790038224619,-4.60822461280236,24.505989166094423,9.063859006637585
1658790038240611,-2.410925459678083,24.628061341267994,9.491111619745197
1658790038256603,0.5188067444876197,23.041123064011572,7.660028992141633
1658790038272595,-0.6408789196611906,21.27107652399468,6.012054627298312
1658790038288587,-2.166781109330941,21.14900434882111,4.9134050507361735
1658790038304579,-2.3498893720911838,23.041123064011572,5.889982452124741
1658790038320572,0.09155413138023505,23.83459220263967,6.927595941100208
1658790038336564,4.547188525215461,23.285267414358714,5.523765926604028
1658790038352556,5.889982452124741,21.759365224688963,5.157549401083315
1658790038368548,4.730296787975931,21.45418478675515,5.828946364538069
1658790038384491,2.7771419851987957,22.308690012970146,6.622415503166167
1658790038400483,1.3122758831159445,22.980086976424673,6.561379415579495
1658790038416475,0.8239871824216607,22.125581750209676,5.889982452124741
1658790038432467,-1.4343480582895154,20.904859998473967,5.462729839017356
1658790038448459,-4.364080262455218,21.087968261234437,5.95101853971164
1658790038464451,-2.3498893720911838,22.186617837796575,7.17174029144735
1658790038480444,1.6174563210497581,22.79697871366443,7.476920729381163
1658790038496436,4.364080262455218,22.430762188143717,6.134126802471883
1658790038512428,6.256198977645454,21.69832913710229,6.012054627298312
1658790038528420,4.547188525215461,21.39314869916825,6.439307240405924
1658790038544412,2.105745021744042,21.210040436408008,6.622415503166167
1658790038560404,0.15259021896690683,21.881437399862534,7.11070420386045
1658790038576397,-0.213626306553806,21.759365224688963,6.683451590753066
1658790038592389,0.3967345693140487,21.087968261234437,6.622415503166167
1658790038608381,-1.1902037079423735,19.9282825970854,5.76791027695117
1658790038624373,-2.4719615472647547,20.599679560540153,5.157549401083315
1658790038640365,0.5798428320745188,22.49179827573039,6.195162890058782
1658790038656357,3.692683299000464,22.73594262607753,5.889982452124741
1658790038672350,3.692683299000464,21.39314869916825,4.547188525215461
1658790038688342,2.7771419851987957,21.14900434882111,4.486152437628789
1658790038704315,2.105745021744042,22.125581750209676,5.889982452124741
1658790038720307,1.739528496223329,22.61387045090396,6.9886320286868795
1658790038736299,0.33569848172737693,22.308690012970146,6.9886320286868795
1658790038752291,-1.6174563210497581,21.57625696192872,6.622415503166167
1658790038768283,-2.166781109330941,21.637293049515392,7.537956816968062
1658790038784276,-0.213626306553806,22.49179827573039,9.430075532158298
1658790038800268,-0.09155413138023505,21.759365224688963,8.33142595559616
1658790038816260,-0.33569848172737693,21.087968261234437,7.049668116273779
1658790038832252,-1.1902037079423735,20.782787823300396,7.232776379034021
1658790038848244,-2.3498893720911838,21.27107652399468,8.392462043183059
1658790038864236,-1.1902037079423735,21.820401312275862,9.063859006637585
1658790038880229,1.4343480582895154,22.61387045090396,9.308003356984727
1658790038896221,4.547188525215461,22.064545662623004,7.965209430075447
1658790038912213,1.9226367589837992,20.965896086060866,7.049668116273779
1658790038928205,2.166781109330941,21.087968261234437,7.782101167315204
1658790038944197,3.2043945983061803,21.881437399862534,8.6366063935302
1658790038960189,2.227817196917613,22.61387045090396,8.51453421835663
1658790038976182,0.2746623941404778,22.67490653849086,8.758678568703772
1658790038992174,0.213626306553806,23.102159151598244,9.67421988250544
1658790039008166,2.655069810025225,22.552834363317288,9.369039444571627
1658790039024170,5.95101853971164,22.003509575036105,8.758678568703772
1658790039040162,5.584802014190927,21.026932173647538,7.904173342488775
1658790039056154,4.058899824521177,21.27107652399468,8.270389868009488
1658790039072146,5.76791027695117,21.45418478675515,9.308003356984727
1658790039088138,3.997863736934505,21.69832913710229,8.758678568703772
1658790039104130,0.7019150072480898,21.210040436408008,7.660028992141633
1658790039120123,-2.8381780727854675,21.39314869916825,8.392462043183059
1658790039136115,-1.6784924086366573,21.57625696192872,9.491111619745197
1658790039152107,1.3733119707026162,20.965896086060866,9.246967269398056
1658790039168099,6.317235065232353,19.9893186846723,8.392462043183059
1658790039184091,5.157549401083315,18.89066910811016,6.805523765926637
1658790039200083,3.4485389486533222,18.82963302052326,6.805523765926637
1658790039216076,4.42511635004189,19.562066071564686,7.17174029144735
1658790039232068,6.195162890058782,19.745174334325156,6.378271152819025
1658790039248060,5.157549401083315,18.341344319828977,4.730296787975931
1658790039264052,1.8616006713969,17.303730830853738,3.997863736934505
1658790039280044,-0.15259021896690683,16.998550392919697,4.364080262455218
1658790039296036,-1.5564202334630863,17.181658655680167,4.60822461280236
1658790039312029,-2.7161058976118966,17.120622568093268,4.119935912108076
1658790039328021,-3.2043945983061803,17.54787518120088,3.3875028610666504
1658790039343994,-1.983672846570471,18.036163881895163,4.058899824521177
1658790039359986,3.0212863355459376,18.524452582589447,4.791332875562603
1658790039375978,7.11070420386045,18.70756084534969,4.730296787975931
1658790039391970,8.392462043183059,18.82963302052326,4.303044174868319
1658790039407962,3.692683299000464,19.073777370870403,4.486152437628789
1658790039423955,-0.2746623941404778,19.867246509498727,5.828946364538069
1658790039439947,-2.288853284504512,19.562066071564686,6.805523765926637
1658790039455939,-2.105745021744042,18.646524757763018,6.317235065232353
1658790039471931,-2.9602502479590385,17.79201953154802,5.95101853971164
1658790039487923,-5.0354772259097444,17.24269474326684,6.378271152819025
1658790039503915,-5.3406576638437855,17.54787518120088,6.500343327992596
1658790039519908,-4.364080262455218,18.646524757763018,5.76791027695117
1658790039535900,-1.9226367589837992,19.1348134584573,5.096513313496644
1658790039551892,-1.6784924086366573,18.76859693293659,5.401693751430457
1658790039567884,0.09155413138023505,18.219272144655406,6.012054627298312
1658790039583876,4.60822461280236,18.341344319828977,6.9886320286868795
1658790039599868,8.45349813076973,17.914091706721592,6.927595941100208
1658790039615861,8.45349813076973,17.181658655680167,6.073090714885211
1658790039631853,4.547188525215461,16.26611734187827,5.157549401083315
1658790039647845,1.1902037079423735,16.754406042572555,5.096513313496644
1658790039663787,-0.7629510948347615,18.036163881895163,5.584802014190927
1658790039679780,-0.8850232700083325,18.219272144655406,4.852368963149502
1658790039695772,-0.45777065690094787,17.730983443961122,4.60822461280236
1658790039711764,-1.3733119707026162,17.42580300602731,5.096513313496644
1658790039727756,-1.3733119707026162,18.402380407415876,6.378271152819025
1658790039743748,-0.8239871824216607,19.9893186846723,7.965209430075447
1658790039759740,0.7019150072480898,20.660715648126825,8.392462043183059
1658790039775733,0.9460593575952316,20.17242694743254,8.209353780422589
1658790039791725,0.6408789196611906,19.439993896391115,8.148317692835917
1658790039807717,2.227817196917613,19.195849546043974,9.063859006637585
1658790039823709,3.875791561760934,18.76859693293659,9.491111619745197
1658790039839701,3.3264667734797513,17.730983443961122,8.575570305943302
1658790039855693,0.213626306553806,17.303730830853738,8.392462043183059
1658790039871686,-2.655069810025225,17.24269474326684,8.6366063935302
1658790039887678,-3.875791561760934,17.24269474326684,8.575570305943302
1658790039903670,-1.1291676203554744,17.120622568093268,7.965209430075447
1658790039919662,0.8239871824216607,16.388189517051842,7.476920729381163
1658790039935654,1.8005645838102282,15.472648203250174,7.782101167315204
1658790039951646,4.42511635004189,14.862287327382319,8.45349813076973
1658790039967639,4.974441138323073,14.92332341496899,8.33142595559616
1658790039983642,2.8992141603723667,14.740215152208748,7.4158846417944915
1658790039999634,-2.7771419851987957,13.885709925993751,6.561379415579495
1658790040015627,-4.42511635004189,14.129854276340893,7.598992904554734
1658790040031619,-1.4953841458761872,14.312962539101136,8.697642481116873
1658790040047611,-0.5188067444876197,14.373998626688035,7.965209430075447
1658790040063603,-0.2746623941404778,14.129854276340893,6.561379415579495
1658790040079595,-1.8005645838102282,13.702601663233281,6.195162890058782
1658790040095587,-1.983672846570471,13.58052948805971,6.317235065232353
1658790040111580,-3.1433585107195086,13.702601663233281,6.012054627298312
1658790040127572,-3.875791561760934,14.129854276340893,5.828946364538069
1658790040143564,-6.622415503166167,14.496070801861606,5.889982452124741
1658790040159556,-6.134126802471883,14.80125123979542,6.927595941100208
1658790040175548,-2.532997634851654,15.472648203250174,7.843137254901876
1658790040191540,0.8850232700083325,15.594720378423744,7.965209430075447
1658790040207533,0.7019150072480898,14.496070801861606,7.2938124666209205
1658790040223525,0.213626306553806,13.214312962538997,7.354848554207592
1658790040239517,-0.213626306553806,12.4208438239109,8.026245517662346
1658790040255509,-1.8616006713969,12.23773556115043,7.4158846417944915
1658790040271501,-6.439307240405924,10.955977721828049,6.622415503166167
1658790040287493,-8.941786831464015,8.270389868009488,6.500343327992596
1658790040303466,-6.500343327992596,4.303044174868319,6.500343327992596
1658790040319459,-2.04470893415737,1.739528496223329,6.378271152819025
1658790040335451,1.6784924086366573,0.15259021896690683,5.828946364538069
1658790040351443,3.0212863355459376,-2.288853284504512,5.0354772259097444
1658790040367435,4.180971999694748,-6.744487678339738,3.0212863355459376
1658790040383427,4.364080262455218,-11.505302510109004,1.1902037079423735
1658790040399419,2.9602502479590385,-15.594720378423744,-1.0070954451819034
1658790040415412,-1.3122758831159445,-18.70756084534969,-3.6316472114137923
1658790040431404,-6.622415503166167,-22.247653925383247,-6.256198977645454
1658790040447396,-9.67421988250544,-25.909819180590375,-9.063859006637585
1658790040463388,-9.430075532158298,-28.656443121995835,-11.139085984588291
1658790040479380,-7.2938124666209205,-31.036850537880355,-12.848096437018285
1658790040495372,-4.486152437628789,-33.478294041352,-14.129854276340893
1658790040511365,-0.9460593575952316,-35.309376668955565,-14.98435950255589
1658790040527357,3.1433585107195086,-35.79766536964985,-14.92332341496899
1658790040543349,4.852368963149502,-36.774242771038416,-15.10643167772946
1658790040559341,0.7019150072480898,-38.54428931105531,-16.632333867398984
1658790040575333,-5.0354772259097444,-40.558480201419115,-16.998550392919697
1658790040591325,-5.889982452124741,-41.71816586556815,-17.181658655680167
1658790040607318,-3.7537193865873633,-42.75577935454339,-16.44922560463874
1658790040623291,0.5188067444876197,-43.85442893110553,-16.02197299153113
1658790040639283,4.180971999694748,-45.19722285801481,-16.26611734187827
1658790040655275,6.622415503166167,-46.11276417181671,-15.960936903944457
1658790040671267,6.9886320286868795,-46.9672693980317,-15.899900816357558
1658790040687259,4.364080262455218,-48.06591897459384,-16.2050812542916
1658790040703251,-0.3967345693140487,-48.554207675288126,-17.181658655680167
1658790040719244,-4.60822461280236,-48.92042420080884,-17.853055619134693
1658790040735236,-7.11070420386045,-49.34767681391622,-18.036163881895163
1658790040751228,-5.645838101777599,-50.38529030289169,-18.402380407415876
1658790040767220,-0.7019150072480898,-50.812542915999074,-18.036163881895163
1658790040783212,4.42511635004189,-51.36186770428026,-17.730983443961122
1658790040799204,6.744487678339738,-51.72808422980097,-17.914091706721592
1658790040815197,6.744487678339738,-51.78912031738764,-16.632333867398984
1658790040831189,4.486152437628789,-52.460517280842396,-16.693369954985883
1658790040847181,0.7019150072480898,-53.13191424429692,-17.059586480506596
1658790040863173,-3.4485389486533222,-53.19295033188382,-17.48683909361398
1658790040879165,-9.85732814526591,-53.25398641947049,-17.853055619134693
1658790040895157,-11.20012207217519,-53.07087815671025,-17.914091706721592
1658790040911150,-7.049668116273779,-53.07087815671025,-16.510261692225413
1658790040927142,0.5188067444876197,-53.620202944991206,-15.838864728770886
1658790040943115,4.669260700389032,-54.04745555809882,-16.388189517051842
1658790040959107,3.1433585107195086,-54.29159990844596,-16.571297779812312
1658790040975098,-0.7629510948347615,-52.64362554360264,-15.655756466010416
1658790040991090,-1.1902037079423735,-50.14114595254455,-13.702601663233281
1658790041007082,-0.33569848172737693,-50.14114595254455,-12.970168612191856
1658790041023073,-2.166781109330941,-51.78912031738764,-14.496070801861606
1658790041039065,-4.730296787975931,-52.460517280842396,-14.557106889448278
1658790041055057,-3.6316472114137923,-51.42290379186693,-13.336385137712568
1658790041071048,-4.180971999694748,-50.32425421530479,-13.519493400473038
1658790041087040,-3.3264667734797513,-48.73731593804837,-13.64156557564661
1658790041103032,-1.3733119707026162,-49.16456855115598,-13.45845731288614
1658790041119023,-3.692683299000464,-50.7515068284124,-14.92332341496899
1658790041135015,-6.195162890058782,-50.6904707408255,-15.472648203250174
1658790041151007,-2.166781109330941,-48.06591897459384,-12.909132524605184
1658790041166998,1.6174563210497581,-46.60105287251099,-11.383230334935433
1658790041182990,0.33569848172737693,-47.51659418631266,-13.275349050125897
1658790041198982,-4.242008087281647,-48.371099412527656,-14.557106889448278
1658790041214974,-6.622415503166167,-47.333485923552416,-12.664988174258042
1658790041230965,-5.096513313496644,-44.70893415732053,-9.063859006637585
1658790041246957,-4.547188525215461,-43.305104142824575,-7.476920729381163
1658790041262970,-5.0354772259097444,-42.51163500419625,-6.683451590753066
1658790041278961,-1.1902037079423735,-41.962310215915295,-6.256198977645454
1658790041294953,-1.4343480582895154,-42.20645456626244,-6.134126802471883
1658790041310945,-3.570611123826893,-42.69474326695672,-6.8665598535133086
1658790041326936,-5.0354772259097444,-41.962310215915295,-6.622415503166167
1658790041342928,-3.2043945983061803,-40.497444113832444,-6.012054627298312
1658790041358920,-1.0681315327688026,-40.1922636758984,-7.232776379034021
1658790041374911,-2.8381780727854675,-41.41298542763411,-10.345616845960194
1658790041390903,-7.354848554207592,-42.32852674143601,-12.481879911497572
1658790041406895,-9.308003356984727,-40.92469672693983,-12.481879911497572
1658790041422886,-8.6366063935302,-38.72739757381555,-11.444266422522333
1658790041438878,-3.7537193865873633,-36.652170595864845,-9.85732814526591
1658790041454870,0.5798428320745188,-37.20149538414603,-10.406652933546866
1658790041470862,-0.8850232700083325,-38.42221713588174,-10.589761196307336
1658790041486853,-3.4485389486533222,-38.30014496070817,-9.55214770733187
1658790041502845,-1.6174563210497581,-35.187304493781994,-6.500343327992596
1658790041518837,3.0212863355459376,-32.6848249027239,-3.4485389486533222
1658790041534828,1.0070954451819034,-32.867933165484146,-4.303044174868319
1658790041550820,-1.2512397955290453,-32.806897077897474,-4.60822461280236
1658790041566812,-0.8850232700083325,-32.25757228961629,-3.936827649347606
1658790041582794,0.6408789196611906,-32.19653620202962,-3.570611123826893
1658790041598786,4.60822461280236,-31.89135576409558,-2.04470893415737
1658790041614777,5.645838101777599,-32.31860837720319,-1.8616006713969
1658790041630769,2.532997634851654,-33.29518577859176,-4.547188525215461
1658790041646761,-3.997863736934505,-33.66140230411247,-7.11070420386045
1658790041662752,-7.17174029144735,-32.928969253071045,-6.134126802471883
1658790041678744,-5.584802014190927,-33.17311360341819,-5.584802014190927
1658790041694736,-4.42511635004189,-34.57694361791414,-6.927595941100208
1658790041710727,-2.166781109330941,-34.3938353551539,-7.721065079728305
1658790041726719,-1.0681315327688026,-34.45487144274057,-9.063859006637585
1658790041742711,0.5798428320745188,-34.51590753032747,-9.73525597009234
1658790041758702,2.105745021744042,-34.51590753032747,-9.430075532158298
1658790041774694,0.3967345693140487,-35.370412756542464,-9.73525597009234
1658790041790686,-3.0823224231326094,-35.00419623102175,-10.162508583199724
1658790041806677,-5.95101853971164,-33.60036621652557,-10.528725108720437
1658790041822669,-3.875791561760934,-32.6848249027239,-10.589761196307336
1658790041838661,0.33569848172737693,-33.72243839169914,-10.833905546654478
1658790041854653,-0.3967345693140487,-35.187304493781994,-12.603952086671143
1658790041870644,-1.8616006713969,-35.614557106889606,-12.787060349431613
1658790041886636,-3.5095750362402214,-32.37964446478986,-8.758678568703772
1658790041902618,-3.936827649347606,-29.20576791027679,-5.889982452124741
1658790041918610,-2.655069810025225,-27.435721370260126,-3.997863736934505
1658790041934601,0.8239871824216607,-28.595407034408936,-3.570611123826893
1658790041950593,-2.3498893720911838,-33.23414969100486,-7.476920729381163
1658790041966585,-8.697642481116873,-35.73662928206318,-9.67421988250544
1658790041982576,-10.650797283894008,-33.29518577859176,-8.270389868009488
1658790041998568,-9.73525597009234,-29.449912260623933,-5.584802014190927
1658790042014560,-8.45349813076973,-28.04608224612798,-6.439307240405924
1658790042030552,-4.669260700389032,-29.51094834821083,-9.613183794918768
1658790042046543,-2.105745021744042,-31.403067063401295,-12.298771648737329
1658790042062535,-0.9460593575952316,-31.525139238574866,-11.139085984588291
1658790042078527,2.288853284504512,-28.290226596475122,-6.805523765926637
1658790042094518,6.378271152819025,-25.848783093003703,-3.0212863355459376
1658790042110510,4.669260700389032,-26.82536049439227,-4.180971999694748
1658790042126502,-1.6174563210497581,-30.4264896620125,-8.148317692835917
1658790042142493,-7.2938124666209205,-30.975814450293683,-7.660028992141633
1658790042158485,-7.721065079728305,-28.412298771648693,-4.364080262455218
1658790042174477,-5.401693751430457,-27.069504844739413,-4.119935912108076
1658790042190468,-3.2654306858930795,-27.008468757152514,-5.462729839017356
1658790042206460,-0.03051804379333589,-27.74090180819394,-7.782101167315204
1658790042222473,1.1291676203554744,-27.86297398336751,-7.721065079728305
1658790042238464,4.058899824521177,-26.092927443350845,-6.439307240405924
1658790042254456,5.706874189364498,-24.567025253681095,-4.486152437628789
1658790042270448,5.2185854886702145,-24.444953078507524,-4.364080262455218
1658790042286440,2.532997634851654,-25.48256656748299,-5.828946364538069
1658790042302431,-1.3122758831159445,-24.811169604028237,-4.9134050507361735
1658790042318423,-2.227817196917613,-23.468375677118956,-2.8992141603723667
1658790042334415,-4.547188525215461,-23.163195239185143,-3.2654306858930795
1658790042350406,-9.979400320439481,-22.064545662623004,-3.997863736934505
1658790042366398,-11.20012207217519,-20.965896086060866,-4.852368963149502
1658790042382390,-8.148317692835917,-19.9282825970854,-3.4485389486533222
1658790042398381,-4.242008087281647,-20.660715648126825,-3.692683299000464
1658790042414373,-1.739528496223329,-20.599679560540153,-4.180971999694748
1658790042430365,1.5564202334630863,-19.439993896391115,-2.9602502479590385
1658790042446356,6.073090714885211,-18.036163881895163,-1.6174563210497581
1658790042462348,6.805523765926637,-18.158236057068734,-3.875791561760934
1658790042478340,3.997863736934505,-19.501029983978015,-6.500343327992596
1658790042494331,0.3967345693140487,-19.684138246738257,-5.95101853971164
1658790042510323,-3.7537193865873633,-20.538643472953254,-5.645838101777599
1658790042526315,-7.2938124666209205,-20.782787823300396,-6.317235065232353
1658790042542266,-8.758678568703772,-19.01274128328373,-4.547188525215461
1658790042558258,-7.782101167315204,-18.036163881895163,-4.364080262455218
1658790042574250,-6.317235065232353,-18.097199969481835,-5.401693751430457
1658790042590242,-6.073090714885211,-18.341344319828977,-7.049668116273779
1658790042606233,-3.814755474174035,-18.280308232242305,-7.4158846417944915
1658790042622225,0.33569848172737693,-17.730983443961122,-5.706874189364498
1658790042638217,2.105745021744042,-17.66994735637445,-5.401693751430457
1658790042654208,0.5188067444876197,-17.730983443961122,-6.439307240405924
1658790042670200,-1.3733119707026162,-16.754406042572555,-5.889982452124741
1658790042686192,-2.105745021744042,-15.289539940489703,-4.364080262455218
1658790042702183,-0.2746623941404778,-14.98435950255589,-3.2654306858930795
1658790042718175,2.288853284504512,-16.26611734187827,-2.655069810025225
1658790042734167,3.2043945983061803,-18.036163881895163,-3.3875028610666504
1658790042750158,3.0212863355459376,-19.073777370870403,-3.1433585107195086
1658790042766150,1.0070954451819034,-19.378957808804444,-3.0212863355459376
1658790042782142,0.5798428320745188,-19.256885633630873,-2.7771419851987957
1658790042798133,-0.33569848172737693,-19.439993896391115,-2.7161058976118966
1658790042814125,-1.3122758831159445,-20.782787823300396,-4.364080262455218
1658790042830117,-2.288853284504512,-21.57625696192872,-6.8665598535133086
1658790042846109,-5.95101853971164,-22.49179827573039,-7.782101167315204
1658790042862091,-8.392462043183059,-20.965896086060866,-6.9886320286868795
1658790042878082,-8.575570305943302,-18.58548867017612,-5.95101853971164
1658790042894074,-7.17174029144735,-17.303730830853738,-5.0354772259097444
1658790042910066,-4.180971999694748,-16.693369954985883,-5.401693751430457
1658790042926057,0.3967345693140487,-15.960936903944457,-6.134126802471883
1658790042942049,2.655069810025225,-17.303730830853738,-7.476920729381163
1658790042958041,4.547188525215461,-16.998550392919697,-8.575570305943302
1658790042974033,2.7161058976118966,-15.045395590142562,-7.11070420386045
1658790042990024,-1.9226367589837992,-11.627374685282575,-5.706874189364498
1658790043006016,-5.889982452124741,-7.721065079728305,-4.42511635004189
1658790043022008,-6.744487678339738,-3.3875028610666504,-3.4485389486533222
1658790043037999,-6.927595941100208,-2.532997634851654,-3.997863736934505
1658790043053991,-5.889982452124741,-1.983672846570471,-3.875791561760934
1658790043069983,-2.7161058976118966,0.03051804379333589,-2.5940337224383256
1658790043085974,-1.4953841458761872,2.5940337224383256,-0.7629510948347615
1658790043101966,-4.364080262455218,5.95101853971164,1.6174563210497581
1658790043117958,-5.3406576638437855,9.185931181811156,3.0212863355459376
1658790043133949,-5.401693751430457,10.467689021133765,2.410925459678083
1658790043149941,-4.852368963149502,11.07804989700162,2.532997634851654
1658790043165933,-3.1433585107195086,12.298771648737329,3.692683299000464
1658790043181915,-1.4343480582895154,14.496070801861606,4.730296787975931
1658790043197907,-1.8616006713969,16.571297779812312,4.669260700389032
1658790043213898,-4.180971999694748,18.463416495002548,5.157549401083315
1658790043229890,-4.058899824521177,19.01274128328373,6.256198977645454
1658790043245882,-2.8992141603723667,19.745174334325156,7.17174029144735
1658790043261873,-1.0681315327688026,20.965896086060866,7.721065079728305
1658790043277865,-0.5188067444876197,22.430762188143717,7.721065079728305
1658790043293857,-0.213626306553806,23.468375677118956,7.049668116273779
1658790043309848,-0.7019150072480898,23.83459220263967,6.439307240405924
1658790043325840,-0.9460593575952316,24.07873655298681,6.256198977645454
1658790043341832,-1.8616006713969,24.383916990920852,6.927595941100208
1658790043357823,-1.3733119707026162,26.031891355763946,8.45349813076973
1658790043373815,0.15259021896690683,27.557793545433697,9.55214770733187
1658790043389807,2.7771419851987957,28.839551384756078,9.979400320439481
1658790043405799,4.730296787975931,29.20576791027679,8.758678568703772
1658790043421790,6.195162890058782,29.694056610971074,8.45349813076973
1658790043437782,5.157549401083315,30.853742275120112,10.406652933546866
1658790043453774,5.2185854886702145,32.31860837720296,11.871519035629717
1658790043469765,2.655069810025225,33.96658274204606,11.932555123216616
1658790043485757,0.7019150072480898,34.63797970550081,10.955977721828049
1658790043501770,-2.3498893720911838,35.61455710688938,11.688410772869474
1658790043517761,-0.3967345693140487,37.01838712138533,13.76363775082018
1658790043533753,2.105745021744042,37.811856260013656,15.10643167772946
1658790043549745,2.4719615472647547,37.26253147173247,14.435034714274707
1658790043565736,3.4485389486533222,37.628747997253186,14.068818188753994
1658790043581728,4.119935912108076,38.66636148622865,15.594720378423744
1658790043597720,4.547188525215461,39.27672236209651,16.44922560463874
1658790043613711,0.5188067444876197,39.27672236209651,15.533684290836845
1658790043629703,-1.5564202334630863,38.727397573815324,14.373998626688035
1658790043645695,-3.6316472114137923,39.58190280003032,15.777828641183987
1658790043661687,-4.180971999694748,38.60532539864175,15.472648203250174
1658790043677678,-6.256198977645454,37.9949645227739,12.970168612191856
1658790043693670,-3.875791561760934,37.628747997253186,12.298771648737329
1658790043709662,0.45777065690094787,37.32356755931937,13.76363775082018
1658790043725653,4.42511635004189,36.89631494621176,13.58052948805971
1658790043741645,3.7537193865873633,36.591134508277946,11.749446860456146
1658790043757637,4.119935912108076,37.26253147173247,10.223544670786623
1658790043773628,3.4485389486533222,38.30014496070794,10.89494163424115
1658790043789620,2.9602502479590385,38.11703669794747,11.627374685282575
1658790043805612,1.4953841458761872,37.628747997253186,11.383230334935433
1658790043821563,-0.5798428320745188,37.32356755931937,12.603952086671143
1658790043837555,0.8239871824216607,37.32356755931937,15.10643167772946
1658790043853547,3.2043945983061803,36.10284580758366,14.862287327382319
1658790043869538,4.852368963149502,35.49248493171581,13.45845731288614
1658790043885530,5.401693751430457,35.37041275654224,12.359807736324
1658790043901522,1.1902037079423735,35.18730449378177,11.444266422522333
1658790043917513,-3.0823224231326094,35.73662928206295,11.749446860456146
1658790043933505,-2.410925459678083,37.75082017242676,13.946746013580423
1658790043949497,3.692683299000464,37.384603646906044,14.496070801861606
1658790043965489,4.852368963149502,35.98077363241009,13.58052948805971
1658790043981480,2.5940337224383256,34.2107270923932,12.054627298390187
1658790043997472,1.3733119707026162,34.2717631799801,13.45845731288614
1658790044013464,1.3733119707026162,35.55352101930248,15.533684290836845
1658790044029455,0.8239871824216607,35.91973754482319,15.167467765316132
1658790044045447,-5.157549401083315,34.821087968261054,14.007782101167322
1658790044061439,-4.730296787975931,34.57694361791391,15.960936903944457
1658790044077430,2.105745021744042,35.065232318608196,18.89066910811016
1658790044093422,9.002822919050914,34.33279926756677,19.073777370870403
1658790044109414,11.07804989700162,32.19653620202939,17.181658655680167
1658790044125405,4.852368963149502,29.633020523384403,14.190890363927565
1658790044141388,1.0681315327688026,28.900587472342977,13.45845731288614
1658790044157379,0.03051804379333589,29.694056610971074,14.312962539101136
1658790044173371,-0.2746623941404778,29.08369573510322,12.664988174258042
1658790044189363,-1.983672846570471,27.374685282673227,10.406652933546866
1658790044205354,-2.7161058976118966,26.947432669565842,11.566338597695903
1658790044221346,0.45777065690094787,27.557793545433697,13.64156557564661
1658790044237338,1.0070954451819034,27.008468757152514,13.031204699778755
1658790044253329,0.6408789196611906,26.764324406805372,12.726024261844714
1658790044269321,0.45777065690094787,27.557793545433697,13.45845731288614
1658790044285313,1.5564202334630863,28.04608224612798,14.435034714274707
1658790044301304,2.8992141603723667,27.80193789578084,13.275349050125897
1658790044317296,4.42511635004189,27.191577019912984,11.566338597695903
1658790044333288,2.9602502479590385,27.313649195086555,12.298771648737329
1658790044349280,1.5564202334630863,26.764324406805372,12.664988174258042
1658790044365271,-1.739528496223329,26.276035706111088,11.07804989700162
1658790044381263,-4.180971999694748,26.39810788128466,10.162508583199724
1658790044397255,-3.936827649347606,26.52018005645823,9.063859006637585
1658790044413246,-2.410925459678083,26.52018005645823,8.697642481116873
1658790044429238,-3.5095750362402214,26.39810788128466,8.33142595559616
1658790044445230,-1.4953841458761872,27.496757457846797,8.392462043183059
1658790044461242,-0.5798428320745188,28.656443121995835,9.979400320439481
1658790044477234,2.166781109330941,29.877164873731545,10.89494163424115
1658790044493226,2.532997634851654,30.4875257495994,11.688410772869474
1658790044509217,1.5564202334630863,30.121309224078686,11.07804989700162
1658790044525209,0.213626306553806,30.182345311665358,11.444266422522333
1658790044541201,3.3875028610666504,30.73167009994654,13.153276874952326
1658790044557192,4.60822461280236,30.975814450293683,13.092240787365427
1658790044573184,2.410925459678083,30.670634012359642,11.444266422522333
1658790044589176,-1.2512397955290453,30.73167009994654,11.20012207217519
1658790044605167,-1.6784924086366573,30.792706187533213,12.298771648737329
1658790044621159,0.45777065690094787,30.060273136491787,12.176699473563758
1658790044637151,0.213626306553806,28.107118333714652,10.650797283894008
1658790044653143,-1.0681315327688026,27.435721370260126,9.918364232852582
1658790044669134,-0.8239871824216607,28.656443121995835,11.07804989700162
1658790044685126,0.33569848172737693,29.14473182269012,11.505302510109004
1658790044701118,1.2512397955290453,28.229190508888223,10.406652933546866
1658790044717109,3.3875028610666504,27.313649195086555,9.613183794918768
1658790044733101,2.288853284504512,27.313649195086555,10.223544670786623
1658790044749093,1.8616006713969,28.107118333714652,11.627374685282575
1658790044765084,2.227817196917613,28.656443121995835,12.787060349431613
1658790044781067,2.532997634851654,28.290226596475122,11.688410772869474
1658790044797058,1.3122758831159445,28.04608224612798,11.444266422522333
1658790044813050,-0.2746623941404778,28.473334859235365,12.359807736324
1658790044829042,2.166781109330941,28.473334859235365,13.76363775082018
1658790044845033,5.706874189364498,27.74090180819394,13.092240787365427
1658790044861025,8.6366063935302,26.947432669565842,11.749446860456146
1658790044877017,5.828946364538069,26.764324406805372,11.20012207217519
1658790044893008,3.6316472114137923,27.679865720607268,12.970168612191856
1658790044909000,2.9602502479590385,27.130540932326085,13.702601663233281
1658790044924992,3.692683299000464,25.60463874265656,12.481879911497572
1658790044940983,0.213626306553806,23.89562829022657,11.20012207217519
1658790044956975,-3.6316472114137923,24.383916990920852,12.054627298390187
1658790044972967,-4.42511635004189,24.933241779201808,13.45845731288614
1658790044988958,-2.8992141603723667,24.750133516441565,12.664988174258042
1658790045004950,0.8850232700083325,23.95666437781324,10.89494163424115
1658790045020942,1.5564202334630863,22.308690012970146,10.040436408026153
1658790045036934,2.04470893415737,22.247653925383247,10.284580758373295
1658790045052925,4.730296787975931,23.285267414358714,11.383230334935433
1658790045068917,5.584802014190927,23.590447852292527,11.383230334935433
1658790045084909,2.4719615472647547,22.49179827573039,9.491111619745197
1658790045100860,-3.0212863355459376,22.430762188143717,10.162508583199724
1658790045116852,-3.814755474174035,22.552834363317288,11.322194247348762
1658790045132844,-1.3733119707026162,22.369726100556818,11.139085984588291
1658790045148835,3.692683299000464,22.064545662623004,10.345616845960194
1658790045164827,3.6316472114137923,20.782787823300396,8.819714656290444
1658790045180819,0.09155413138023505,20.23346303501944,7.782101167315204
1658790045196810,-0.6408789196611906,20.782787823300396,8.758678568703772
1658790045212802,-0.09155413138023505,21.087968261234437,8.392462043183059
1658790045228794,-1.0070954451819034,20.660715648126825,6.805523765926637
1658790045244785,-4.9134050507361735,20.599679560540153,6.134126802471883
1658790045260777,-6.805523765926637,21.51522087434182,8.087281605249018
1658790045276769,-3.4485389486533222,22.125581750209676,10.406652933546866
1658790045292760,1.4953841458761872,22.369726100556818,11.20012207217519
1658790045308752,3.4485389486533222,22.49179827573039,11.932555123216616
1658790045324744,-0.8239871824216607,22.125581750209676,12.726024261844714
1658790045340736,-1.8005645838102282,22.369726100556818,13.702601663233281
1658790045356727,-1.3122758831159445,22.186617837796575,14.251926451514464
1658790045372719,0.213626306553806,21.14900434882111,13.153276874952326
1658790045388711,-1.1291676203554744,20.294499122606112,12.23773556115043
1658790045404702,-4.180971999694748,19.80621042191183,11.261158159761862
1658790045420715,-2.7161058976118966,19.562066071564686,11.139085984588291
1658790045436707,2.227817196917613,19.378957808804444,10.345616845960194
1658790045452698,5.706874189364498,19.073777370870403,9.369039444571627
1658790045468690,3.936827649347606,19.317921721217544,9.73525597009234
1658790045484682,1.8005645838102282,19.867246509498727,10.589761196307336
1658790045500673,1.1291676203554744,19.1348134584573,11.383230334935433
1658790045516665,1.5564202334630863,18.341344319828977,11.261158159761862
1658790045532657,-0.15259021896690683,17.60891126878755,10.589761196307336
1658790045548648,-5.096513313496644,17.975127794308264,9.979400320439481
1658790045564640,-7.11070420386045,19.439993896391115,10.345616845960194
1658790045580632,-4.730296787975931,20.477607385366582,10.650797283894008
1658790045596624,0.09155413138023505,20.904859998473967,10.467689021133765
1658790045612615,4.60822461280236,20.843823910887295,10.528725108720437
1658790045628607,6.683451590753066,21.57625696192872,12.176699473563758
1658790045644599,8.270389868009488,22.430762188143717,12.787060349431613
1658790045660590,7.11070420386045,23.529411764705856,13.275349050125897
1658790045676582,6.378271152819025,24.505989166094423,14.92332341496899
1658790045692574,3.7537193865873633,24.01770046540014,15.594720378423744
1658790045708565,1.739528496223329,22.308690012970146,15.045395590142562
1658790045724557,-1.3122758831159445,20.35553521019301,13.824673838406852
1658790045740539,-2.8992141603723667,19.256885633630873,12.542915999084471
1658790045756531,-4.42511635004189,19.317921721217544,11.261158159761862
1658790045772523,-4.669260700389032,19.745174334325156,10.650797283894008
1658790045788514,-1.3733119707026162,19.623102159151586,10.162508583199724
1658790045804506,2.166781109330941,18.82963302052326,9.124895094224485
1658790045820498,5.0354772259097444,18.158236057068734,8.880750743877343
1658790045836489,4.242008087281647,17.36476691844041,9.613183794918768
1658790045852481,1.1902037079423735,16.632333867398984,10.284580758373295
1658790045868473,-0.2746623941404778,16.388189517051842,10.101472495613052
1658790045884464,0.2746623941404778,16.2050812542916,8.941786831464015
1658790045900456,0.5798428320745188,14.862287327382319,7.17174029144735
1658790045916448,1.9226367589837992,13.397421225299468,5.279621576256886
1658790045932439,3.2654306858930795,13.58052948805971,4.486152437628789
1658790045948431,5.2185854886702145,15.533684290836845,4.42511635004189
1658790045964423,3.0823224231326094,17.181658655680167,4.669260700389032
1658790045980414,3.875791561760934,18.76859693293659,5.889982452124741
1658790045996406,5.3406576638437855,18.82963302052326,7.11070420386045
1658790046012398,5.889982452124741,17.730983443961122,7.660028992141633
1658790046028390,3.1433585107195086,18.036163881895163,8.45349813076973
1658790046044381,0.5188067444876197,18.95170519569683,9.491111619745197
1658790046060363,-3.3264667734797513,19.378957808804444,9.67421988250544
1658790046076355,-2.5940337224383256,18.82963302052326,9.246967269398056
1658790046092347,-0.3967345693140487,17.181658655680167,9.063859006637585
1658790046108338,3.0212863355459376,16.754406042572555,8.941786831464015
1658790046124330,6.927595941100208,16.32715342946517,9.308003356984727
1658790046140322,10.467689021133765,14.80125123979542,8.33142595559616
1658790046156314,12.542915999084471,12.970168612191856,7.232776379034021
1658790046172305,11.749446860456146,12.054627298390187,7.232776379034021
1658790046188297,7.354848554207592,12.176699473563758,7.4158846417944915
1658790046204289,0.6408789196611906,11.566338597695903,6.927595941100208
1658790046220280,-5.706874189364498,7.660028992141633,5.157549401083315
1658790046236272,-9.979400320439481,2.288853284504512,3.0823224231326094
1658790046252264,-9.73525597009234,-1.8616006713969,1.739528496223329
1658790046268255,-6.256198977645454,-3.7537193865873633,1.1291676203554744
1658790046284247,-1.8616006713969,-4.9134050507361735,0.213626306553806
1658790046300239,-0.03051804379333589,-6.9886320286868795,-2.105745021744042
1658790046316230,1.1902037079423735,-10.040436408026153,-3.2043945983061803
1658790046332222,0.8239871824216607,-12.23773556115043,-3.0823224231326094
1658790046348214,-1.739528496223329,-14.496070801861606,-3.692683299000464
1658790046364205,-5.76791027695117,-16.815442130159454,-4.730296787975931
1658790046380188,-9.002822919050914,-19.1348134584573,-6.500343327992596
1658790046396179,-10.223544670786623,-21.759365224688963,-8.270389868009488
1658790046412171,-10.650797283894008,-23.651483939879427,-9.55214770733187
1658790046428163,-7.17174029144735,-25.05531395437538,-10.589761196307336
1658790046444154,-5.157549401083315,-26.39810788128466,-11.993591210803288
1658790046460146,-2.4719615472647547,-27.80193789578084,-13.946746013580423
1658790046476138,-1.6784924086366573,-29.26680399786369,-15.228503852903032
1658790046492129,-2.532997634851654,-29.938200961318216,-14.92332341496899
1658790046508121,-2.8381780727854675,-30.60959792477297,-15.045395590142562
1658790046524113,-2.5940337224383256,-31.036850537880355,-15.411612115663274
1658790046540104,-2.7161058976118966,-31.89135576409558,-15.411612115663274
1658790046556096,-3.5095750362402214,-32.01342793926915,-14.557106889448278
1658790046572088,-2.9602502479590385,-32.13550011444272,-13.336385137712568
1658790046588080,-1.1902037079423735,-32.44068055237676,-13.397421225299468
1658790046604071,-2.5940337224383256,-33.41725795376533,-14.496070801861606
1658790046620063,-7.11070420386045,-35.00419623102175,-15.777828641183987
1658790046636055,-8.209353780422589,-35.79766536964985,-15.899900816357558
1658790046652046,-7.2938124666209205,-36.16388189517056,-16.32715342946517
1658790046668038,-5.645838101777599,-36.713206683451745,-17.42580300602731
1658790046684030,-2.8992141603723667,-36.652170595864845,-16.754406042572555
1658790046700012,0.5188067444876197,-37.07942320897246,-16.32715342946517
1658790046716004,3.1433585107195086,-37.50667582207984,-16.693369954985883
1658790046731995,2.8992141603723667,-37.56771190966674,-16.571297779812312
1658790046747987,0.9460593575952316,-36.34699015793103,-16.08300907911803
1658790046763979,-3.692683299000464,-36.16388189517056,-15.899900816357558
1658790046779970,-8.758678568703772,-37.44563973449317,-16.510261692225413
1658790046795962,-8.270389868009488,-38.42221713588174,-16.571297779812312
1658790046811954,-5.096513313496644,-38.23910887312127,-15.777828641183987
1658790046827945,-1.1902037079423735,-38.1170366979477,-15.838864728770886
1658790046843937,0.45777065690094787,-38.60532539864198,-16.32715342946517
1658790046859929,-0.45777065690094787,-39.03257801174959,-16.26611734187827
1658790046875920,-1.0681315327688026,-38.66636148622888,-15.960936903944457
1658790046891912,-0.15259021896690683,-37.933928435187454,-15.289539940489703
1658790046907904,-0.8850232700083325,-38.178072785534596,-15.655756466010416
1658790046923895,-3.814755474174035,-38.97154192416269,-16.44922560463874
1658790046939887,-3.2043945983061803,-39.94811932555126,-16.510261692225413
1658790046955879,1.3122758831159445,-40.314335851071974,-15.594720378423744
1658790046971871,2.9602502479590385,-41.35194934004744,-16.693369954985883
1658790046987862,-2.105745021744042,-42.02334630350197,-18.280308232242305
1658790047003854,-5.523765926604028,-41.47402151522101,-18.89066910811016
1658790047019836,-5.401693751430457,-40.558480201419115,-18.76859693293659
1658790047035828,-3.0212863355459376,-40.37537193865887,-19.073777370870403
1658790047051819,-2.8992141603723667,-41.71816586556815,-20.11139085984587
1658790047067811,0.03051804379333589,-42.26749065384911,-19.1348134584573
1658790047083803,3.4485389486533222,-42.63370717936982,-17.79201953154802
1658790047099794,5.096513313496644,-43.06095979247743,-16.876478217746126
1658790047115786,6.073090714885211,-43.61028458075839,-17.914091706721592
1658790047131778,0.5798428320745188,-44.28168154421314,-19.9282825970854
1658790047147770,-5.096513313496644,-44.09857328145267,-20.782787823300396
1658790047163761,-6.744487678339738,-44.28168154421314,-21.14900434882111
1658790047179753,-7.904173342488775,-45.44136720836195,-22.003509575036105
1658790047195745,-5.706874189364498,-45.31929503318838,-22.369726100556818
1658790047211736,0.6408789196611906,-43.79339284351886,-20.05035477225897
1658790047227728,6.805523765926637,-43.48821240558482,-18.463416495002548
1658790047243720,10.284580758373295,-44.220645456626244,-18.402380407415876
1658790047259711,9.55214770733187,-44.220645456626244,-18.524452582589447
1658790047275703,4.547188525215461,-43.36614023041125,-18.036163881895163
1658790047291695,-4.547188525215461,-41.59609369039458,-16.815442130159454
1658790047307686,-8.575570305943302,-39.82604715037769,-15.533684290836845
1658790047323678,-4.60822461280236,-39.76501106279102,-14.312962539101136
1658790047339660,-0.8850232700083325,-41.71816586556815,-16.32715342946517
1658790047355652,0.6408789196611906,-43.48821240558482,-19.01274128328373
1658790047371644,3.3875028610666504,-41.53505760280768,-17.914091706721592
1658790047387635,6.500343327992596,-39.520866712443876,-17.059586480506596
1658790047403627,4.180971999694748,-39.276722362096734,-18.402380407415876
1658790047419619,-3.2654306858930795,-38.36118104829484,-18.036163881895163
1658790047435610,-7.904173342488775,-35.492484931716035,-14.740215152208748
1658790047451602,-4.974441138323073,-32.31860837720319,-8.392462043183059
1658790047467594,-5.462729839017356,-34.57694361791414,-6.439307240405924
1658790047483585,-7.11070420386045,-37.38460364690627,-8.758678568703772
1658790047499577,-4.486152437628789,-38.54428931105531,-8.941786831464015
1658790047515569,-1.9226367589837992,-37.56771190966674,-8.697642481116873
1658790047531561,3.0212863355459376,-34.51590753032747,-8.33142595559616
1658790047547552,7.660028992141633,-32.31860837720319,-9.73525597009234
1658790047563544,5.706874189364498,-32.31860837720319,-13.031204699778755
1658790047579536,8.33142595559616,-31.036850537880355,-13.946746013580423
1658790047595527,10.467689021133765,-29.938200961318216,-11.810482948043045
1658790047611519,8.819714656290444,-30.914778362706784,-10.955977721828049
1658790047627511,3.1433585107195086,-31.464103150988194,-10.650797283894008
1658790047643502,-1.8616006713969,-29.938200961318216,-7.721065079728305
1658790047659515,-2.3498893720911838,-27.80193789578084,-4.60822461280236
1658790047675507,-0.09155413138023505,-26.764324406805372,-3.692683299000464
1658790047691498,-0.33569848172737693,-28.16815442130155,-2.8992141603723667
1658790047707490,-0.9460593575952316,-29.938200961318216,-2.105745021744042
1658790047723482,-0.15259021896690683,-30.792706187533213,-3.7537193865873633
1658790047739473,0.2746623941404778,-29.938200961318216,-4.9134050507361735
1658790047755465,1.0681315327688026,-28.351262684061794,-6.012054627298312
1658790047771457,3.692683299000464,-26.092927443350845,-4.669260700389032
1658790047787449,4.42511635004189,-27.74090180819394,-6.134126802471883
1658790047803440,2.3498893720911838,-29.877164873731545,-7.843137254901876
1658790047819432,1.9226367589837992,-30.060273136491787,-6.622415503166167
1658790047835424,-1.8616006713969,-28.717479209582507,-5.462729839017356
1658790047851415,-5.157549401083315,-27.252613107499656,-4.242008087281647
1658790047867407,-1.9226367589837992,-25.17738612954895,-1.1902037079423735
1658790047883399,4.180971999694748,-25.909819180590375,-0.5798428320745188
1658790047899390,5.889982452124741,-28.229190508888223,-0.9460593575952316
1658790047915382,4.852368963149502,-29.20576791027679,-1.4343480582895154
1658790047931374,2.105745021744042,-29.08369573510322,-3.936827649347606
1658790047947365,1.4953841458761872,-27.435721370260126,-4.180971999694748
1658790047963357,1.5564202334630863,-26.947432669565842,-5.645838101777599
1658790047979309,0.7019150072480898,-27.496757457846797,-7.660028992141633
1658790047995300,-1.3733119707026162,-28.229190508888223,-8.209353780422589
1658790048011292,-3.3264667734797513,-28.412298771648693,-6.9886320286868795
1658790048027284,0.03051804379333589,-27.80193789578084,-5.2185854886702145
1658790048043275,4.180971999694748,-28.717479209582507,-4.852368963149502
1658790048059267,3.570611123826893,-29.938200961318216,-6.8665598535133086
1658790048075259,-2.8381780727854675,-30.4264896620125,-8.941786831464015
1658790048091251,-3.875791561760934,-27.86297398336751,-8.209353780422589
1658790048107242,0.8850232700083325,-26.337071793697987,-5.95101853971164
1658790048123234,6.073090714885211,-26.82536049439227,-4.730296787975931
1658790048139226,8.33142595559616,-28.839551384756078,-7.049668116273779
1658790048155217,2.655069810025225,-31.342030975814623,-10.650797283894008
1658790048171209,-4.974441138323073,-30.121309224078686,-11.566338597695903
1658790048187201,-6.744487678339738,-26.58121614404513,-9.55214770733187
1658790048203192,-5.584802014190927,-23.89562829022657,-7.11070420386045
1658790048219184,-1.5564202334630863,-24.750133516441565,-8.209353780422589
1658790048235176,1.1291676203554744,-28.412298771648693,-11.749446860456146
1658790048251167,1.739528496223329,-29.20576791027679,-10.040436408026153
1658790048267159,5.462729839017356,-27.252613107499656,-8.45349813076973
1658790048283151,7.904173342488775,-24.444953078507524,-5.157549401083315
1658790048299133,7.476920729381163,-23.83459220263967,-4.730296787975931
1658790048315125,4.486152437628789,-26.092927443350845,-8.758678568703772
1658790048331116,-1.5564202334630863,-27.435721370260126,-11.01701380941472
1658790048347108,-6.927595941100208,-27.252613107499656,-11.505302510109004
1658790048363100,-8.575570305943302,-24.567025253681095,-9.67421988250544
1658790048379091,-8.575570305943302,-22.79697871366443,-9.369039444571627
1658790048395083,-7.049668116273779,-21.69832913710229,-10.528725108720437
1658790048411075,-3.5095750362402214,-20.23346303501944,-11.383230334935433
1658790048427066,-2.9602502479590385,-20.416571297779683,-12.664988174258042
1658790048443058,-4.058899824521177,-19.9282825970854,-11.932555123216616
1658790048459050,-0.8850232700083325,-18.097199969481835,-9.124895094224485
1658790048475041,3.692683299000464,-16.937514305333025,-6.744487678339738
1658790048491033,5.096513313496644,-17.24269474326684,-5.76791027695117
1658790048507025,3.875791561760934,-17.66994735637445,-6.134126802471883
1658790048523017,1.5564202334630863,-18.097199969481835,-6.8665598535133086
1658790048539008,2.410925459678083,-16.876478217746126,-5.523765926604028
1658790048555000,3.814755474174035,-16.754406042572555,-4.9134050507361735
1658790048570992,2.166781109330941,-18.158236057068734,-7.354848554207592
1658790048586983,-1.983672846570471,-17.54787518120088,-9.002822919050914
1658790048602975,-3.875791561760934,-16.44922560463874,-9.063859006637585
1658790048618957,-3.5095750362402214,-16.26611734187827,-9.063859006637585
1658790048634949,-2.4719615472647547,-16.44922560463874,-9.67421988250544
1658790048650941,-2.532997634851654,-16.693369954985883,-10.284580758373295
1658790048666932,-3.0212863355459376,-15.167467765316132,-8.6366063935302
1658790048682924,0.09155413138023505,-13.397421225299468,-6.500343327992596
1658790048698916,4.9134050507361735,-12.664988174258042,-5.2185854886702145
1658790048714907,8.697642481116873,-14.435034714274707,-5.2185854886702145
1658790048730899,10.406652933546866,-15.289539940489703,-3.2654306858930795
1658790048746891,6.500343327992596,-15.289539940489703,-1.3733119707026162
1658790048762882,-1.9226367589837992,-15.594720378423744,-2.532997634851654
1658790048778874,-6.317235065232353,-14.92332341496899,-2.7771419851987957
1658790048794866,-8.209353780422589,-15.289539940489703,-2.166781109330941
1658790048810857,-6.9886320286868795,-17.059586480506596,-3.4485389486533222
1658790048826849,-4.730296787975931,-18.524452582589447,-4.486152437628789
1658790048842841,-1.1902037079423735,-17.79201953154802,-3.3264667734797513
1658790048858832,4.303044174868319,-16.937514305333025,-3.2654306858930795
1658790048874824,9.55214770733187,-16.388189517051842,-3.2654306858930795
1658790048890816,11.871519035629717,-17.66994735637445,-3.2043945983061803
1658790048906808,9.796292057679011,-19.867246509498727,-4.669260700389032
1658790048922799,5.76791027695117,-20.23346303501944,-3.936827649347606
1658790048938812,0.9460593575952316,-19.317921721217544,-3.0212863355459376
1658790048954804,-2.3498893720911838,-18.402380407415876,-2.5940337224383256
1658790048970795,-3.0212863355459376,-17.975127794308264,-1.4953841458761872
1658790048986787,-1.5564202334630863,-18.76859693293659,-2.105745021744042
1658790049002779,-0.09155413138023505,-19.684138246738257,-2.5940337224383256
1658790049018770,0.9460593575952316,-20.05035477225897,-3.2043945983061803
1658790049034762,0.9460593575952316,-20.599679560540153,-4.242008087281647
1658790049050754,-2.410925459678083,-20.538643472953254,-5.828946364538069
1658790049066745,-3.1433585107195086,-18.70756084534969,-6.134126802471883
1658790049082737,-2.4719615472647547,-17.42580300602731,-6.134126802471883
1658790049098729,-3.0212863355459376,-17.79201953154802,-6.256198977645454
1658790049114720,-1.4953841458761872,-17.303730830853738,-5.523765926604028
1658790049130712,-1.0070954451819034,-16.2050812542916,-3.936827649347606
1658790049146704,1.4953841458761872,-13.58052948805971,-1.2512397955290453
1658790049162696,7.4158846417944915,-12.298771648737329,-0.2746623941404778
1658790049178687,13.214312962538997,-12.4208438239109,-0.5798428320745188
1658790049194679,17.24269474326684,-13.885709925993751,-0.2746623941404778
1658790049210671,15.594720378423744,-15.167467765316132,-0.9460593575952316
1658790049226662,8.941786831464015,-15.411612115663274,-1.3122758831159445
1658790049242654,-0.2746623941404778,-14.190890363927565,-1.3122758831159445
1658790049258606,-10.345616845960194,-11.932555123216616,-0.8850232700083325
1658790049274597,-18.036163881895163,-9.430075532158298,-0.7629510948347615
1658790049290589,-21.51522087434182,-6.622415503166167,-0.33569848172737693
1658790049306581,-19.9282825970854,-4.547188525215461,0.213626306553806
1658790049322572,-14.496070801861606,-1.9226367589837992,1.3122758831159445
1658790049338564,-6.683451590753066,0.09155413138023505,2.3498893720911838
1658790049354556,0.2746623941404778,1.8005645838102282,3.6316472114137923
1658790049370547,4.852368963149502,4.486152437628789,4.058899824521177
1658790049386539,6.744487678339738,7.476920729381163,3.692683299000464
1658790049402531,6.012054627298312,10.284580758373295,3.997863736934505
1658790049418522,3.3264667734797513,11.261158159761862,3.5095750362402214
1658790049434514,-0.2746623941404778,11.688410772869474,3.6316472114137923
1658790049450506,-2.655069810025225,12.4208438239109,5.096513313496644
1658790049466498,-1.3733119707026162,14.251926451514464,5.706874189364498
1658790049482489,0.8850232700083325,16.388189517051842,5.76791027695117
1658790049498481,2.5940337224383256,17.853055619134693,5.3406576638437855
1658790049514473,3.1433585107195086,19.073777370870403,5.523765926604028
1658790049530464,3.814755474174035,20.843823910887295,6.622415503166167
1658790049546456,3.2043945983061803,22.61387045090396,8.148317692835917
1658790049562448,2.5940337224383256,24.200808728160382,8.697642481116873
1658790049578430,1.6174563210497581,25.787747005416804,9.063859006637585
1658790049594421,-0.2746623941404778,27.435721370260126,9.55214770733187
1658790049610413,-1.4343480582895154,28.229190508888223,9.308003356984727
1658790049626405,-2.410925459678083,28.900587472342977,10.101472495613052
1658790049642397,-2.227817196917613,29.449912260623933,11.322194247348762
1658790049658388,-0.45777065690094787,30.73167009994654,11.749446860456146
1658790049674380,-0.213626306553806,32.19653620202939,10.955977721828049
1658790049690372,-0.03051804379333589,32.562752727550105,9.124895094224485
1658790049706363,-0.45777065690094787,32.19653620202939,9.185931181811156
1658790049722355,-1.0681315327688026,32.684824902723676,10.101472495613052
1658790049738347,-1.739528496223329,34.2107270923932,10.955977721828049
1658790049754338,-2.04470893415737,35.126268406195095,11.139085984588291
1658790049770330,-0.15259021896690683,36.10284580758366,11.566338597695903
1658790049786322,2.288853284504512,36.163881895170334,11.810482948043045
1658790049802313,4.242008087281647,35.49248493171581,10.955977721828049
1658790049818305,5.0354772259097444,35.67559319447605,10.589761196307336
1658790049834297,3.2654306858930795,36.408026245517476,9.979400320439481
1658790049850288,-0.33569848172737693,37.628747997253186,10.162508583199724
1658790049866280,-2.288853284504512,39.52086671244365,11.139085984588291
1658790049882272,-4.42511635004189,39.58190280003032,12.176699473563758
1658790049898285,-6.561379415579495,39.52086671244365,11.810482948043045
1658790049914276,-6.622415503166167,39.39879453727008,11.627374685282575
1658790049930268,-5.3406576638437855,40.070191500724604,13.519493400473038
1658790049946260,-1.8616006713969,40.9857328145265,15.045395590142562
1658790049962251,-1.4343480582895154,41.35194934004721,15.228503852903032
1658790049978243,-3.0212863355459376,41.65712977798103,14.92332341496899
1658790049994235,-2.227817196917613,40.74158846417936,14.007782101167322
1658790050010226,0.7019150072480898,39.70397497520389,14.98435950255589
1658790050026218,3.814755474174035,38.78843366140222,15.594720378423744
1658790050042210,0.7019150072480898,37.87289234760033,13.885709925993751
1658790050058201,-1.739528496223329,38.42221713588151,12.970168612191856
1658790050074193,-0.8239871824216607,37.689784084840085,12.726024261844714
1658790050090185,0.2746623941404778,35.85870145723652,12.176699473563758
1658790050106176,0.5188067444876197,34.45487144274034,11.20012207217519
1658790050122168,0.5798428320745188,34.63797970550081,12.23773556115043
1658790050138160,1.5564202334630863,33.783474479285815,13.336385137712568
1658790050154152,1.8616006713969,31.95239185168225,14.190890363927565
1658790050170143,2.4719615472647547,30.060273136491787,14.007782101167322
1658790050186135,1.6174563210497581,28.778515297169406,12.909132524605184
1658790050202127,-2.8992141603723667,26.947432669565842,11.01701380941472
1658790050218109,-8.51453421835663,26.214999618524416,9.369039444571627
1658790050234100,-10.589761196307336,26.82536049439227,9.369039444571627
1658790050250092,-6.439307240405924,27.008468757152514,10.772869459067579
1658790050266084,-0.3967345693140487,26.947432669565842,11.749446860456146
1658790050282076,2.5940337224383256,25.665674830243233,11.01701380941472
1658790050298067,3.2654306858930795,25.23842221713585,11.627374685282575
1658790050314059,2.8381780727854675,25.543602655069662,12.298771648737329
1658790050330051,2.5940337224383256,25.665674830243233,12.726024261844714
1658790050346042,1.5564202334630863,25.726710917830133,12.726024261844714
1658790050362034,-2.04470893415737,24.750133516441565,11.627374685282575
1658790050378026,-3.2654306858930795,23.7125200274661,11.688410772869474
1658790050394017,-1.4343480582895154,22.919050888838,11.505302510109004
1658790050410009,0.5188067444876197,22.552834363317288,10.467689021133765
1658790050426001,-0.03051804379333589,22.73594262607753,9.55214770733187
1658790050441992,-0.03051804379333589,23.590447852292527,11.139085984588291
1658790050457984,1.4343480582895154,23.95666437781324,12.848096437018285
1658790050473976,3.814755474174035,24.26184481574728,14.007782101167322
1658790050489967,4.9134050507361735,23.468375677118956,14.251926451514464
1658790050505959,4.974441138323073,22.49179827573039,14.679179064621849
1658790050521951,2.8992141603723667,20.35553521019301,13.275349050125897
1658790050537902,0.9460593575952316,19.9893186846723,12.298771648737329
1658790050553894,-0.2746623941404778,20.599679560540153,12.664988174258042
1658790050569886,-2.7771419851987957,21.39314869916825,12.176699473563758
1658790050585878,-2.4719615472647547,20.904859998473967,11.261158159761862
1658790050601869,-0.15259021896690683,19.623102159151586,10.772869459067579
1658790050617861,2.8381780727854675,17.914091706721592,9.85732814526591
1658790050633853,3.3875028610666504,17.60891126878755,9.73525597009234
1658790050649844,2.7161058976118966,18.89066910811016,11.322194247348762
1658790050665836,1.4343480582895154,19.195849546043974,10.711833371480907
1658790050681828,2.3498893720911838,18.82963302052326,8.6366063935302
1658790050697819,-0.33569848172737693,17.181658655680167,7.354848554207592
1658790050713811,-1.6784924086366573,17.303730830853738,7.17174029144735
1658790050729803,-0.7019150072480898,18.76859693293659,9.430075532158298
1658790050745794,-0.03051804379333589,19.867246509498727,9.85732814526591
1658790050761786,1.983672846570471,20.35553521019301,8.819714656290444
1658790050777778,1.1902037079423735,20.294499122606112,8.270389868009488
1658790050793769,1.4343480582895154,20.782787823300396,9.002822919050914
1658790050809761,3.570611123826893,21.39314869916825,10.467689021133765
1658790050825753,4.974441138323073,21.820401312275862,10.650797283894008
1658790050841745,3.2043945983061803,21.820401312275862,10.345616845960194
1658790050857757,-0.15259021896690683,21.759365224688963,10.650797283894008
1658790050873749,1.1291676203554744,21.942473487449433,11.444266422522333
1658790050889741,1.4343480582895154,21.637293049515392,10.89494163424115
1658790050905732,0.7629510948347615,21.39314869916825,8.941786831464015
1658790050921724,-2.410925459678083,22.064545662623004,8.392462043183059
1658790050937716,-2.3498893720911838,23.102159151598244,9.185931181811156
1658790050953707,0.5798428320745188,23.95666437781324,10.101472495613052
1658790050969699,3.875791561760934,24.322880903333953,9.85732814526591
1658790050985691,3.692683299000464,23.468375677118956,8.880750743877343
1658790051001682,3.814755474174035,23.163195239185143,9.979400320439481
1658790051017674,3.2654306858930795,22.61387045090396,10.528725108720437
1658790051033666,0.8239871824216607,22.49179827573039,10.650797283894008
1658790051049657,-0.6408789196611906,23.468375677118956,11.261158159761862
1658790051065649,-0.213626306553806,24.13977264057371,11.871519035629717
1658790051081641,1.3122758831159445,23.224231326771815,11.383230334935433
1658790051097633,2.410925459678083,21.14900434882111,10.650797283894008
1658790051113624,2.8381780727854675,20.294499122606112,10.528725108720437
1658790051129616,3.814755474174035,21.210040436408008,12.054627298390187
1658790051145608,3.936827649347606,22.064545662623004,12.054627298390187
1658790051161599,3.1433585107195086,22.369726100556818,10.223544670786623
1658790051177581,0.09155413138023505,22.369726100556818,8.6366063935302
1658790051193573,-0.2746623941404778,22.980086976424673,9.369039444571627
1658790051209565,1.4953841458761872,23.224231326771815,11.505302510109004
1658790051225556,3.814755474174035,23.224231326771815,12.176699473563758
1658790051241548,3.4485389486533222,23.529411764705856,12.542915999084471
1658790051257540,0.6408789196611906,24.750133516441565,13.397421225299468
1658790051273532,-0.09155413138023505,24.933241779201808,14.129854276340893
1658790051289523,1.1291676203554744,24.26184481574728,13.824673838406852
1658790051305515,4.669260700389032,23.83459220263967,14.190890363927565
1658790051321507,5.828946364538069,23.89562829022657,14.435034714274707
1658790051337498,5.401693751430457,24.383916990920852,14.557106889448278
1658790051353490,4.730296787975931,24.383916990920852,14.251926451514464
1658790051369482,2.105745021744042,23.529411764705856,13.397421225299468
1658790051385473,0.2746623941404778,23.7125200274661,14.068818188753994
1658790051401465,0.9460593575952316,24.13977264057371,15.960936903944457
1658790051417457,1.5564202334630863,23.346303501945386,15.472648203250174
1658790051433448,2.8381780727854675,22.369726100556818,13.76363775082018
1658790051449440,2.7161058976118966,22.308690012970146,12.909132524605184
1658790051465432,1.1902037079423735,22.980086976424673,13.031204699778755
1658790051481423,2.105745021744042,23.83459220263967,13.519493400473038
1658790051497406,4.242008087281647,23.83459220263967,12.970168612191856
1658790051513397,5.0354772259097444,23.224231326771815,12.481879911497572
1658790051529389,3.0212863355459376,23.468375677118956,13.336385137712568
1658790051545381,2.7161058976118966,23.773556115052997,14.007782101167322
1658790051561372,2.288853284504512,23.468375677118956,13.64156557564661
1658790051577364,1.3122758831159445,22.79697871366443,13.153276874952326
1658790051593356,-1.4343480582895154,22.61387045090396,13.76363775082018
1658790051609347,-2.5940337224383256,22.8580148012511,15.594720378423744
1658790051625339,-1.8616006713969,22.67490653849086,14.679179064621849
1658790051641331,1.2512397955290453,22.49179827573039,13.702601663233281
1658790051657323,1.4953841458761872,21.881437399862534,12.115663385976859
1658790051673314,1.1291676203554744,22.247653925383247,12.542915999084471
1658790051689306,3.3264667734797513,22.003509575036105,12.23773556115043
1658790051705298,5.76791027695117,21.637293049515392,11.688410772869474
1658790051721289,5.828946364538069,21.27107652399468,11.322194247348762
1658790051737281,0.7019150072480898,21.637293049515392,11.566338597695903
1658790051753273,-2.3498893720911838,22.369726100556818,12.542915999084471
1658790051769264,-2.227817196917613,22.003509575036105,12.481879911497572
1658790051785256,0.3967345693140487,21.14900434882111,12.4208438239109
1658790051801248,1.0681315327688026,20.965896086060866,12.726024261844714
1658790051817199,-0.15259021896690683,21.087968261234437,12.909132524605184
1658790051833191,1.3122758831159445,21.14900434882111,13.336385137712568
1658790051849183,4.547188525215461,21.57625696192872,13.214312962538997
1658790051865174,8.392462043183059,21.210040436408008,12.542915999084471
1658790051881166,6.195162890058782,19.867246509498727,10.955977721828049
1658790051897158,1.2512397955290453,18.76859693293659,9.613183794918768
1658790051913149,-1.739528496223329,19.501029983978015,10.223544670786623
1658790051929141,2.166781109330941,21.881437399862534,12.848096437018285
1658790051945133,4.852368963149502,21.57625696192872,12.542915999084471
1658790051961125,2.166781109330941,20.416571297779683,11.932555123216616
1658790051977116,1.5564202334630863,20.416571297779683,12.909132524605184
1658790051993108,3.0823224231326094,21.026932173647538,14.98435950255589
1658790052009100,5.3406576638437855,21.087968261234437,15.167467765316132
1658790052025091,8.087281605249018,20.965896086060866,14.618142977035177
1658790052041083,3.4485389486533222,19.745174334325156,13.519493400473038
1658790052057075,0.33569848172737693,19.1348134584573,12.970168612191856
1658790052073066,-0.213626306553806,19.073777370870403,12.970168612191856
1658790052089058,1.0070954451819034,18.280308232242305,12.176699473563758
1658790052105050,-0.213626306553806,17.120622568093268,11.07804989700162
1658790052121041,-2.04470893415737,16.815442130159454,10.406652933546866
1658790052137054,-0.7019150072480898,17.36476691844041,11.810482948043045
1658790052153046,3.4485389486533222,17.54787518120088,12.848096437018285
1658790052169037,5.645838101777599,16.998550392919697,12.726024261844714
1658790052185029,3.875791561760934,15.777828641183987,11.566338597695903
1658790052201021,0.09155413138023505,15.350576028076603,10.284580758373295
1658790052217013,-1.3122758831159445,15.960936903944457,10.101472495613052
1658790052233004,-0.8239871824216607,15.777828641183987,9.67421988250544
1658790052248996,1.3122758831159445,15.411612115663274,9.124895094224485
1658790052264988,1.4343480582895154,14.557106889448278,8.026245517662346
1658790052280979,1.739528496223329,14.862287327382319,7.11070420386045
1658790052296971,5.584802014190927,16.754406042572555,7.904173342488775
1658790052312963,8.697642481116873,17.42580300602731,8.026245517662346
1658790052328954,6.073090714885211,17.60891126878755,8.941786831464015
1658790052344946,-0.33569848172737693,17.79201953154802,9.55214770733187
1658790052360938,-3.814755474174035,18.70756084534969,11.871519035629717
1658790052376929,-3.875791561760934,19.1348134584573,12.970168612191856
1658790052392921,-2.7771419851987957,18.89066910811016,13.45845731288614
1658790052408913,-0.7019150072480898,18.70756084534969,14.312962539101136
1658790052424904,1.5564202334630863,18.158236057068734,14.190890363927565
1658790052440896,2.5940337224383256,17.48683909361398,12.909132524605184
1658790052456878,3.2654306858930795,17.42580300602731,11.871519035629717
1658790052472870,3.0212863355459376,17.120622568093268,11.444266422522333
1658790052488862,0.15259021896690683,15.716792553597315,10.223544670786623
1658790052504853,-1.5564202334630863,14.557106889448278,9.796292057679011
1658790052520845,-0.7629510948347615,13.519493400473038,8.758678568703772
1658790052536837,1.1902037079423735,13.336385137712568,8.51453421835663
1658790052552828,0.7629510948347615,12.23773556115043,8.209353780422589
1658790052568820,0.3967345693140487,11.01701380941472,8.148317692835917
1658790052584812,0.5188067444876197,9.369039444571627,7.354848554207592
1658790052600803,1.1291676203554744,8.6366063935302,6.561379415579495
1658790052616795,1.3122758831159445,8.45349813076973,6.500343327992596
1658790052632787,-2.166781109330941,8.392462043183059,6.378271152819025
1658790052648779,-3.0212863355459376,7.721065079728305,6.012054627298312
1658790052664770,-2.410925459678083,7.782101167315204,5.76791027695117
1658790052680762,0.9460593575952316,7.904173342488775,5.279621576256886
1658790052696754,1.1291676203554744,7.476920729381163,5.096513313496644
1658790052712745,3.3264667734797513,7.049668116273779,4.852368963149502
1658790052728737,5.645838101777599,6.9886320286868795,4.058899824521177
1658790052744729,6.195162890058782,7.4158846417944915,3.814755474174035
1658790052760720,3.1433585107195086,8.087281605249018,3.692683299000464
1658790052776703,-0.2746623941404778,8.209353780422589,4.60822461280236
1658790052792694,-2.3498893720911838,6.927595941100208,4.486152437628789
1658790052808686,-2.5940337224383256,6.134126802471883,3.875791561760934
1658790052824678,-4.364080262455218,4.9134050507361735,2.166781109330941
1658790052840669,-8.45349813076973,2.9602502479590385,0.15259021896690683
1658790052856661,-10.833905546654478,1.0681315327688026,-1.3122758831159445
1658790052872653,-12.054627298390187,-0.8850232700083325,-3.0823224231326094
1658790052888644,-13.397421225299468,-2.7771419851987957,-4.852368963149502
1658790052904636,-13.153276874952326,-4.974441138323073,-5.95101853971164
1658790052920628,-10.772869459067579,-7.2938124666209205,-6.9886320286868795
1658790052936619,-3.936827649347606,-8.270389868009488,-7.476920729381163
1658790052952611,1.2512397955290453,-10.040436408026153,-8.819714656290444
1658790052968603,2.166781109330941,-12.23773556115043,-10.650797283894008
1658790052984594,1.3122758831159445,-14.373998626688035,-12.359807736324
1658790053000586,1.3733119707026162,-15.167467765316132,-12.848096437018285
1658790053016578,0.213626306553806,-17.24269474326684,-13.824673838406852
1658790053032570,-5.584802014190927,-19.9282825970854,-15.350576028076603
1658790053048561,-9.491111619745197,-22.064545662623004,-16.26611734187827
1658790053064553,-10.223544670786623,-22.980086976424673,-16.32715342946517
1658790053080545,-6.622415503166167,-23.590447852292527,-16.2050812542916
1658790053096557,-3.997863736934505,-24.567025253681095,-16.815442130159454
1658790053112549,-1.4343480582895154,-26.092927443350845,-17.303730830853738
1658790053128541,2.105745021744042,-26.886396581978943,-17.66994735637445
1658790053144532,4.9134050507361735,-27.496757457846797,-17.48683909361398
1658790053160524,3.7537193865873633,-27.61882963302037,-17.66994735637445
1658790053176516,-0.03051804379333589,-27.92401007095441,-18.402380407415876
1658790053192507,-2.105745021744042,-28.717479209582507,-18.280308232242305
1658790053208499,-0.09155413138023505,-29.633020523384403,-18.341344319828977
1658790053224491,2.8381780727854675,-30.792706187533213,-18.646524757763018
1658790053240482,2.410925459678083,-32.31860837720319,-19.01274128328373
1658790053256474,1.3122758831159445,-32.806897077897474,-19.195849546043974
1658790053272466,1.983672846570471,-32.31860837720319,-18.70756084534969
1658790053288457,0.5798428320745188,-32.623788815137004,-19.317921721217544
1658790053304449,-2.410925459678083,-33.23414969100486,-19.623102159151586
1658790053320441,-1.9226367589837992,-33.29518577859176,-18.70756084534969
1658790053336433,2.227817196917613,-33.78347447928604,-17.79201953154802
1658790053352424,5.889982452124741,-35.24834058136889,-18.097199969481835
1658790053368416,4.791332875562603,-37.14045929655913,-19.317921721217544
1658790053384408,0.3967345693140487,-37.750820172426984,-19.684138246738257
1658790053400399,-2.227817196917613,-37.56771190966674,-20.11139085984587
1658790053416351,-3.3264667734797513,-37.44563973449317,-19.80621042191183
1658790053432343,-2.166781109330941,-37.68978408484031,-18.76859693293659
1658790053448334,1.8616006713969,-38.72739757381555,-17.79201953154802
1658790053464326,4.852368963149502,-39.88708323796459,-17.059586480506596
1658790053480318,5.95101853971164,-40.436408026245545,-15.838864728770886
1658790053496309,3.692683299000464,-40.98573281452673,-15.960936903944457
1658790053512301,-0.2746623941404778,-41.29091325246054,-17.54787518120088
1658790053528293,-0.45777065690094787,-39.58190280003055,-17.730983443961122
1658790053544284,4.42511635004189,-37.994964522774126,-17.24269474326684
1658790053560276,5.3406576638437855,-39.70397497520412,-18.341344319828977
1658790053576268,5.462729839017356,-41.59609369039458,-18.402380407415876
1658790053592260,6.256198977645454,-41.962310215915295,-17.42580300602731
1658790053608251,6.012054627298312,-41.59609369039458,-16.510261692225413
1658790053624243,2.105745021744042,-41.22987716487387,-16.1440451667047
1658790053640235,-2.410925459678083,-41.16884107728697,-16.693369954985883
1658790053656226,-2.04470893415737,-40.98573281452673,-15.838864728770886
1658790053672218,2.227817196917613,-41.840238040741724,-15.594720378423744
1658790053688210,3.2654306858930795,-43.305104142824575,-16.998550392919697
1658790053704201,2.04470893415737,-43.121995880064105,-17.36476691844041
1658790053720193,3.3875028610666504,-41.16884107728697,-16.2050812542916
1658790053736175,5.76791027695117,-40.92469672693983,-16.632333867398984
1658790053752167,5.2185854886702145,-42.75577935454339,-18.70756084534969
1658790053768159,0.9460593575952316,-44.76997024490743,-20.11139085984587
1658790053784150,-3.0823224231326094,-44.403753719386714,-19.195849546043974
1658790053800142,-2.3498893720911838,-42.63370717936982,-18.036163881895163
1658790053816134,-1.2512397955290453,-41.901274128328396,-18.341344319828977
1658790053832125,-0.5188067444876197,-41.962310215915295,-19.195849546043974
1658790053848117,2.105745021744042,-41.962310215915295,-19.256885633630873
1658790053864109,4.547188525215461,-41.901274128328396,-18.280308232242305
1658790053880100,4.791332875562603,-42.69474326695672,-17.79201953154802
1658790053896092,2.532997634851654,-43.36614023041125,-18.158236057068734
1658790053912084,1.8005645838102282,-42.87785152971696,-18.463416495002548
1658790053928075,-1.8005645838102282,-43.244068055237676,-20.843823910887295
1658790053944067,-6.256198977645454,-43.48821240558482,-23.224231326771815
1658790053960059,-5.645838101777599,-41.901274128328396,-21.637293049515392
1658790053976050,-0.5188067444876197,-40.680552376592686,-19.501029983978015
1658790053992042,5.279621576256886,-40.98573281452673,-19.9282825970854
1658790054008034,11.322194247348762,-40.1922636758984,-20.294499122606112
1658790054024026,9.063859006637585,-40.07019150072483,-19.80621042191183
1658790054040017,3.7537193865873633,-39.64293888761745,-18.82963302052326
1658790054055999,1.4953841458761872,-37.933928435187454,-15.716792553597315
1658790054071991,2.288853284504512,-36.530098420691274,-12.970168612191856
1658790054087983,0.213626306553806,-36.774242771038416,-13.519493400473038
1658790054103974,-3.6316472114137923,-35.91973754482342,-13.885709925993751
1658790054119966,-3.5095750362402214,-35.12626840619532,-12.4208438239109
1658790054135958,-3.3875028610666504,-35.67559319447628,-12.298771648737329
1658790054151950,1.983672846570471,-35.79766536964985,-13.885709925993751
1658790054167941,9.918364232852582,-34.3938353551539,-12.359807736324
1658790054183933,9.979400320439481,-35.187304493781994,-12.298771648737329
1658790054199925,4.364080262455218,-36.713206683451745,-15.10643167772946
1658790054215916,-1.739528496223329,-36.28595407034413,-15.838864728770886
1658790054231908,-6.439307240405924,-33.72243839169914,-13.519493400473038
1658790054247900,-6.805523765926637,-31.464103150988194,-10.345616845960194
1658790054263891,-5.0354772259097444,-30.60959792477297,-7.2938124666209205
1658790054279883,-1.0681315327688026,-31.342030975814623,-5.95101853971164
1658790054295875,3.7537193865873633,-32.37964446478986,-5.645838101777599
1658790054311866,7.537956816968062,-32.928969253071045,-4.42511635004189
1658790054327858,9.491111619745197,-32.44068055237676,-2.410925459678083
1658790054343850,4.180971999694748,-32.50171663996343,-4.364080262455218
1658790054359841,0.9460593575952316,-30.853742275120112,-5.889982452124741
1658790054375854,2.227817196917613,-29.877164873731545,-6.378271152819025
1658790054391846,2.4719615472647547,-31.097886625467254,-8.758678568703772
1658790054407837,-4.730296787975931,-32.745860990310575,-10.772869459067579
1658790054423829,-7.476920729381163,-30.36545357442583,-9.55214770733187
1658790054439821,-2.532997634851654,-26.947432669565842,-5.096513313496644
1658790054455813,3.814755474174035,-26.82536049439227,-4.058899824521177
1658790054471804,6.8665598535133086,-28.717479209582507,-6.195162890058782
1658790054487796,2.288853284504512,-30.182345311665358,-7.476920729381163
1658790054503788,-4.058899824521177,-29.26680399786369,-6.683451590753066
1658790054519779,-3.997863736934505,-26.031891355763946,-4.119935912108076
1658790054535771,0.9460593575952316,-24.26184481574728,-0.6408789196611906
1658790054551763,3.936827649347606,-26.214999618524416,-2.105745021744042
1658790054567754,1.0681315327688026,-27.679865720607268,-4.60822461280236
1658790054583746,-0.7629510948347615,-26.58121614404513,-4.058899824521177
1658790054599738,-1.5564202334630863,-24.994277866788707,-3.0823224231326094
1658790054615729,-0.2746623941404778,-24.689097428854666,-3.0212863355459376
1658790054631721,1.0681315327688026,-25.543602655069662,-3.3875028610666504
1658790054647713,-0.45777065690094787,-26.6422522316318,-5.645838101777599
