Timestamp (microseconds),Accel X (g),Accel Y (g),Accel Z (g)
1658790025815643,0.21026932173647683,0.9765163653009843,-0.01873807888914314
1658790025831643,0.2100251773861297,0.9886015106431678,-0.018127718013275285
1658790025847643,0.2205233844510568,0.971755550469215,-0.00970473792629889
1658790025863642,0.21441977569237824,0.9541771572442208,1.831082627603564E-4
1658790025879642,0.204531929503319,0.9634546425574122,-0.0020141908903639205
1658790025895642,0.2116121156633861,0.9890897993438621,-0.018371862363622427
1658790025911642,0.2179598687724118,0.9931181811245899,-0.019348439765010994
1658790025927641,0.21307698176546896,0.9610131990539408,-0.011535820553902454
1658790025943641,0.20904859998474112,0.9591821164263372,-0.006530861371786045
1658790025959641,0.20587472343022828,0.9774929427023729,-0.003112840466926059
1658790025975641,0.2146639200427254,0.98286411841001,9.15541313801782E-4
1658790025991641,0.23468375677119102,1.0014190890363928,-0.006530861371786045
1658790026007640,0.22882429236285962,1.0084992751964599,-0.006652933546959616
1658790026023640,0.21734950789654395,0.9809109636072328,-0.008728160524910322
1658790026039640,0.21075761043717112,0.9981231403067063,-0.01861600671396957
1658790026055640,0.20892652780956755,1.014724956130312,-0.021179522392614558
1658790026071640,0.22186617837796607,0.9949492637521935,-0.019104295414663852
1658790026087639,0.22748149843595034,0.9810330357824064,-0.01495384145876244
1658790026103639,0.20050354772259116,0.9540550850690472,-0.002990768291752488
1658790026119639,0.18451209277485336,0.9480735484855423,-0.008850232700083893
1658790026135620,0.18023956664377838,0.9809109636072328,-0.017761501487754572
1658790026151620,0.18048371099412552,0.9591821164263372,-0.023743038071259548
1658790026167619,0.2138094148165104,0.9583276112001222,-0.010803387502861028
1658790026183619,0.19879453727016116,0.9868925001907378,-0.008728160524910322
1658790026199619,0.19879453727016116,0.9816433966582743,0.003356984817273201
1658790026215619,0.20392156862745114,0.9500267032883194,0.017273212787060288
1658790026231619,0.2083161669336997,0.946730754558633,0.02154573891813527
1658790026247618,0.2318760967421989,1.0014190890363928,0.020813305867093845
1658790026263618,0.20758373388265827,1.0052033264667735,0.005432211795223907
1658790026279618,0.20404364080262472,0.971755550469215,0.008117799649042468
1658790026295618,0.2003814755474176,0.951857785915923,0.0018921187151903496
1658790026311617,0.19708552681773117,0.973464560921645,0.0039673456931410556
1658790026327617,0.2048981460288397,0.9800564583810178,0.007995727473868897
1658790026343617,0.1981841763942933,0.9770046540016786,0.0023804074158846333
1658790026359617,0.19623102159151617,0.97261005569543,0.004821850919356052
1658790026375617,0.2146639200427254,0.975173571374075,0.009216449225604606
1658790026391616,0.21185626001373326,0.9842069123369193,0.014099336232547444
1658790026407616,0.21307698176546896,0.9898222323949035,0.013122758831158876
1658790026423616,0.20733958953231113,0.9947051194018464,0.007263294422827471
1658790026439616,0.20209048599984758,0.9732204165712979,0.013488975356679589
1658790026455627,0.2146639200427254,0.9711451895933472,0.012634470130464592
1658790026471627,0.2066071564812697,0.9876249332417792,5.493247882810692E-4
1658790026487627,0.201968413824674,0.9715114061188679,0.0012817578393224949
1658790026503626,0.1928130006866562,0.9730983443961243,-0.006530861371786045
1658790026519626,0.20428778515297186,0.9812771801327536,-0.004455634393835339
1658790026535626,0.20477607385366614,0.9677271686884872,0.009460593575951748
1658790026551626,0.20306706340123615,0.949294270237278,0.008606088349736751
1658790026567626,0.20148012512397973,0.9804226749065386,1.831082627603564E-4
1658790026583625,0.201113908598459,1.0039826047150378,-0.010070954451819603
1658790026599625,0.20856031128404684,1.0041046768902113,-0.009338521400778177
1658790026615625,0.20477607385366614,0.9737087052719922,-0.009216449225604606
1658790026631625,0.203677424277104,0.954421301594568,0.0020141908903639205
1658790026647625,0.2003814755474176,0.9821316853589686,-0.0021362630655374915
1658790026663624,0.19940489814602902,1.001052872510872,-0.0020141908903639205
1658790026679624,0.20379949645227757,0.96919203479057,-0.007019150072480329
1658790026695624,0.20233463035019472,0.964919508659495,-0.011779964904249596
1658790026711624,0.1911039902342262,0.9601586938277258,-0.0018921187151903496
1658790026727624,0.20099183642328544,0.9839627679865721,-0.005554283970397478
1658790026743623,0.1981841763942933,0.9948271915770199,-0.004455634393835339
1658790026759623,0.21063553826199755,0.9844510566872664,-0.0023804074158846333
1658790026775634,0.20611886778057542,0.9860379949645228,-0.00982681010147246
1658790026791634,0.2086823834592204,0.9859159227893493,-0.006652933546959616
1658790026807634,0.20856031128404684,0.978591592278935,-3.0518043793392735E-4
1658790026823634,0.2003814755474176,1.0000762951094835,-0.0040894178683146265
1658790026839634,0.19964904249637616,0.9959258411535821,-0.013855191882200302
1658790026855633,0.21173418783855968,0.9892118715190357,-0.013366903181506018
1658790026871633,0.20392156862745114,0.9884794384679942,-0.013977264057373873
1658790026887633,0.20636301213092256,0.9763942931258107,-0.009338521400778177
1658790026903633,0.19806210421911974,0.9833524071107043,-0.009216449225604606
1658790026919633,0.19684138246738403,1.0012970168612192,-0.014099336232547444
1658790026935632,0.201113908598459,0.9698023956664379,-0.01861600671396957
1658790026951632,0.21222247653925397,0.966628519111925,-0.012024109254596738
1658790026967632,0.19293507286182976,0.9904325932707714,-0.012756542305638163
1658790026983632,0.18988326848249049,0.9877470054169528,-0.0040894178683146265
1658790026999632,0.19269092851148262,0.9594262607766844,6.103608758678547E-5
1658790027015631,0.2116121156633861,0.9634546425574122,-0.0036011291676203427
1658790027031631,0.2217441062027925,0.9997100785839628,-0.009338521400778177
1658790027047631,0.2153963530937668,0.9915312428473335,-0.018127718013275285
1658790027063631,0.20550850690470757,0.9663843747615779,-0.010315098802166744
1658790027079630,0.20563057907988114,0.9687037460898758,-0.005188067444876765
1658790027095611,0.20233463035019472,0.9815213244831007,-0.0039673456931410556
1658790027111611,0.2016021972991533,0.9628442816815443,-0.004821850919356052
1658790027127611,0.20782787823300541,0.9572289616235601,-0.0016479743648432077
1658790027143611,0.20465400167849257,0.9849393453879607,-0.009216449225604606
1658790027159610,0.20819409475852613,0.9916533150225071,-0.009948882276646032
1658790027175610,0.21197833218890683,0.9647974364843215,-0.0026245517662317752
1658790027191610,0.20636301213092256,0.9490501258869308,0.0020141908903639205
1658790027207610,0.20611886778057542,0.96748302433814,0.011413748378728883
1658790027223610,0.20343327992675686,0.9969024185549706,0.005554283970397478
1658790027239609,0.20807202258335256,0.9927519645990692,0.0020141908903639205
1658790027255609,0.21344319829098968,0.9553978789959565,-5.493247882810692E-4
1658790027271609,0.2153963530937668,0.9776150148775464,-0.007873655298695326
1658790027287609,0.20270084687571543,0.987136644541085,-4.272526131074983E-4
1658790027303609,0.19842832074464045,0.9605249103532465,0.00848401617456318
1658790027319608,0.19916075379568188,0.9560082398718244,0.006286717021438903
1658790027335608,0.19977111467154973,0.9781033035782407,-1.831082627603564E-4
1658790027351608,0.21515220874341967,1.0012970168612192,-0.014343480582894585
1658790027367608,0.21063553826199755,0.9705348287174793,-0.011657892729076025
1658790027383607,0.20770580605783184,0.9698023956664379,-0.008728160524910322
1658790027399607,0.20318913557640972,1.0003204394598306,-0.011535820553902454
1658790027415619,0.20807202258335256,0.9890897993438621,-0.006775005722133187
1658790027431618,0.21283283741512182,0.96919203479057,-0.005188067444876765
1658790027447618,0.21283283741512182,0.9784695201037614,-0.0060425726710917615
1658790027463618,0.2095368886854354,0.9883573662928207,-0.011657892729076025
1658790027479618,0.20172426947432687,0.9838406958113985,-0.005188067444876765
1658790027495617,0.20587472343022828,0.9699244678416115,-0.0014038300144960658
1658790027511617,0.201113908598459,0.96406500343328,0.0020141908903639205
1658790027527617,0.2048981460288397,0.9812771801327536,-0.007385366598001042
1658790027543617,0.201113908598459,0.9755397878995957,-0.010559243152513886
1658790027559617,0.2066071564812697,0.985427634088655,-0.0039673456931410556
1658790027575616,0.20086976424811187,0.9856717784390021,-0.006775005722133187
1658790027591616,0.207095445181964,0.9585717555504694,-0.0017700465400167786
1658790027607616,0.2074616617074847,0.9540550850690472,-4.272526131074983E-4
1658790027623616,0.204531929503319,0.9788357366292821,-0.005920500495918191
1658790027639616,0.21271076523994825,0.9883573662928207,-0.008606088349736751
1658790027655615,0.2116121156633861,0.9900663767452507,-0.013244831006332447
1658790027671615,0.20794995040817899,0.9749294270237279,-0.0060425726710917615
1658790027687615,0.19977111467154973,0.9512474250400551,-0.0012817578393224949
1658790027703615,0.20636301213092256,0.9903105210955978,-0.0042114900434881974
1658790027719615,0.2048981460288397,1.0022735942626078,-0.005188067444876765
1658790027735595,0.21612878614480824,0.9834744792858778,-0.006408789196612474
1658790027751595,0.2086823834592204,0.9744411383230336,-0.013977264057373873
1658790027767595,0.20440985732814543,0.9754177157244222,-0.0109254596780346
1658790027783595,0.2016021972991533,0.9707789730678265,-0.007507438773174613
1658790027799595,0.20355535210193043,0.976882581826505,-0.006897077897306758
1658790027815594,0.20294499122606258,0.978591592278935,-0.013366903181506018
1658790027831594,0.21234454871442754,0.985427634088655,-0.01605249103532458
1658790027847594,0.2121004043640804,1.0032501716639963,-0.008972304875257464
1658790027863594,0.20428778515297186,0.9889677271686885,-0.007873655298695326
1658790027879593,0.20550850690470757,0.9688258182650493,-0.003112840466926059
1658790027895593,0.1961089494163426,0.9469748989089801,-0.0022583352407110624
1658790027911593,0.1965972381170369,0.9689478904402229,-0.004943923094529623
1658790027927593,0.19513237201495404,0.9816433966582743,-0.013977264057373873
1658790027943593,0.20148012512397973,1.0000762951094835,-0.015686274509803866
1658790027959592,0.19855039291981402,0.9738307774471657,-0.012512397955291021
1658790027975592,0.21283283741512182,0.9651636530098422,-0.006652933546959616
1658790027991592,0.20550850690470757,0.97602807660029,-0.0022583352407110624
1658790028007592,0.2057526512550547,0.9844510566872664,-0.001037613488975353
1658790028023592,0.20148012512397973,0.9909208819714657,-0.006530861371786045
1658790028039591,0.1981841763942933,0.9770046540016786,-0.007385366598001042
1658790028055603,0.2074616617074847,0.9766384374761579,-0.00848401617456318
1658790028071602,0.20135805294880615,0.9796902418554971,-0.01373311970702673
1658790028087602,0.20697337300679042,0.9761501487754636,-0.006530861371786045
1658790028103602,0.203677424277104,0.9790798809796293,-0.01361104753185316
1658790028119602,0.20563057907988114,0.9848172732127871,-0.007385366598001042
1658790028135602,0.19842832074464045,0.9690699626153965,-0.0038452735179674846
1658790028151601,0.18841840238040763,0.968337529564355,-0.008972304875257464
1658790028167601,0.1995269703212026,0.9889677271686885,-0.01861600671396957
1658790028183601,0.2003814755474176,0.9839627679865721,-0.014221408407721015
1658790028199601,0.2141756313420311,0.9741969939726864,-0.004821850919356052
1658790028215601,0.21551842526894038,0.9818875410086214,0.008728160524910322
1658790028231600,0.2112458991378654,0.9989776455329213,0.0036011291676203427
1658790028247600,0.22247653925383393,1.0084992751964599,-0.008728160524910322
1658790028263600,0.22235446707866036,1.004226749065385,-0.015686274509803866
1658790028279600,0.20270084687571543,0.9778591592278936,-0.011169604028381741
1658790028295600,0.1978179598687726,0.9532005798428322,-0.008117799649042468
1658790028311599,0.1965972381170369,0.9678492408636608,-0.007263294422827471
1658790028327599,0.1978179598687726,0.9927519645990692,-0.013855191882200302
1658790028343599,0.21271076523994825,0.9860379949645228,-0.01751735713740743
1658790028359599,0.20880445563439398,0.9630884260318915,-0.015197985809109582
1658790028375579,0.20819409475852613,0.9567406729228658,-0.0021362630655374915
1658790028391579,0.20306706340123615,0.9754177157244222,0.0036011291676203427
1658790028407579,0.202822919050889,0.9922636758983749,-0.007019150072480329
1658790028423579,0.21222247653925397,0.978591592278935,-0.01373311970702673
1658790028439579,0.21454184786755182,0.9542992294193944,-0.01226825360494388
1658790028455578,0.20843823910887327,0.971755550469215,-0.005920500495918191
1658790028471578,0.2007476920729383,0.987136644541085,-0.008606088349736751
1658790028487578,0.20672922865644328,0.9832303349355307,-0.015564202334630295
1658790028503578,0.2124666208896011,0.9571068894483865,-0.013855191882200302
1658790028519578,0.21991302357518894,0.9604028381780729,-0.01373311970702673
1658790028535577,0.19842832074464045,0.9532005798428322,-0.017761501487754572
1658790028551577,0.1893949797817962,0.9596704051270315,-0.015075913633936011
1658790028567577,0.1981841763942933,0.9792019531548029,-0.010437170977340315
1658790028583577,0.20856031128404684,0.9782253757534143,-0.0039673456931410556
1658790028599577,0.2318760967421989,0.9842069123369193,0.002746623941405346
1658790028615576,0.22919050888838033,0.9948271915770199,0.002868696116578917
1658790028631576,0.22662699320973534,1.0037384603646906,0.0042114900434881974
1658790028647576,0.22198825055313964,0.9959258411535821,-0.005065995269703194
1658790028663576,0.21820401312275894,0.97944609750515,-0.004943923094529623
1658790028679576,0.2108796826123447,0.9750514991989014,-0.004699778744182481
1658790028695587,0.19549858854047475,0.9827420462348364,-0.012512397955291021
1658790028711587,0.19879453727016116,0.9861600671396964,-0.012634470130464592
1658790028727586,0.20563057907988114,0.980300602731365,-0.018493934538795997
1658790028743586,0.21612878614480824,0.9829861905851836,-0.01495384145876244
1658790028759586,0.2175936522468911,0.9756618600747693,0.0020141908903639205
1658790028775586,0.20502021820401328,0.9933623254749371,-0.008117799649042468
1658790028791586,0.20672922865644328,0.9873807888914321,-0.007751583123521755
1658790028807585,0.2129549095902954,0.9721217669947357,-0.0025024795910582043
1658790028823585,0.2146639200427254,0.988845654993515,-0.008728160524910322
1658790028839585,0.20978103303578255,0.9846952010376135,-0.010315098802166744
1658790028855585,0.206240939955749,0.9601586938277258,-0.010315098802166744
1658790028871585,0.21405355916685753,0.9452658884565501,-0.007995727473868897
1658790028887584,0.21783779659723823,0.9749294270237279,-0.011413748378728883
1658790028903584,0.21869230182345323,0.9990997177080949,-0.013855191882200302
1658790028919584,0.20770580605783184,0.9765163653009843,-0.010193026626993174
1658790028935584,0.2121004043640804,0.9419699397268637,-7.934691386282111E-4
1658790028951583,0.2171053635461968,0.9473411154345008,-0.0021362630655374915
1658790028967583,0.22247653925383393,0.9975127794308385,-0.00836194399938961
1658790028983583,0.2146639200427254,0.9911650263218128,-0.01483176928358887
1658790028999583,0.2124666208896011,0.9523460746166172,-0.0109254596780346
1658790029015594,0.19964904249637616,0.9439230945296408,-0.008606088349736751
1658790029031594,0.21185626001373326,0.954421301594568,-0.004333562218661768
1658790029047594,0.21149004348821254,0.9719996948195622,-0.005554283970397478
1658790029063593,0.21075761043717112,0.9909208819714657,-0.006286717021438903
1658790029079593,0.2124666208896011,0.9727321278706036,-0.005188067444876765
1658790029095593,0.21686121919584966,0.9669947356374458,-0.004333562218661768
1658790029111593,0.22015716792553608,0.9917753871976807,0.0014038300144960658
1658790029127593,0.2112458991378654,0.9866483558403907,-0.005920500495918191
1658790029143592,0.20550850690470757,0.9658960860608836,-0.0038452735179674846
1658790029159592,0.20587472343022828,0.9512474250400551,-0.0037232013427939137
1658790029175592,0.21258869306477468,0.9944609750514992,-0.0109254596780346
1658790029191592,0.2191805905241475,1.0187533379110398,-0.01617456321049815
1658790029207592,0.21368734264133682,0.9990997177080949,-0.015197985809109582
1658790029223591,0.20904859998474112,0.9593041886015108,-7.934691386282111E-4
1658790029239591,0.2167391470206761,0.9571068894483865,0.011902037079423167
1658790029255591,0.1995269703212026,0.9940947585259785,0.0018921187151903496
1658790029271591,0.21283283741512182,0.9998321507591363,-0.005554283970397478
1658790029287591,0.2074616617074847,0.9866483558403907,-0.015197985809109582
1658790029303590,0.21136797131303897,0.9884794384679942,-0.015564202334630295
1658790029319590,0.20404364080262472,0.9851834897383078,-0.0037232013427939137
1658790029335571,0.20904859998474112,0.9611352712291144,0.008728160524910322
1658790029351571,0.2033112077515833,0.970901045243,0.010559243152513886
1658790029367571,0.20782787823300541,0.9699244678416115,0.0025024795910582043
1658790029383570,0.20819409475852613,0.9698023956664379,-0.005188067444876765
1658790029399570,0.21527428091859324,0.9970244907301442,-0.013000686655985305
1658790029415570,0.2103913939116504,0.9981231403067063,-0.015075913633936011
1658790029431570,0.21173418783855968,0.96406500343328,-0.0040894178683146265
1658790029447569,0.2138094148165104,0.9550316624704358,0.009338521400778177
1658790029463569,0.20636301213092256,0.9665064469367515,0.005676356145571049
1658790029479569,0.2171053635461968,0.9875028610666057,-0.007263294422827471
1658790029495569,0.2162508583199818,0.9838406958113985,-0.008728160524910322
1658790029511569,0.2188143739986268,0.9848172732127871,-0.011902037079423167
1658790029527568,0.21258869306477468,0.9876249332417792,-0.00836194399938961
1658790029543568,0.21527428091859324,0.9806668192568857,-0.0060425726710917615
1658790029559568,0.22101167315175108,0.9616235599298086,-0.0071412222476539
1658790029575568,0.21857022964827966,0.9677271686884872,-0.0025024795910582043
1658790029591568,0.20599679560540185,0.9875028610666057,-0.010193026626993174
1658790029607567,0.2091706721599147,0.9958037689784085,-0.014709697108415298
1658790029623567,0.21173418783855968,0.9661402304112308,-0.014709697108415298
1658790029639567,0.2158846417944611,0.9549095902952622,-0.005554283970397478
1658790029655578,0.21368734264133682,0.9865262836652171,-0.0038452735179674846
1658790029671578,0.20990310521095612,0.9988555733577478,-0.002868696116578917
1658790029687578,0.2293125810635539,1.002761882963302,0.0037232013427939137
1658790029703578,0.22015716792553608,0.9822537575341421,0.0042114900434881974
1658790029719577,0.22198825055313964,0.9813992523079271,-0.0014038300144960658
1658790029735577,0.21112382696269183,0.9705348287174793,-0.011291676203555312
1658790029751577,0.21222247653925397,0.9745632104982072,-0.011657892729076025
1658790029767577,0.21283283741512182,0.9759060044251164,-0.006652933546959616
1658790029783577,0.21051346608682397,0.9705348287174793,-0.0036011291676203427
1658790029799576,0.2086823834592204,0.9705348287174793,-0.008972304875257464
1658790029815576,0.20892652780956755,0.97431906614786,-0.005676356145571049
1658790029831576,0.20794995040817899,0.9500267032883194,-0.0023804074158846333
1658790029847576,0.22858014801251247,0.9696803234912643,0.010193026626993174
1658790029863576,0.2095368886854354,0.9765163653009843,3.0518043793392735E-4
1658790029879575,0.21942473487449465,0.9748073548485543,-0.0021362630655374915
1658790029895575,0.2179598687724118,0.9580834668497751,-0.007263294422827471
1658790029911575,0.22357518883039607,0.9646753643091479,7.934691386282111E-4
1658790029927575,0.22149996185244536,0.9644312199588008,0.0038452735179674846
1658790029943575,0.21942473487449465,0.9610131990539408,0.007629510948348184
1658790029959574,0.22211032272831321,0.9619897764553293,0.0016479743648432077
1658790029975555,0.2272373540856032,0.98286411841001,9.15541313801782E-4
1658790029991555,0.21869230182345323,0.9757839322499429,-0.0042114900434881974
1658790030007555,0.2200350957503625,0.9541771572442208,-0.0026245517662317752
1658790030023554,0.2129549095902954,0.9502708476386665,0.0015259021896696368
1658790030039554,0.21405355916685753,0.9673609521629665,-4.272526131074983E-4
1658790030055554,0.21942473487449465,0.9784695201037614,-0.007507438773174613
1658790030071554,0.21515220874341967,0.9895780880445564,-0.006286717021438903
1658790030087554,0.2129549095902954,0.9715114061188679,-0.007019150072480329
1658790030103553,0.21698329137102323,0.9759060044251164,-0.002990768291752488
1658790030119553,0.21991302357518894,0.976882581826505,-0.0022583352407110624
1658790030135553,0.21551842526894038,0.9690699626153965,-0.00579842832074462
1658790030151553,0.2171053635461968,0.9729762722209507,-0.005920500495918191
1658790030167553,0.20209048599984758,0.9868925001907378,-0.010681315327687457
1658790030183552,0.21820401312275894,0.985427634088655,-0.010803387502861028
1658790030199552,0.21844815747310609,1.0022735942626078,-0.008606088349736751
1658790030215552,0.20856031128404684,0.9728542000457772,-0.007995727473868897
1658790030231552,0.21564049744411395,0.9619897764553293,-0.007019150072480329
1658790030247552,0.2083161669336997,0.9840848401617457,-0.008117799649042468
1658790030263551,0.21112382696269183,1.0115510795757992,-0.008850232700083893
1658790030279551,0.21185626001373326,0.9918974593728542,-0.016662851911192433
1658790030295562,0.21905851834897394,0.9865262836652171,-0.013855191882200302
1658790030311562,0.2121004043640804,0.9906767376211185,-0.009094377050431035
1658790030327562,0.21722743572137038,0.98970016021973,-0.005676356145571049
1658790030343562,0.21905851834897394,0.9903105210955978,-0.005554283970397478
1658790030359562,0.22369726100556964,1.001907377737087,-0.00457770656900891
1658790030375561,0.22076752880140393,0.9750514991989014,-0.00457770656900891
1658790030391561,0.21222247653925397,0.9682154573891815,-0.001159685664148924
1658790030407561,0.20135805294880615,0.9705348287174793,-7.934691386282111E-4
1658790030423561,0.20904859998474112,0.9853055619134814,-0.0018921187151903496
1658790030439561,0.22223239490348679,1.003616388189517,-0.00323491264209963
1658790030455560,0.2141756313420311,0.9809109636072328,-0.007507438773174613
1658790030471560,0.2196688792248418,0.9542992294193944,-4.272526131074983E-4
1658790030487560,0.2191805905241475,0.9616235599298086,0.011413748378728883
1658790030503560,0.21783779659723823,0.9937285420004578,0.018493934538795997
1658790030519559,0.22626077668421463,0.9846952010376135,0.013488975356679589
1658790030535559,0.22565041580834677,0.9752956435492486,0.007995727473868897
1658790030551559,0.2238193331807432,0.9643091477836272,5.493247882810692E-4
1658790030567559,0.2289463645380332,0.9644312199588008,0.0042114900434881974
1658790030583559,0.21368734264133682,0.97944609750515,0.005310139620050336
1658790030599558,0.22272068360418107,0.9622339208056765,0.0071412222476539
1658790030615570,0.22308690012970178,0.9522240024414437,0.00848401617456318
1658790030631569,0.22687113756008248,0.9582055390249486,0.006652933546959616
1658790030647569,0.21661707484550252,0.9616235599298086,0.00970473792629889
1658790030663569,0.21222247653925397,0.9698023956664379,0.011291676203555312
1658790030679569,0.22064545662623036,0.9623559929808501,0.0036011291676203427
1658790030695569,0.22870222018768604,0.9641870756084536,0.0026245517662317752
1658790030711568,0.2348058289463646,0.9826199740596628,0.004699778744182481
1658790030727568,0.22320897230487535,0.968337529564355,-1.831082627603564E-4
1658790030743568,0.22211032272831321,0.9546654459449151,0.011413748378728883
1658790030759568,0.2179598687724118,0.9569848172732129,0.008239871824216038
1658790030775568,0.22149996185244536,0.975173571374075,0.006897077897306758
1658790030791567,0.23260852979324032,0.9857938506141757,0.003356984817273201
1658790030807567,0.22064545662623036,0.9679713130388343,0.0018921187151903496
1658790030823567,0.2234531166552225,0.9595483329518579,0.007751583123521755
1658790030839567,0.22357518883039607,0.982009613183795,0.003356984817273201
1658790030855567,0.21576256961928753,0.9798123140306707,-5.493247882810692E-4
1658790030871566,0.22772564278629748,0.9615014877546351,0.0026245517662317752
1658790030887566,0.22040131227588322,0.9727321278706036,0.0025024795910582043
1658790030903566,0.22528419928282606,0.9909208819714657,-0.0012817578393224949
1658790030919566,0.2191805905241475,0.9870145723659114,-0.0014038300144960658
1658790030935547,0.22211032272831321,0.966628519111925,0.001159685664148924
1658790030951546,0.22711528191042962,0.9729762722209507,9.15541313801782E-4
1658790030967546,0.2238193331807432,0.97944609750515,0.0036011291676203427
1658790030983546,0.2167391470206761,0.9698023956664379,0.0021362630655374915
1658790030999546,0.21527428091859324,0.9713893339436943,5.493247882810692E-4
1658790031015545,0.21576256961928753,0.9732204165712979,-0.007873655298695326
1658790031031545,0.22162203402761893,0.9721217669947357,-6.103608758678547E-5
1658790031047545,0.21771572442206466,0.9772487983520257,0.0037232013427939137
1658790031063545,0.21869230182345323,0.9749294270237279,0.0040894178683146265
1658790031079545,0.22528419928282606,0.9864042114900435,0.006652933546959616
1658790031095544,0.2234531166552225,0.9861600671396964,0.0018921187151903496
1658790031111544,0.22711528191042962,0.9972686350804914,-0.0018921187151903496
1658790031127544,0.21649500267032895,0.9793240253299764,-0.0025024795910582043
1658790031143544,0.21832608529793252,0.9586938277256429,0.0039673456931410556
1658790031159544,0.2112458991378654,0.9569848172732129,0.00457770656900891
1658790031175543,0.21783779659723823,1.0006866559853513,0.012512397955291021
1658790031191543,0.21100175478751826,1.0110627908751049,-0.004699778744182481
1658790031207543,0.23785763332570387,0.9933623254749371,-0.004699778744182481
1658790031223543,0.23504997329671173,0.9754177157244222,-0.00323491264209963
1658790031239543,0.2229648279545282,0.9855497062638285,0.005554283970397478
1658790031255554,0.21954680704966822,0.9818875410086214,0.010070954451819603
1658790031271554,0.2146639200427254,0.9859159227893493,0.006408789196612474
1658790031287553,0.21600671396963467,0.9875028610666057,-0.006775005722133187
1658790031303553,0.22626077668421463,0.9702906843671322,-7.934691386282111E-4
1658790031319553,0.21747158007171752,0.9585717555504694,6.713969634546402E-4
1658790031335553,0.2086823834592204,0.9745632104982072,0.0025024795910582043
1658790031351553,0.21600671396963467,0.9744411383230336,0.003356984817273201
1658790031367552,0.22211032272831321,0.9572289616235601,0.005310139620050336
1658790031383552,0.22601663233386748,0.9545433737697415,0.007629510948348184
1658790031399552,0.2213778896772718,0.9643091477836272,0.008972304875257464
1658790031415552,0.20856031128404684,0.96406500343328,0.003479056992446772
1658790031431552,0.21698329137102323,0.9612573434042879,-0.0038452735179674846
1658790031447551,0.22333104448004892,0.9748073548485543,-0.006897077897306758
1658790031463551,0.22418554970626392,0.9632104982070651,0.0021362630655374915
1658790031479551,0.22772564278629748,0.9521019302662701,0.006897077897306758
1658790031495551,0.21283283741512182,0.9615014877546351,0.00848401617456318
1658790031511551,0.22357518883039607,0.9834744792858778,0.00579842832074462
1658790031527550,0.22687113756008248,0.9884794384679942,-0.006775005722133187
1658790031543550,0.23273060196841389,0.982009613183795,-0.0039673456931410556
1658790031559550,0.22540627145799963,0.9732204165712979,-0.004333562218661768
1658790031575531,0.21051346608682397,0.9522240024414437,0.0012817578393224949
1658790031591530,0.21112382696269183,0.9384298466468302,0.007629510948348184
1658790031607530,0.2146639200427254,0.9899443045700771,0.005920500495918191
1658790031623530,0.21490806439307253,0.9921416037232014,-0.005920500495918191
1658790031639530,0.22858014801251247,0.9824979018844893,7.934691386282111E-4
1658790031655530,0.22125581750209822,0.9816433966582743,-5.493247882810692E-4
1658790031671529,0.21478599221789896,0.9784695201037614,0.008117799649042468
1658790031687529,0.22272068360418107,0.9817654688334478,0.00848401617456318
1658790031703529,0.21429770351720467,0.9920195315480278,5.493247882810692E-4
1658790031719529,0.22272068360418107,0.9781033035782407,-6.713969634546402E-4
1658790031735529,0.21551842526894038,0.97773708705272,-0.003356984817273201
1658790031751528,0.21441977569237824,0.9813992523079271,0.006652933546959616
1658790031767528,0.20965896086060898,0.9868925001907378,0.0022583352407110624
1658790031783528,0.21734950789654395,0.9972686350804914,-6.713969634546402E-4
1658790031799528,0.2188143739986268,0.9833524071107043,-1.831082627603564E-4
1658790031815528,0.2213778896772718,0.9823758297093157,3.0518043793392735E-4
1658790031831527,0.21490806439307253,0.9801785305561914,0.0017700465400167786
1658790031847527,0.21185626001373326,0.9840848401617457,-7.934691386282111E-4
1658790031863527,0.21429770351720467,0.9838406958113985,-0.006286717021438903
1658790031879527,0.21197833218890683,0.9582055390249486,9.15541313801782E-4
1658790031895538,0.21515220874341967,0.970901045243,0.008117799649042468
1658790031911538,0.21222247653925397,0.98286411841001,0.005676356145571049
1658790031927538,0.21698329137102323,0.9749294270237279,0.0016479743648432077
1658790031943537,0.21576256961928753,0.9645532921339743,-9.15541313801782E-4
1658790031959537,0.22711528191042962,0.9843289845120928,-0.0022583352407110624
1658790031975537,0.22211032272831321,0.9779812314030671,-6.103608758678547E-5
1658790031991537,0.2129549095902954,0.9586938277256429,0.003356984817273201
1658790032007537,0.2100251773861297,0.966628519111925,0.0022583352407110624
1658790032023536,0.21515220874341967,0.9832303349355307,-0.009216449225604606
1658790032039536,0.22565041580834677,0.9824979018844893,-0.011413748378728883
1658790032055536,0.2305333028152896,0.9732204165712979,-0.005065995269703194
1658790032071536,0.21283283741512182,0.9689478904402229,-0.002868696116578917
1658790032087535,0.21637293049515538,0.968337529564355,0.0014038300144960658
1658790032103535,0.21844815747310609,0.9684596017395286,0.00323491264209963
1658790032119535,0.22272068360418107,0.9805447470817121,3.0518043793392735E-4
1658790032135535,0.22027924010070965,0.9890897993438621,6.713969634546402E-4
1658790032151535,0.22101167315175108,0.97773708705272,-0.0036011291676203427
1658790032167534,0.2138094148165104,0.9577172503242544,-0.0025024795910582043
1658790032183534,0.2146639200427254,0.9462424658579387,0.005310139620050336
1658790032199534,0.21112382696269183,0.9719996948195622,0.010681315327687457
1658790032215545,0.21026932173647683,1.0049591821164263,-0.0018921187151903496
1658790032231545,0.2158846417944611,0.9894560158693828,-0.007507438773174613
1658790032247545,0.2243076218814375,0.9638208590829329,-0.006408789196612474
1658790032263545,0.22247653925383393,0.9774929427023729,-0.0018921187151903496
1658790032279544,0.2217441062027925,0.9796902418554971,0.0060425726710917615
1658790032295544,0.21051346608682397,0.9784695201037614,0.0040894178683146265
1658790032311544,0.2175936522468911,0.9822537575341421,-5.493247882810692E-4
1658790032327544,0.21857022964827966,0.98628213931487,-0.00457770656900891
1658790032343544,0.2175936522468911,0.9918974593728542,-0.006408789196612474
1658790032359543,0.21600671396963467,0.9821316853589686,0.0016479743648432077
1658790032375543,0.2124666208896011,0.970901045243,0.006408789196612474
1658790032391543,0.19977111467154973,0.9579613946746015,0.004699778744182481
1658790032407543,0.23785763332570387,0.9738307774471657,0.005065995269703194
1658790032423543,0.21173418783855968,0.9886015106431678,-0.0039673456931410556
1658790032439542,0.22284275577935464,0.9950713359273671,-0.004943923094529623
1658790032455542,0.20941481651026184,0.9600366216525522,6.103608758678547E-5
1658790032471542,0.20880445563439398,0.9389181353475244,0.01239032578011745
1658790032487542,0.21930266269932108,0.9723659113450829,0.01226825360494388
1658790032503542,0.21808194094758537,1.0163118944075684,-5.493247882810692E-4
1658790032519541,0.21844815747310609,0.98628213931487,-0.0025024795910582043
1658790032535522,0.21612878614480824,0.9297627222095066,0.0022583352407110624
1658790032551522,0.21222247653925397,0.9369649805447473,0.008850232700083893
1658790032567522,0.21197833218890683,0.9964141298542764,9.15541313801782E-4
1658790032583521,0.21307698176546896,0.9961699855039292,-0.005676356145571049
1658790032599521,0.22027924010070965,0.9748073548485543,-0.005188067444876765
1658790032615521,0.21564049744411395,0.9593041886015108,0.00323491264209963
1658790032631521,0.22491798275730535,0.9756618600747693,0.010193026626993174
1658790032647521,0.21356527046616325,0.9866483558403907,0.0026245517662317752
1658790032663520,0.21637293049515538,0.9887235828183414,-7.934691386282111E-4
1658790032679520,0.21112382696269183,0.9641870756084536,-0.010681315327687457
1658790032695520,0.21051346608682397,0.9634546425574122,-0.012756542305638163
1658790032711520,0.21441977569237824,0.9822537575341421,-0.0042114900434881974
1658790032727520,0.20856031128404684,0.9882352941176471,0.0015259021896696368
1658790032743519,0.21857022964827966,0.9890897993438621,0.004821850919356052
1658790032759519,0.21637293049515538,0.9790798809796293,-5.493247882810692E-4
1658790032775519,0.22162203402761893,0.9732204165712979,-0.0023804074158846333
1658790032791519,0.22235446707866036,0.9964141298542764,-5.493247882810692E-4
1658790032807519,0.20819409475852613,0.9940947585259785,-0.008728160524910322
1658790032823518,0.2153963530937668,0.9778591592278936,-0.002746623941405346
1658790032839518,0.20807202258335256,0.9572289616235601,1.831082627603564E-4
1658790032855529,0.22247653925383393,0.971755550469215,0.006652933546959616
1658790032871529,0.21429770351720467,0.9889677271686885,-0.003356984817273201
1658790032887529,0.21271076523994825,1.0004425116350042,-0.0036011291676203427
1658790032903529,0.20941481651026184,0.968337529564355,-0.002746623941405346
1658790032919529,0.2141756313420311,0.9488059815365837,0.002868696116578917
1658790032935528,0.22015716792553608,0.9735866330968186,0.005554283970397478
1658790032951528,0.2129549095902954,0.9956816968032349,-0.0014038300144960658
1658790032967528,0.2153963530937668,0.978591592278935,4.272526131074983E-4
1658790032983528,0.20685130083161685,0.9485618371862365,6.103608758678547E-5
1658790032999528,0.21551842526894038,0.9530785076676587,0.007751583123521755
1658790033015527,0.20721751735713756,0.9809109636072328,4.272526131074983E-4
1658790033031527,0.22113374532692465,1.003616388189517,-0.006652933546959616
1658790033047527,0.21747158007171752,0.9724879835202564,-0.0040894178683146265
1658790033063527,0.2258945601586939,0.9624780651560236,0.0039673456931410556
1658790033079527,0.2138094148165104,0.9713893339436943,0.0026245517662317752
1658790033095526,0.21734950789654395,0.9928740367742428,-0.00323491264209963
1658790033111526,0.21820401312275894,0.9822537575341421,-0.007873655298695326
1658790033127526,0.2158846417944611,0.9627222095063708,-0.0040894178683146265
1658790033143526,0.2175936522468911,0.9669947356374458,-0.0015259021896696368
1658790033159525,0.2066071564812697,0.9856717784390021,3.0518043793392735E-4
1658790033175506,0.21173418783855968,0.9745632104982072,-0.003479056992446772
1658790033191506,0.2100251773861297,0.9715114061188679,-0.002990768291752488
1658790033207506,0.2150301365682461,0.9900663767452507,-0.0060425726710917615
1658790033223506,0.21429770351720467,0.9792019531548029,-0.0025024795910582043
1658790033239505,0.21722743572137038,0.9729762722209507,-6.713969634546402E-4
1658790033255505,0.2150301365682461,0.9669947356374458,-0.004455634393835339
1658790033271505,0.22284275577935464,0.9766384374761579,0.0042114900434881974
1658790033287505,0.21234454871442754,0.9779812314030671,-0.0018921187151903496
1658790033303505,0.21600671396963467,0.9829861905851836,0.0015259021896696368
1658790033319504,0.205386434729534,0.9698023956664379,0.0017700465400167786
1658790033335504,0.22101167315175108,0.9639429312581065,0.009582665751125319
1658790033351504,0.21686121919584966,0.9876249332417792,-0.0021362630655374915
1658790033367504,0.2238193331807432,0.9986114290074006,-0.004943923094529623
1658790033383504,0.21478599221789896,0.9601586938277258,0.004821850919356052
1658790033399503,0.21698329137102323,0.9589379720759901,0.013000686655985305
1658790033415503,0.20465400167849257,0.9732204165712979,0.009948882276646032
1658790033431503,0.21490806439307253,1.0006866559853513,0.0025024795910582043
1658790033447503,0.22015716792553608,0.9988555733577478,-0.0018921187151903496
1658790033463503,0.21942473487449465,0.973464560921645,5.493247882810692E-4
1658790033479502,0.21979095140001537,0.9629663538567179,0.00970473792629889
1658790033495514,0.21564049744411395,0.9678492408636608,0.0109254596780346
1658790033511513,0.2175936522468911,0.9886015106431678,0.008117799649042468
1658790033527513,0.2213778896772718,1.0142366674296177,0.0038452735179674846
1658790033543513,0.22284275577935464,1.0012970168612192,-0.00579842832074462
1658790033559513,0.2225986114290075,0.9680933852140079,-0.0020141908903639205
1658790033575513,0.2225986114290075,0.9690699626153965,0.010193026626993174
1658790033591512,0.21893644617380037,0.9846952010376135,0.016662851911192433
1658790033607512,0.21063553826199755,0.9934843976501107,0.008606088349736751
1658790033623512,0.21576256961928753,0.9848172732127871,0.005065995269703194
1658790033639512,0.22369726100556964,0.9737087052719922,-0.0038452735179674846
1658790033655511,0.23675898374914173,1.024368657969024,0.004943923094529623
1658790033671511,0.22540627145799963,1.009597924773022,0.005920500495918191
1658790033687511,0.22149996185244536,0.9602807660028994,0.013122758831158876
1658790033703511,0.2150301365682461,0.9650415808346686,0.013366903181506018
1658790033719511,0.2368810559243153,1.0077668421454185,0.008972304875257464
1658790033735510,0.23749141680018315,1.0225375753414205,0.005310139620050336
1658790033751510,0.22406347753109035,1.0084992751964599,0.0037232013427939137
1658790033767510,0.22980086976424818,0.9796902418554971,0.0022583352407110624
1658790033783510,0.23749141680018315,0.9671168078126193,0.005310139620050336
1658790033799510,0.2448157473105974,0.9943389028763256,0.013122758831158876
1658790033815521,0.23761348897535672,1.0404821850919355,0.010437170977340315
1658790033831521,0.23663691157396816,1.0364538033112076,-0.001037613488975353
1658790033847520,0.2410315098802167,0.9821316853589686,-0.0020141908903639205
1658790033863520,0.2548256656748302,0.9779812314030671,0.014343480582894585
1658790033879520,0.2586099031052109,1.0199740596627755,0.005310139620050336
1658790033895520,0.2625162127107652,1.0238803692683298,0.003479056992446772
1658790033911520,0.2586099031052109,0.9951934081025406,0.011657892729076025
1658790033927519,0.25934233615625235,1.0041046768902113,0.0039673456931410556
1658790033943519,0.2687418936446173,1.028641184100099,-0.001037613488975353
1658790033959519,0.26691081101701375,0.9933623254749371,0.0060425726710917615
1658790033975519,0.2763103685053787,0.97602807660029,0.015442130159456724
1658790033991519,0.275089646753643,0.983718623636225,0.003479056992446772
1658790034007518,0.2855878538185701,1.0050812542916,0.009582665751125319
1658790034023518,0.2772869459067673,0.9961699855039292,0.003112840466926059
1658790034039518,0.27447928587777515,0.9865262836652171,0.0015259021896696368
1658790034055518,0.30084687571526647,1.004226749065385,0.009094377050431035
1658790034071518,0.2991378652628365,1.0097199969481956,0.007019150072480329
1658790034087517,0.306950484473945,0.9632104982070651,0.016906996261539575
1658790034103517,0.3067063401235979,0.9561303120469979,0.016784924086366004
1658790034119517,0.310368505378805,0.9987335011825742,0.011413748378728883
1658790034135498,0.3209887846189057,1.0291294728007934,0.00970473792629889
1658790034151497,0.33331807431143634,0.9950713359273671,0.014587624933241727
1658790034167497,0.3457694361791406,0.9702906843671322,0.01483176928358887
1658790034183497,0.3234302281223771,0.953566796368353,0.0014038300144960658
1658790034199497,0.34540321965361986,0.9705348287174793,0.007995727473868897
1658790034215497,0.3489433127336534,0.9898222323949035,0.008850232700083893
1658790034231496,0.3585870145723655,0.9911650263218128,0.001159685664148924
1658790034247496,0.36688792248416835,0.9412375066758223,0.011413748378728883
1658790034263496,0.3716487373159376,0.9318379491874573,0.03326466773479808
1658790034279496,0.36688792248416835,0.971755550469215,0.030212863355458808
1658790034295496,0.3778744182497906,0.9826199740596628,0.02935835812924381
1658790034311495,0.3902037079423213,0.9502708476386665,0.025696192874036683
1658790034327495,0.4057068741893648,0.9369649805447473,0.04364080262455161
1658790034343495,0.4141298542763412,0.9481956206607158,0.046570534828717314
1658790034359495,0.426703288319219,0.9506370641641873,0.03997863736934448
1658790034375495,0.43659113450827824,0.9368429083695737,0.04351873044937804
1658790034391494,0.4439154650186925,0.9267109178301673,0.04742504005493231
1658790034407494,0.43781185626001395,0.9164568551155874,0.04766918440527945
1658790034423494,0.4434271763179982,0.9555199511711301,0.04229800869764233
1658790034439494,0.4484321355001146,0.9251239795529109,0.036438544289310926
1658790034455505,0.4783398184176395,0.8728770885786217,0.055970092317082276
1658790034471505,0.4977492942702373,0.8953383688105596,0.07330434119172935
1658790034487505,0.4935988403143359,0.9678492408636608,0.05999847409781012
1658790034503504,0.5045853360799573,0.9307392996108952,0.06549172198062081
1658790034519504,0.509224078736553,0.8607919432364382,0.05767910276951227
1658790034535504,0.5429159990844585,0.8657969024185546,0.07257190814068792
1658790034551504,0.5448691538872357,0.9134050507362481,0.08758678568703715
1658790034567504,0.5170366979476615,0.9217059586480509,0.08294804303044145
1658790034583503,0.5399862668802928,0.8469977874418246,0.0672007324330508
1658790034599503,0.5606164644846263,0.7898680094605934,0.07306019684138221
1658790034615503,0.574654764629587,0.8230716411078047,0.10150301365682424
1658790034631503,0.5694056610971234,0.8803234912642104,0.09600976577401354
1658790034647503,0.5604943923094527,0.8371099412527654,0.08245975432974717
1658790034663502,0.5899137865262833,0.7454337376974136,0.10296787975890709
1658790034679502,0.615060654612039,0.7467765316243229,0.1386129549095907
1658790034695502,0.6168917372396425,0.7973144121461813,0.13971160448615283
1658790034711502,0.6214084077210646,0.8104982070649269,0.1176165407797356
1658790034727501,0.6327611200122076,0.7548332951857786,0.1293354695963993
1658790034743501,0.6620584420538647,0.764965285725185,0.14728007934691423
1658790034759501,0.6862287327382317,0.7390859845883879,0.14959945067521208
1658790034775482,0.683299000534066,0.7140611886778059,0.13580529488059856
1658790034791482,0.674753948271916,0.6825665674830246,0.13287556267643286
1658790034807481,0.6924544136720838,0.6840314335851074,0.16656748302433844
1658790034823481,0.6823224231326774,0.6612039368276497,0.18866254673075478
1658790034839481,0.6693827725642789,0.648020141908904,0.15777828641184133
1658790034855481,0.6842755779354546,0.6626688029297325,0.13995574883649997
1658790034871481,0.7266346227206837,0.6842755779354546,0.15338368810559277
1658790034887480,0.7403067063401236,0.6623025864042118,0.17438010223544698
1658790034903480,0.7536125734340429,0.6322728313115134,0.1843900205996798
1658790034919480,0.7489738307774472,0.608224612802319,0.16827649347676843
1658790034935480,0.7372549019607844,0.5582970931563285,0.16302738994430488
1658790034951480,0.813305867093919,0.6447241931792176,0.19501029983978047
1658790034967479,0.8356450751506825,0.6870832379644467,0.19208056763561476
1658790034983479,0.7906004425116349,0.5739223315785456,0.16192874036774274
1658790034999479,0.7560540169375143,0.45416952773327246,0.1591210803387506
1658790035015479,0.7464103150988022,0.4762645914396888,0.19000534065766406
1658790035031479,0.7582513160906386,0.5961394674601355,0.17267109178301698
1658790035047478,0.7722896162355992,0.5796597238117034,0.14117647058823568
1658790035063478,0.7896238651102463,0.43158617532616184,0.16473640039673487
1658790035079478,0.7737544823376821,0.3692072938124662,0.20526436255436042
1658790035095489,0.7720454718852521,0.45343709468223103,0.23285267414358746
1658790035111489,0.8103761348897534,0.5493858243686578,0.2310215915159839
1658790035127489,0.8394293125810632,0.5728236820019834,0.2188143739986268
1658790035143489,0.8531013962005032,0.4793163958190281,0.19000534065766406
1658790035159488,0.8400396734569311,0.34161898222323916,0.21661707484550252
1658790035175488,0.8539559014267182,0.3263599603265428,0.25677882047760736
1658790035191488,0.8689707789730674,0.44159609369039465,0.2544594491493095
1658790035207488,0.8510261692225525,0.48993667505912875,0.21564049744411395
1658790035223487,0.8421149004348818,0.39044785229266843,0.19330128938735047
1658790035239487,0.850293736171511,0.30341039139391146,0.21490806439307253
1658790035255487,0.8405279621576254,0.31561760891126855,0.241519798580911
1658790035271487,0.8422369726100554,0.34845502403295914,0.24921034561684596
1658790035287487,0.8509040970473789,0.38861676966506487,0.24518196383611812
1658790035303486,0.8566414892805367,0.3443045700770577,0.21441977569237824
1658790035319486,0.8681162737468524,0.2687418936446173,0.22479591058213177
1658790035335486,0.8759288929579618,0.23639276722362101,0.26947432669565874
1658790035351486,0.9068131532768753,0.34161898222323916,0.28363469901579297
1658790035367486,0.9027847714961474,0.4036316472114141,0.24213015945677885
1658790035383485,0.8863050278477154,0.34930952925917413,0.24347295338368813
1658790035399485,0.9015640497444117,0.25348287174792095,0.27948424505989156
1658790035415496,0.8938735027084768,0.2562905317769131,0.3239185168230714
1658790035431496,0.8886243991760132,0.2868085755703058,0.30682841229877145
1658790035447496,0.8867933165484096,0.2609292744335088,0.2931563286793315
1658790035463496,0.8798352025635161,0.27154955367360945,0.27618829633020514
1658790035479496,0.8736095216296631,0.22919050888838033,0.2926680399786372
1658790035495495,0.8905775539787903,0.2838788433661401,0.3263599603265428
1658790035511495,0.8766613260090033,0.3268482490272371,0.3136644541084914
1658790035527495,0.8843518730449382,0.2728923476005187,0.30218966964217575
1658790035543495,0.9070572976272224,0.203677424277104,0.33197528038452706
1658790035559495,0.9049820706492717,0.1398336766613264,0.3637140459296555
1658790035575494,0.8991226062409403,0.1881742580300605,0.37616540779736063
1658790035591494,0.9005874723430232,0.24664682993820097,0.3570000762951091
1658790035607494,0.902906843671321,0.2565346761272602,0.3384451056687263
1658790035623494,0.9341573205157552,0.2533607995727474,0.3327077134355685
1658790035639494,0.9306172274357216,0.19842832074464045,0.34796673533226485
1658790035655493,0.9188982986190588,0.14166475928892996,0.3714045929655905
1658790035671493,0.9230487525749602,0.1553368429083699,0.3683527885862512
1658790035687493,0.9295185778591595,0.17730983443961268,0.3361257343404285
1658790035703493,0.9209735255970095,0.12884718089570502,0.315495536736095
1658790035719493,0.9451438162813766,0.10284580758373352,0.33588158999008133
1658790035735473,0.9521019302662701,0.18756389715419264,0.35211718928816627
1658790035751473,0.935622186617838,0.20172426947432687,0.3218432898451207
1658790035767473,0.9124284733348595,0.08563363088426001,0.33075455863279135
1658790035783473,0.9190203707942324,0.024353398947127403,0.33490501258869276
1658790035799472,0.9234149691004809,0.08050659952697004,0.3411306935225449
1658790035815472,0.914015411612116,0.10223544670786566,0.3157396810864421
1658790035831472,0.9041275654230567,0.026916914625772392,0.30389868009460574
1658790035847472,0.9159685664148931,0.04193179217212162,0.32281986724650924
1658790035863472,0.917433432516976,0.1334859235523007,0.33319600213626277
1658790035879471,0.9030289158464946,0.09820706492713782,0.3375906004425113
1658790035895471,0.9108415350576031,0.04132143129625376,0.3452811474784463
1658790035911471,0.9302510109102009,0.023254749370565264,0.37445639734492975
1658790035927471,0.9511253528648815,0.058533607995727266,0.3688410772869455
1658790035943471,0.945021744106203,0.03265430685893023,0.36444647898069693
1658790035959470,0.9396505683985659,-5.493247882810692E-4,0.3638361181048291
1658790035975470,0.9375753414206152,-0.012024109254596738,0.35394827191576983
1658790035991470,0.936476691844053,0.013366903181506018,0.3544365606164641
1658790036007470,0.9207293812466624,0.005065995269703194,0.34967574578469485
1658790036023470,0.9062027924010074,-0.044129091325245895,0.3502861066605627
1658790036039469,0.9177996490424967,-0.05352864881361086,0.3544365606164641
1658790036055481,0.9002212558175025,-0.06854352635996053,0.35394827191576983
1658790036071480,0.8888685435263604,-0.07281605249103551,0.3611505302510105
1658790036087480,0.9000991836423289,-0.03741512169069949,0.3495536736095213
1658790036103480,0.8902113374532696,-0.08087281605249119,0.34845502403295914
1658790036119480,0.9044937819485774,-0.1388570992599374,0.36261539635309337
1658790036135480,0.9066910811017017,-0.1275043869687953,0.3726253147173262
1658790036151479,0.9112077515831238,-0.0508430609597923,0.3600518806744484
1658790036167479,0.9281757839322502,-0.040222781719691625,0.36176089112687837
1658790036183479,0.9367208361944002,-0.09002822919050901,0.3788509956511792
1658790036199479,0.9256122682536052,-0.16180666819256873,0.397405966277562
1658790036215479,0.9007095445181967,-0.1978179598687726,0.4048523689631498
1658790036231478,0.8932631418326089,-0.15082017242694734,0.39044785229266843
1658790036247478,0.9118181124589917,-0.09112687876707115,0.3607843137254898
1658790036263478,0.9164568551155874,-0.07660028992141621,0.35553521019302625
1658790036279478,0.9213397421225302,-0.11700617990386819,0.37616540779736063
1658790036295477,0.9057145037003131,-0.1841458762493322,0.39838254367895054
1658790036311477,0.8844739452201118,-0.19171435111009405,0.41095597772182835
1658790036327477,0.8878919661249718,-0.14996566720073234,0.39923704890516554
1658790036343477,0.8709239337758445,-0.16925307087815655,0.38068207827878275
1658790036359477,0.8671396963454638,-0.18573281452658863,0.3757991912718399
1658790036375457,0.892652780956741,-0.15826657511253517,0.40460822461280266
1658790036391457,0.8911879148546582,-0.1467917906462195,0.4187685969329369
1658790036407457,0.8905775539787903,-0.21185626001373326,0.4245059891660947
1658790036423457,0.8987563897154196,-0.19208056763561476,0.43244068055237683
1658790036439457,0.8964370183871218,-0.1707179369802394,0.4186465247577633
1658790036455456,0.8826428625925082,-0.2095368886854354,0.40924696726939835
1658790036471456,0.8854505226215004,-0.2263828488593882,0.42853437094682256
1658790036487456,0.8766613260090033,-0.19330128938735047,0.43744563973449324
1658790036503456,0.8748302433813988,-0.20404364080262472,0.45001907377737105
1658790036519456,0.8815442130159461,-0.201113908598459,0.44831006332494105
1658790036535455,0.8832532234683761,-0.22076752880140393,0.4389105058365761
1658790036551455,0.8828870069428554,-0.21063553826199755,0.4434271763179982
1658790036567455,0.8897230487525754,-0.2225986114290075,0.4359807736324104
1658790036583455,0.883009079118029,-0.25812161440451664,0.45587853818570245
1658790036599455,0.8720225833524067,-0.29034866865033937,0.4805371175707638
1658790036615454,0.8424811169604025,-0.30060273136491933,0.4669871061264974
1658790036631454,0.8366216525520711,-0.2965743495841915,0.4530708781567103
1658790036647454,0.8393072404058897,-0.2772869459067673,0.4578316929884796
1658790036663454,0.8327153429465168,-0.28253604943923083,0.46344701304646385
1658790036679453,0.8360112916762032,-0.3031662470435643,0.48322270542458234
1658790036695465,0.8340581368734261,-0.3319752803845275,0.4950637064164187
1658790036711465,0.8412603952086668,-0.3600518806744488,0.4976272220950637
1658790036727464,0.8423590447852289,-0.35907530327306025,0.49823758297093157
1658790036743464,0.8374761577782861,-0.34222934309910746,0.48322270542458234
1658790036759464,0.8390630960555425,-0.3096360723277636,0.48737315938048376
1658790036775464,0.8449225604638739,-0.30011444266422505,0.4745555809872588
1658790036791463,0.839795529106584,-0.3236743724727247,0.4691844052796217
1658790036807463,0.8444342717631796,-0.3277027542534525,0.47431143663691167
1658790036823463,0.8446784161135268,-0.313908598458839,0.4700389105058367
1658790036839463,0.8362554360265504,-0.3020675974670022,0.47150377660791953
1658790036855463,0.8408941786831461,-0.30182345311665504,0.44782177462424677
1658790036871462,0.8472419317921718,-0.29669642175936506,0.45343709468223103
1658790036887462,0.8477302204928661,-0.26446936751354233,0.4507515068284125
1658790036903462,0.851148241397726,-0.2540932326237888,0.44379339284351893
1658790036919462,0.8538338292515446,-0.2637369344625009,0.4356145571068897
1658790036935462,0.8659189745937281,-0.25763332570382236,0.4234073395895326
1658790036951461,0.8831311512932025,-0.21930266269932108,0.42987716487373184
1658790036967461,0.8870374608987568,-0.2318760967421989,0.4431830319676511
1658790036983461,0.877882047760739,-0.25848783093003735,0.4469672693980318
1658790036999461,0.872510872053101,-0.2616617074845502,0.44538033112077535
1658790037015442,0.861402304112306,-0.2255283436331732,0.4376897840848404
1658790037031441,0.8655527580682074,-0.18927290760662263,0.42645914396887186
1658790037047441,0.871656366826886,-0.20721751735713756,0.4271915770199133
1658790037063441,0.8845960173952854,-0.22198825055313964,0.44196231021591537
1658790037079441,0.8712901503013653,-0.21808194094758537,0.44867627985046177
1658790037095440,0.8634775310902567,-0.1957427328908219,0.44037537193865894
1658790037111440,0.8781261921110861,-0.19085984588387905,0.4481879911497675
1658790037127440,0.8745860990310517,-0.17926298924238937,0.4422064545662625
1658790037143440,0.866529335469596,-0.17352559700923154,0.420721751735714
1658790037159440,0.8626230258640417,-0.1669336995498587,0.42230869001297044
1658790037175439,0.8626230258640417,-0.14288548104066523,0.42572671091783043
1658790037191439,0.8612802319371324,-0.1190814068818189,0.426703288319219
1658790037207439,0.8677500572213317,-0.11395437552452892,0.4175478751812012
1658790037223439,0.8689707789730674,-0.15509269855802232,0.41095597772182835
1658790037239439,0.8775158312352183,-0.1362935835812924,0.39459830624856984
1658790037255438,0.8822766460669875,-0.0470588235294116,0.3775082017242699
1658790037271438,0.8853284504463268,-0.036194399938963784,0.3646906233310441
1658790037287438,0.9107194628824296,-0.05889982452124798,0.3654230563820855
1658790037303438,0.898634317540246,-0.016662851911192433,0.3659113450827798
1658790037319438,0.9010757610437174,0.046570534828717314,0.352483405813687
1658790037335449,0.9086442359044788,0.02020294499122599,0.35846494239719195
1658790037351449,0.9125505455100331,0.009216449225604606,0.34161898222323916
1658790037367448,0.9091325246051731,0.08685435263599572,0.30853742275120144
1658790037383448,0.9190203707942324,0.14508278019378995,0.29962615396353076
1658790037399448,0.9243915465018695,0.0957656214236664,0.3053635461966886
1658790037415448,0.9202410925459681,0.09698634317540211,0.3002365148393986
1658790037431448,0.9226825360494395,0.15973144121461846,0.28619821469443796
1658790037447447,0.9466086823834594,0.18866254673075478,0.28656443121995867
1658790037463447,0.9376974135957887,0.13446250095368928,0.269108110170138
1658790037479447,0.9328145265888459,0.10687418936446136,0.2687418936446173
1658790037495447,0.9384298466468302,0.21197833218890683,0.28961623559929794
1658790037511447,0.9257343404287788,0.2780193789578087,0.2544594491493095
1658790037527446,0.9215838864728774,0.2048981460288397,0.23993286030365457
1658790037543446,0.9257343404287788,0.18402380407415908,0.2554360265506981
1658790037559446,0.9328145265888459,0.2448157473105974,0.2637369344625009
1658790037575446,0.906324864576181,0.23883421072709243,0.25897611963073164
1658790037591446,0.903761348897536,0.24933241779201953,0.23871213855191886
1658790037607445,0.9145037003128103,0.24127565423056385,0.23199816891737246
1658790037623445,0.9130388342107274,0.242374303807126,0.25226214999618524
1658790037639445,0.9187762264438852,0.3079270618753336,0.26105134660868234
1658790037655456,0.9019302662699324,0.352483405813687,0.2544594491493095
1658790037671456,0.8999771114671553,0.3074387731746393,0.2494544899671931
1658790037687456,0.9149919890135045,0.2523842221713588,0.2573891813534752
1658790037703456,0.9213397421225302,0.25934233615625235,0.28876173037308295
1658790037719455,0.9043717097734039,0.36176089112687837,0.25848783093003735
1658790037735455,0.8910658426794846,0.387151903562982,0.21905851834897394
1658790037751455,0.8981460288395517,0.3208667124437321,0.21344319829098968
1658790037767455,0.9186541542687117,0.31097886625467286,0.2515297169451438
1658790037783455,0.9031509880216682,0.3900816357671477,0.26483558403906304
1658790037799454,0.8738536659800102,0.38324559395742774,0.24005493247882814
1658790037815454,0.8906996261539639,0.34637979705500843,0.23883421072709243
1658790037831454,0.9154802777141988,0.4093690394445719,0.2461585412375067
1658790037847454,0.9024185549706267,0.419867246509499,0.23260852979324032
1658790037863453,0.8996108949416346,0.3616388189517048,0.23065537499046318
1658790037879453,0.9031509880216682,0.38788433661402344,0.23639276722362101
1658790037895453,0.8987563897154196,0.4364690623331047,0.2348058289463646
1658790037911453,0.8953383688105596,0.4833447775997559,0.2205233844510568
1658790037927453,0.8748302433813988,0.44867627985046177,0.21307698176546896
1658790037943452,0.873365377279316,0.37738612954909634,0.20904859998474112
1658790037959452,0.8863050278477154,0.3657892729076062,0.22064545662623036
1658790037975433,0.895216296635386,0.4704051270313574,0.2238193331807432
1658790037991433,0.8792248416876483,0.5279011215381093,0.21197833218890683
1658790038007433,0.8651865415426867,0.4719920653086138,0.20550850690470757
1658790038023432,0.8720225833524067,0.3910582131685363,0.21783779659723823
1658790038039432,0.8583504997329667,0.4137636377508205,0.23175402456702532
1658790038055432,0.8544441901274125,0.47895017929350736,0.22076752880140393
1658790038071432,0.8416266117341875,0.497261005569543,0.20025940337224402
1658790038087432,0.8473640039673453,0.4574654764629589,0.19513237201495404
1658790038103431,0.8531013962005032,0.46381322957198456,0.20965896086060898
1658790038119431,0.8543221179522389,0.520576791027695,0.2179598687724118
1658790038135431,0.8382085908293275,0.546211947814145,0.204531929503319
1658790038151431,0.8352788586251618,0.48871595330739304,0.18670939192797764
1658790038167431,0.8462653543907832,0.47602044708934166,0.18512245365072122
1658790038183430,0.8432135500114439,0.48493171587701234,0.18829633020523406
1658790038199430,0.8297856107423511,0.5631799801632713,0.17779812314030696
1658790038215430,0.8169680323491262,0.5891813534752419,0.17279316395819055
1658790038231430,0.8300297550926983,0.523994811932555,0.16351567864499916
1658790038247429,0.8452887769893946,0.5029983978027008,0.17145037003128127
1658790038263429,0.8281986724650947,0.4816357671473259,0.17157244220645484
1658790038279429,0.8174563210498205,0.5297322041657129,0.17523460746166197
1658790038295440,0.8008545052262148,0.6309300373846041,0.16449225604638773
1658790038311440,0.8063477531090255,0.6317845426108191,0.1491111619745178
1658790038327440,0.8239261463340197,0.5429159990844585,0.16217288471808988
1658790038343440,0.8253910124361026,0.49958037689784085,0.1826810101472498
1658790038359439,0.8068360418097198,0.5545128557259478,0.18744182497901907
1658790038375439,0.7981689173723963,0.6348363469901583,0.15887693598840347
1658790038391439,0.7998779278248263,0.6320286869611662,0.13495078965438356
1658790038407439,0.8118410009918362,0.5680628671702141,0.14251926451514496
1658790038423439,0.8107423514152741,0.5322957198443579,0.1646143282215613
1658790038439438,0.7794918745708399,0.5932097352559698,0.16095216296635417
1658790038455438,0.7697261005569542,0.6602273594262611,0.13458457312886285
1658790038471438,0.7644769970244907,0.6485084306095983,0.11920347905699202
1658790038487438,0.7859616998550392,0.5862516212710762,0.12176699473563701
1658790038503438,0.7768062867170213,0.5745326924544134,0.14288548104066567
1658790038519437,0.7654535744258792,0.6077363241016247,0.14984359502555922
1658790038535437,0.7620355535210193,0.6653543907835511,0.12957961394674644
1658790038551437,0.7465323872739758,0.6751201647974368,0.11456473640039633
1658790038567437,0.7639887083237964,0.6168917372396425,0.11505302510109061
1658790038583437,0.7630121309224078,0.5905241474021512,0.12506294346532432
1658790038599436,0.7569085221637293,0.6084687571526661,0.1259174486915393
1658790038615448,0.7517814908064393,0.6671854734111546,0.11187914854657777
1658790038631447,0.7450675211718929,0.709178301670863,0.10357824063477494
1658790038647447,0.7582513160906386,0.6748760204470896,0.0949111161974514
1658790038663447,0.7509269855802243,0.6032196536202026,0.10858319981689135
1658790038679447,0.7302967879758908,0.6038300144960704,0.11871519035629774
1658790038695447,0.716014343480583,0.6775616083009082,0.11700617990386775
1658790038711446,0.7241931792172123,0.7346913862821394,0.10052643625543567
1658790038727446,0.7205310139620051,0.7128404669260702,0.08416876478217716
1658790038743446,0.7390859845883879,0.6182345311665518,0.1012588693064771
1658790038759446,0.7234607461661708,0.6620584420538647,0.11187914854657777
1658790038775446,0.7000228885328452,0.7183337148088809,0.08490119783321859
1658790038791445,0.7113756008239873,0.7282215609979401,0.07074082551308436
1658790038807445,0.7105210955977723,0.6826886396581981,0.07330434119172935
1658790038823445,0.7027084763866638,0.6702372777904939,0.08795300221255786
1658790038839445,0.687571526665141,0.7217517357137408,0.08783093003738429
1658790038855445,0.6851300831616696,0.7631342030975814,0.061097123674372256
1658790038871444,0.684153505760281,0.7136949721522852,0.046570534828717314
1658790038887444,0.6994125276569774,0.6558327611200125,0.06976424811169579
1658790038903444,0.6962386511024645,0.7035629816128788,0.08514534218356573
1658790038919444,0.6649881742580304,0.7709468223086899,0.07220569161516721
1658790038935424,0.651438162813764,0.7532463569085222,0.06353856717784367
1658790038951424,0.6758525978484782,0.6913557640955217,0.07464713511863863
1658790038967424,0.6728007934691389,0.7476310368505379,0.0785534447241929
1658790038983424,0.6549782558937975,0.8085450522621498,0.059876401922636546
1658790038999424,0.648874647135119,0.7674067292286564,0.05426108186465228
1658790039015423,0.6496070801861604,0.6964827954528117,0.05523765926604085
1658790039031423,0.6474097810330361,0.7085679407949952,0.06573586633096795
1658790039047423,0.6240939955748832,0.8029297322041655,0.057068741893644415
1658790039063423,0.6041962310215911,0.8274662394140533,0.04180971999694805
1658790039079423,0.6249485008010982,0.7736324101625085,0.03167772945754166
1658790039095422,0.644602121004044,0.7619134813458457,0.05255207141222229
1658790039111422,0.6225070572976268,0.8086671244373234,0.048035400930800165
1658790039127422,0.6087129015030133,0.8433356221866175,0.03729304951552592
1658790039143422,0.6137178606851297,0.7918211642633706,0.02655069810025168
1658790039159422,0.6195773250934611,0.7551995117112993,0.029968719005111666
1658790039175421,0.6156710154879068,0.7996337834744791,0.039124132143129486
1658790039191421,0.5934538796063169,0.8582284275577932,0.0289921416037231
1658790039207421,0.579781795986877,0.8480964370183868,0.013000686655985305
1658790039223421,0.5902800030518041,0.7770504310673685,0.016662851911192433
1658790039239421,0.6045624475471119,0.7771725032425421,0.03424124513618665
1658790039255432,0.5774624246585791,0.8391851682307161,0.032288090333409514
1658790039271432,0.5597619592584113,0.8411383230334932,0.027038986800945963
1658790039287431,0.5540245670252535,0.8064698252841991,0.019836728465705278
1658790039303431,0.5630579079880977,0.7945067521171891,0.012756542305638163
1658790039319431,0.5735561150530248,0.8205081254291597,0.01605249103532458
1658790039335431,0.5582970931563285,0.8688487067978938,0.01873807888914314
1658790039351431,0.5457236591134507,0.8302738994430454,0.00982681010147246
1658790039367430,0.5525597009231706,0.7912108033875027,0.014221408407721015
1658790039383430,0.5589074540321963,0.8043945983062484,0.02264438849469741
1658790039399430,0.5397421225299457,0.8692149233234145,0.013855191882200302
1658790039415430,0.5268024719615472,0.8904554818036168,-1.831082627603564E-4
1658790039431429,0.5165484092469672,0.8291752498664833,0.0014038300144960658
1658790039447429,0.5237506675822079,0.7815671015487906,-0.0016479743648432077
1658790039463429,0.5311970702677957,0.8382085908293275,0.0060425726710917615
1658790039479429,0.5156939040207522,0.8816662851911197,-0.0071412222476539
1658790039495429,0.5084916456855115,0.8827649347676818,-0.03033493553063238
1658790039511428,0.5169146257724879,0.8418707560845347,-0.03692683299000521
1658790039527428,0.5303425650415807,0.8322270542458226,-0.024841687647821686
1658790039543428,0.5202105745021743,0.8766613260090033,-0.0021362630655374915
1658790039559428,0.49909208819714657,0.8993667505912875,-0.006652933546959616
1658790039575409,0.4821240558480202,0.8769054703593504,-0.023743038071259548
1658790039591408,0.4821240558480202,0.8347905699244675,-0.025085831998168828
1658790039607408,0.49542992294193944,0.8646982528419924,-0.03350881208514522
1658790039623408,0.49164568551155874,0.8758068207827883,-0.03533989471274879
1658790039639408,0.47235828183413453,0.8739757381551838,-0.023620965896085977
1658790039655408,0.45587853818570245,0.8775158312352183,-0.034973678187228074
1658790039671407,0.4574654764629589,0.8469977874418246,-0.03582818341344307
1658790039687407,0.4686961165789274,0.861402304112306,-0.015564202334630295
1658790039703407,0.4603952086671246,0.8810559243152518,-0.00323491264209963
1658790039719407,0.43744563973449324,0.9129167620355538,-0.019836728465705278
1658790039735407,0.42902265964751685,0.8997329671168082,-0.0424200808728159
1658790039751406,0.44281681544213036,0.8668955519951167,-0.04388494697489875
1658790039767406,0.45722133211261173,0.880445563439384,-0.02789349202716096
1658790039783406,0.43744563973449324,0.9051041428244453,-0.036316472114137355
1658790039799406,0.4148622873273826,0.9324483100633252,-0.04510566872663446
1658790039815405,0.40595101853971194,0.902906843671321,-0.058533607995727266
1658790039831405,0.4204776073853669,0.880445563439384,-0.06207370107576082
1658790039847405,0.425848783093004,0.9212176699473567,-0.06170748455024011
1658790039863405,0.40924696726939835,0.9442893110551616,-0.062317845426107965
1658790039879405,0.4086366063935305,0.9466086823834594,-0.07598992904554835
1658790039895416,0.40582894636453837,0.8936293583581296,-0.07098496986343195
1658790039911416,0.41596093690394476,0.9058365758754867,-0.05865568017090084
1658790039927415,0.39703974975204126,0.9418478675516901,-0.05169756618600729
1658790039943415,0.3747005416952769,0.9547875181200887,-0.05523765926604085
1658790039959415,0.3733577477683676,0.9197528038452738,-0.0724498359655148
1658790039975415,0.3812924391546506,0.8974135957885103,-0.07208361943999408
1658790039991415,0.3762874799725342,0.917433432516976,-0.05780117494468584
1658790040007414,0.35309376668955483,0.9617456321049822,-0.051941710536354435
1658790040023414,0.3466239414053556,0.9326924544136723,-0.05926604104676869
1658790040039414,0.35590142671854696,0.878736552986954,-0.0669565880827041
1658790040055414,0.3600518806744484,0.9326924544136723,-0.062195773250934394
1658790040071414,0.3466239414053556,0.9279316395819031,-0.05938811322194226
1658790040087413,0.3225757228961621,0.9160906385900667,-0.049378194857709445
1658790040103413,0.3158617532616157,0.9130388342107274,-0.06121919584954583
1658790040119413,0.32452887769893923,0.916578927290761,-0.05499351491569371
1658790040135413,0.3251392385748071,0.9438010223544673,-0.053772793163958
1658790040151413,0.3150072480354007,0.9834744792858778,-0.054505226214999425
1658790040167412,0.31183337148088786,0.9763942931258107,-0.07025253681239052
1658790040183412,0.32233157854581496,0.9440451667048144,-0.07086289768825837
1658790040199412,0.3285572594796671,0.9701686121919586,-0.06707866025787768
1658790040215423,0.32782482642862565,1.0178988326848248,-0.0678110933089191
1658790040231423,0.3136644541084914,1.0006866559853513,-0.07843137254901977
1658790040247423,0.32404058899824495,0.9833524071107043,-0.09515526054779899
1658790040263423,0.3469901579308763,1.0547646295872433,-0.08050659952697048
1658790040279422,0.3440604257267106,1.109452964065003,-0.08734264133669045
1658790040295422,0.3432059205004956,1.0760051880674446,-0.08429083695735118
1658790040311422,0.3208667124437321,1.0227817196917677,-0.0888075074387733
1658790040327422,0.3222095063706414,1.088700694285496,-0.09393453879606328
1658790040343422,0.33038834210727064,1.152666514076448,-0.11468680857557034
1658790040359421,0.3323414969100478,1.1476615548943316,-0.10443274586099038
1658790040375421,0.3352712291142135,1.0896772716868846,-0.09539940489814613
1658790040391421,0.3292896925307085,1.0518348973830776,-0.10064850843060968
1658790040407421,0.3107347219043257,1.0635538261997404,-0.10211337453269254
1658790040423421,0.3217212176699471,1.1115281910429538,-0.09320210574502186
1658790040439420,0.33319600213626277,1.106889448386358,-0.09149309529259186
1658790040455420,0.3268482490272371,1.0487830930037383,-0.08160524910353262
1658790040471420,0.32904554818036136,1.0254673075455862,-0.06671244373235696
1658790040487420,0.32526131074998066,1.0471961547264819,-0.05926604104676869
1658790040503420,0.3352712291142135,1.068802929732204,-0.06756694895857196
1658790040519419,0.35223926146333984,1.0435339894712747,-0.07049668116273766
1658790040535431,0.3690852216372926,1.0192416266117341,-0.058411535820553695
1658790040551430,0.3683527885862512,1.0065461203936827,-0.06073090714885154
1658790040567430,0.3628595407034405,0.9752956435492486,-0.04205386434729519
1658790040583430,0.3653009842069119,0.9561303120469979,-0.03314259555962451
1658790040599430,0.37982757305256776,1.0122835126268406,-0.03790341039139378
1658790040615430,0.39044785229266843,1.0221713588158998,-0.04583810177767589
1658790040631429,0.41559472037842404,0.9696803234912643,-0.04718089570458517
1658790040647429,0.4216983291371026,0.8993667505912875,-0.0357061112382695
1658790040663429,0.4497749294270239,0.9173113603418024,-0.030212863355458808
1658790040679429,0.4564888990615703,0.9418478675516901,-0.032532234683756656
1658790040695428,0.4590524147402153,0.9312275883115895,-0.04486152437628732
1658790040711428,0.455146105134661,0.878736552986954,-0.033875028610665936
1658790040727428,0.46186007476920743,0.8717784390020595,-0.01617456321049815
1658790040743428,0.48017090104524307,0.8992446784161139,-0.010559243152513886
1658790040759428,0.48993667505912875,0.8925307087815675,-0.010559243152513886
1658790040775427,0.5114213778896772,0.8433356221866175,-0.006652933546959616
1658790040791427,0.5457236591134507,0.820996414129854,0.0012817578393224949
1658790040807427,0.5396200503547721,0.8627450980392153,0.010193026626993174
1658790040823427,0.5492637521934842,0.8784924086366068,-0.0012817578393224949
1658790040839427,0.5581750209811549,0.8148928053711755,0.0015259021896696368
1658790040855438,0.5702601663233384,0.7680170901045242,0.01483176928358887
1658790040871438,0.5683070115205613,0.7948729686427098,0.024353398947127403
1658790040887437,0.5785610742351412,0.8505378805218582,0.03546196688792236
1658790040903437,0.5938200961318376,0.8012207217517355,0.03802548256656735
1658790040919437,0.6018768596932933,0.7310292210269322,0.042786297398336615
1658790040935437,0.6297093156328684,0.7421377889677272,0.05169756618600729
1658790040951437,0.6217746242465854,0.7439688715953308,0.05535973144121442
1658790040967436,0.6326390478370341,0.763256275272755,0.05242999923704872
1658790040983436,0.6416723887998783,0.7593499656672007,0.05523765926604085
1658790040999436,0.6632791638056004,0.7207751583123523,0.06561379415579438
1658790041015436,0.6854962996871903,0.686717021438926,0.09430075532158355
1658790041031436,0.6693827725642789,0.6693827725642789,0.10272373540855995
1658790041047435,0.6619363698786911,0.6627908751049061,0.0949111161974514
1658790041063435,0.682444495307851,0.6963607232776381,0.07147325856412579
1658790041079435,0.7088120851453423,0.7138170443274587,0.07977416647592861
1658790041095435,0.729686427100023,0.6753643091477839,0.1129777981231399
1658790041111435,0.7333485923552301,0.5873502708476384,0.12701609826810145
1658790041127434,0.7246814679179066,0.6153047989623861,0.12542915999084503
1658790041143434,0.7166247043564509,0.6306858930342569,0.11419851987487561
1658790041159434,0.7447013046463722,0.6172579537651632,0.11432059205004919
1658790041175415,0.7748531319142442,0.6336156252384226,0.12420843823910843
1658790041191414,0.76240177004654,0.5731898985275041,0.13958953231097926
1658790041207414,0.7613031204699778,0.5062943465323873,0.15509269855802277
1658790041223414,0.7774166475928892,0.5371786068513007,0.16351567864499916
1658790041239414,0.7938963912413213,0.6339818417639433,0.15838864728770918
1658790041255414,0.7940184634164948,0.6233615625238418,0.14129854276340925
1658790041271413,0.7892576485847256,0.49152361333638517,0.1515526054779892
1658790041287413,0.7930418860151063,0.41058976119630763,0.16595712214847058
1658790041303413,0.8091554131380176,0.49066910811017017,0.170107576104372
1658790041319413,0.7992675669489584,0.5539024948500799,0.1596093690394449
1658790041335413,0.796826123445487,0.48285648889906163,0.15606927595941134
1658790041351412,0.8202639810788126,0.4313420309758147,0.1629053177691313
1658790041367412,0.8155031662470433,0.391424429694057,0.17950713359273696
1658790041383412,0.8145265888456548,0.4234073395895326,0.20062561989776473
1658790041399412,0.8004882887006941,0.45123979552910676,0.1957427328908219
1658790041415412,0.8162355992980848,0.46430151827267885,0.1823147936217291
1658790041431411,0.8258793011367969,0.44281681544213036,0.19806210421911974
1658790041447411,0.8563973449301896,0.4055848020141912,0.22711528191042962
1658790041463411,0.8638437476157774,0.37726405737392277,0.25519188220035094
1658790041479411,0.8655527580682074,0.39459830624856984,0.25726710917830165
1658790041495422,0.8498054474708168,0.42645914396887186,0.2153963530937668
1658790041511422,0.8717784390020595,0.3792172121766999,0.21954680704966822
1658790041527422,0.8990005340657667,0.3900816357671477,0.24115358205539028
1658790041543421,0.8866712443732361,0.3976501106279091,0.23590447852292673
1658790041559421,0.8709239337758445,0.3351491569390399,0.23627069504844744
1658790041575421,0.8799572747386897,0.35602349889372054,0.24798962386511025
1658790041591421,0.8721446555275802,0.390569924467842,0.25006485084306096
1658790041607421,0.8695811398489353,0.34711223010604986,0.24225223163195242
1658790041623420,0.8815442130159461,0.29217975127794293,0.24786755168993668
1658790041639420,0.894361791409171,0.3192797741664757,0.24689097428854812
1658790041655420,0.892652780956741,0.37311360341802047,0.25421530479896237
1658790041671420,0.8965590905622953,0.3554131380178527,0.26520180056458376
1658790041687420,0.8958266575112539,0.29889372091248934,0.2783855954833294
1658790041703419,0.8999771114671553,0.2910811017013808,0.2852216372930494
1658790041719419,0.9090104524299996,0.32904554818036136,0.27484550240329586
1658790041735419,0.9049820706492717,0.30267795834287003,0.26813153276874946
1658790041751419,0.9027847714961474,0.27618829633020514,0.2880292973220415
1658790041767418,0.9009536888685439,0.2705729762722209,0.30975814450293715
1658790041783418,0.8908216983291375,0.2809491111619744,0.30341039139391146
1658790041799418,0.8946059357595182,0.3075608453498129,0.2960860608834972
1658790041815429,0.9087663080796524,0.27704280155642014,0.2909590295262072
1658790041831429,0.9289082169832916,0.23370717936980245,0.3136644541084914
1658790041847429,0.9240253299763488,0.18463416495002694,0.3301441977569235
1658790041863429,0.9064469367513546,0.19708552681773117,0.3401541161211563
1658790041879428,0.8964370183871218,0.26935225452048517,0.3318532082093535
1658790041895428,0.9217059586480509,0.30719462882429216,0.31891355764095497
1658790041911428,0.9513694972152287,0.30389868009460574,0.29791714351110077
1658790041927428,0.9633325703822386,0.1876859693293662,0.32269779507133567
1658790041943428,0.9459983215075916,0.051819638361180864,0.3427176317998013
1658790041959427,0.910597390707256,0.020447089341573133,0.35516899366750554
1658790041975427,0.8740978103303574,0.12799267566949002,0.32062256809338496
1658790041991427,0.8803234912642104,0.22784771496147105,0.2876630807965208
1658790042007427,0.9180437933928438,0.2599526970321202,0.28033875028610655
1658790042023427,0.9307392996108952,0.15362783245593992,0.3024338139925229
1658790042039426,0.9180437933928438,0.00848401617456318,0.3540703440909434
1658790042055426,0.9043717097734039,0.03790341039139378,0.37445639734492975
1658790042071426,0.9124284733348595,0.16729991607537986,0.33197528038452706
1658790042087426,0.9326924544136723,0.1801174944686048,0.31488517586022713
1658790042103426,0.9580834668497751,0.10016021972991496,0.3280689707789728
1658790042119425,0.9436789501792937,0.02252231631952384,0.35846494239719195
1658790042135406,0.903761348897536,-0.003112840466926059,0.3587090867475391
1658790042151406,0.905470359349966,0.03448538948653379,0.33160906385900635
1658790042167406,0.9127946898603803,0.07122911421377864,0.3117112993057143
1658790042183406,0.9314717326619366,0.08868543526359929,0.32318608377202995
1658790042199405,0.916578927290761,0.010437170977340315,0.3495536736095213
1658790042215405,0.9015640497444117,-0.04596017395284946,0.3705500877393755
1658790042231405,0.9176775768673231,0.009216449225604606,0.3653009842069119
1658790042247405,0.9273212787060352,0.03668268863965807,0.3561455710688941
1658790042263404,0.9340352483405816,0.010070954451819603,0.3709163042648962
1658790042279404,0.9315938048371102,-0.00982681010147246,0.3872739757381556
1658790042295404,0.9109636072327767,-0.020935378042267416,0.3855649652857256
1658790042311404,0.905470359349966,-0.03314259555962451,0.38104829480430347
1658790042327404,0.9258564126039524,-0.011902037079423167,0.3770199130235756
1658790042343403,0.9333028152895402,0.012878614480811734,0.3964293888761734
1658790042359403,0.9243915465018695,0.008850232700083893,0.3816586556801713
1658790042375403,0.9082780193789581,-0.05511558709086728,0.37994964522774133
1658790042391403,0.9058365758754867,-0.0669565880827041,0.40204470893415767
1658790042407403,0.9124284733348595,-0.0252079041733424,0.3967956054016941
1658790042423402,0.9193865873197531,-0.007507438773174613,0.38495460440985774
1658790042439402,0.9234149691004809,-0.05633630884260299,0.3704280155642019
1658790042455413,0.9325703822384988,-0.08624399176012831,0.37689784084840205
1658790042471413,0.9210955977721831,-0.059632257572289404,0.38861676966506487
1658790042487413,0.9036392767223624,-0.0604867627985044,0.3969176775768677
1658790042503413,0.8964370183871218,-0.08197146562905333,0.4026550698100255
1658790042519413,0.902906843671321,-0.07672236209658978,0.38690775921263487
1658790042535412,0.8980239566643782,-0.07415884641794479,0.37103837644006976
1658790042551412,0.9030289158464946,-0.07660028992141621,0.3797055008773942
1658790042567412,0.9032730601968417,-0.09063859006637687,0.3876401922636763
1658790042583412,0.9145037003128103,-0.08831921873807902,0.39459830624856984
1658790042599412,0.9223163195239188,-0.09222552834363329,0.4035095750362405
1658790042615411,0.9190203707942324,-0.12127870603494317,0.39789425497825626
1658790042631411,0.9170672159914552,-0.12823682001983672,0.39874876020447125
1658790042647411,0.9262226291294731,-0.10431067368581681,0.40094605935759553
1658790042663411,0.9145037003128103,-0.08953994048981473,0.3967956054016941
1658790042679411,0.9207293812466624,-0.07183947508964694,0.39044785229266843
1658790042695410,0.9197528038452738,-0.0955214770733197,0.37982757305256776
1658790042711410,0.9184100099183645,-0.13238727397573813,0.3960631723506527
1658790042727410,0.9036392767223624,-0.11383230334935535,0.40082398718242196
1658790042743410,0.8894789044022282,-0.12713817044327458,0.39252307927061914
1658790042759410,0.8894789044022282,-0.13018997482261385,0.383733882658122
1658790042775390,0.9035172045471889,-0.10663004501411466,0.3738460364690619
1658790042791390,0.9064469367513546,-0.1266498817425803,0.3767757686732285
1658790042807390,0.9070572976272224,-0.18451209277485292,0.38495460440985774
1658790042823390,0.902052338445106,-0.20440985732814543,0.4137636377508205
1658790042839389,0.8889906157015339,-0.1870756084534979,0.42780193789578114
1658790042855389,0.8843518730449382,-0.1660791943236437,0.41718165865568047
1658790042871389,0.8855725947966739,-0.1505760280766002,0.40375371938658766
1658790042887389,0.8869153887235832,-0.19293507286182976,0.41266498817425834
1658790042903389,0.8980239566643782,-0.19769588769359903,0.4196231021591519
1658790042919388,0.9031509880216682,-0.22418554970626392,0.4279240100709547
1658790042935388,0.8894789044022282,-0.2714274814984359,0.4393987945372704
1658790042951388,0.8848401617456325,-0.28241397726405726,0.4435492484931718
1658790042967388,0.8863050278477154,-0.2507972838941024,0.42987716487373184
1658790042983388,0.8920424200808732,-0.22943465323872747,0.43060959792477327
1658790042999387,0.879591058213169,-0.24701304646372169,0.423285267414359
1658790043015387,0.8832532234683761,-0.28448920424200796,0.43903257801174966
1658790043031387,0.8822766460669875,-0.29596398870832363,0.46002899214160387
1658790043047387,0.8766613260090033,-0.3178149080643933,0.45929655909056244
1658790043063387,0.8560311284046689,-0.3239185168230718,0.45001907377737105
1658790043079386,0.858838788433661,-0.2964522774090179,0.45050736247806533
1658790043095398,0.8415045395590139,-0.27447928587777515,0.4304875257495997
1658790043111397,0.849439230945296,-0.3126878767071033,0.4212100404364083
1658790043127397,0.855420767528801,-0.2902265964751658,0.4274357213702604
1658790043143397,0.8593270771343553,-0.26361486228732733,0.42279697871366473
1658790043159397,0.8756847486076147,-0.2964522774090179,0.4157167925535976
1658790043175397,0.8841077286945911,-0.31378652628366543,0.4137636377508205
1658790043191396,0.8944838635843446,-0.2616617074845502,0.4091248950942248
1658790043207396,0.8867933165484096,-0.23358510719462888,0.4022888532845048
1658790043223396,0.8834973678187232,-0.24115358205539028,0.40875867856870407
1658790043239396,0.8889906157015339,-0.2566567483024338,0.4019226367589841
1658790043255396,0.8913099870298318,-0.23212024109254603,0.3964293888761734
1658790043271395,0.882154573891814,-0.21271076523994825,0.37689784084840205
1658790043287395,0.8964370183871218,-0.20880445563439398,0.37518883039597206
1658790043303395,0.8927748531319146,-0.19745174334325188,0.3788509956511792
1658790043319395,0.8944838635843446,-0.2146639200427254,0.39166857404440414
1658790043335394,0.8866712443732361,-0.1981841763942933,0.4010681315327691
1658790043351394,0.8877698939497982,-0.16852063782711513,0.3842221713588163
1658790043367394,0.9040054932478832,-0.15106431677729448,0.36725413900968906
1658790043383394,0.9042496375982303,-0.17511253528648796,0.3583428702220184
1658790043399394,0.9091325246051731,-0.17853055619134794,0.36652170595864764
1658790043415405,0.897779812314031,-0.13995574883649953,0.37567711909666635
1658790043431405,0.9013199053940646,-0.13849088273441668,0.3850766765850313
1658790043447404,0.9051041428244453,-0.12249942778667888,0.3745784695201033
1658790043463404,0.9186541542687117,-0.10638590066376752,0.36054016937514266
1658790043479404,0.9177996490424967,-0.09613183794918756,0.3629816128786141
1658790043495404,0.9207293812466624,-0.07061875333791123,0.3602960250247955
1658790043511404,0.914869916838331,-0.053284504463263715,0.36151674677653123
1658790043527403,0.9280537117570766,-0.056946669718470844,0.3638361181048291
1658790043543403,0.9279316395819031,-0.09246967269398043,0.3623712520027462
1658790043559403,0.9265888456549938,-0.03936827649347663,0.36139467460135766
1658790043575403,0.9184100099183645,0.015930418860151008,0.34125276569771845
1658790043591403,0.9206073090714888,0.0319218738078888,0.3406424048218506
1658790043607402,0.9176775768673231,-0.019104295414663852,0.3330739299610892
1658790043623402,0.9206073090714888,0.0060425726710917615,0.33539330128938705
1658790043639402,0.9107194628824296,0.029602502479590953,0.3229419394216828
1658790043655402,0.9264667734798202,0.05230792706187515,0.32062256809338496
1658790043671402,0.9241474021515224,0.07110704203860507,0.32147707331959996
1658790043687401,0.9085221637293053,0.07122911421377864,0.31183337148088786
1658790043703401,0.9096208133058674,0.05560387579156156,0.31268787670710285
1658790043719401,0.9112077515831238,0.0785534447241929,0.3082932784008543
1658790043735382,0.9242694743266959,0.08172732127870574,0.31134508278019357
1658790043751381,0.9232928969253074,0.15167467765316278,0.30463111314564717
1658790043767381,0.919996948195621,0.17743190661478625,0.278507667658503
1658790043783381,0.9427023727779051,0.1264057373922336,0.29547570000762935
1658790043799381,0.9427023727779051,0.13470664530403642,0.3079270618753336
1658790043815381,0.9357442587930116,0.19171435111009405,0.306950484473945
1658790043831380,0.9113298237582974,0.1826810101472498,0.29303425650415793
1658790043847380,0.9159685664148931,0.170962081330587,0.2704509040970473
1658790043863380,0.9252460517280845,0.1465476462958728,0.2507972838941024
1658790043879380,0.9181658655680174,0.14605935759517852,0.25677882047760736
1658790043895380,0.9119401846341653,0.2200350957503625,0.26141756313420306
1658790043911379,0.9058365758754867,0.3087815671015486,0.2647135118638895
1658790043927379,0.8942397192339975,0.24847791256580454,0.2573891813534752
1658790043943379,0.8997329671168082,0.1911039902342262,0.2536049439230945
1658790043959379,0.9185320820935381,0.20148012512397973,0.2654459449149309
1658790043975379,0.9315938048371102,0.3002365148393986,0.2616617074845502
1658790043991378,0.9093766689555203,0.31635004196231,0.24591439688715955
1658790044007378,0.9124284733348595,0.27789730678263513,0.22955672541390104
1658790044023378,0.9077897306782639,0.2477454795147631,0.23150988021667818
1658790044039378,0.9331807431143666,0.36554512855725907,0.2477454795147631
1658790044055389,0.896925307087816,0.39960326543068625,0.23920042725261315
1658790044071389,0.9004654001678496,0.3620050354772255,0.21429770351720467
1658790044087389,0.9084000915541317,0.3174486915388721,0.20416571297779829
1658790044103388,0.9234149691004809,0.29974822613870433,0.22027924010070965
1658790044119388,0.9193865873197531,0.3707942320897226,0.22796978713664462
1658790044135388,0.877027542534524,0.3955748836499584,0.21075761043717112
1658790044151388,0.8767833981841768,0.39923704890516554,0.19769588769359903
1658790044167388,0.8919203479056996,0.37518883039597206,0.2150301365682461
1658790044183387,0.8979018844892046,0.39459830624856984,0.23871213855191886
1658790044199387,0.862256809338521,0.43707942320897253,0.24139772640573742
1658790044215387,0.8644541084916453,0.4469672693980318,0.23236438544289317
1658790044231387,0.883863584344244,0.4124208438239112,0.2258945601586939
1658790044247387,0.8970473792629896,0.4282902265964754,0.23871213855191886
1658790044263386,0.8755626764324411,0.46857404440375383,0.22662699320973534
1658790044279386,0.8551766231784539,0.4666208896009767,0.21136797131303897
1658790044295386,0.8573739223315782,0.4334172579537654,0.20135805294880615
1658790044311386,0.8717784390020595,0.44367132066834536,0.22504005493247892
1658790044327386,0.8478522926680396,0.46137178606851315,0.23248645761806674
1658790044343385,0.8505378805218582,0.49066910811017017,0.21857022964827966
1658790044359385,0.8418707560845347,0.4812695506218052,0.20172426947432687
1658790044375366,0.8461432822156096,0.4586861982146946,0.19855039291981402
1658790044391366,0.8313725490196076,0.4539253833829253,0.2024567025253683
1658790044407365,0.8233157854581519,0.47980468451972236,0.20563057907988114
1658790044423365,0.821850919356069,0.4889600976577402,0.20587472343022828
1658790044439365,0.8178225375753412,0.5228961623559929,0.20404364080262472
1658790044455365,0.8264896620126647,0.5302204928664072,0.20880445563439398
1658790044471365,0.8308842603189133,0.5355916685740443,0.2007476920729383
1658790044487364,0.831250476844434,0.4884718089570459,0.1948882276646069
1658790044503364,0.8164797436484319,0.5022659647516594,0.20257877470054186
1658790044519364,0.8140383001449605,0.5807583733882655,0.19977111467154973
1658790044535364,0.8015869382772562,0.6104219119554433,0.17779812314030696
1658790044551364,0.8155031662470433,0.5474326695658807,0.1570458533607999
1658790044567363,0.817578393224994,0.5044632639047837,0.1596093690394449
1658790044583363,0.8076905470359348,0.5728236820019834,0.16314946211947845
1658790044599363,0.7914549477378499,0.6475318532082097,0.1633936064698256
1658790044615363,0.7786373693446249,0.6275120164797441,0.14471656366826924
1658790044631363,0.7997558556496527,0.5304646372167543,0.16021972991531275
1658790044647362,0.7787594415197985,0.5482871747920957,0.1558251316090642
1658790044663362,0.7604486152437628,0.6585183489738311,0.12445258258945557
1658790044679362,0.7699702449073014,0.6967269398031588,0.1310444800488293
1658790044695373,0.7716792553597314,0.6354467078660262,0.13592736705577213
1658790044711373,0.7777828641184099,0.5464560921644921,0.14496070801861638
1658790044727373,0.76069275959411,0.598825055313954,0.14898908979934422
1658790044743373,0.7467765316243229,0.7111314564736402,0.13385214007782142
1658790044759372,0.7394522011139086,0.7169909208819716,0.11346608682383419
1658790044775372,0.7625238422217135,0.6112764171816583,0.11725032425421489
1658790044791372,0.7467765316243229,0.5880827038986798,0.1410543984130621
1658790044807372,0.7230945296406501,0.7003891050583659,0.13128862439917643
1658790044823372,0.7094224460212102,0.754711223010605,0.11200122072175134
1658790044839371,0.712596322575723,0.6859845883878846,0.09820706492713782
1658790044855371,0.7277332722972458,0.5980926222629126,0.11139085984588348
1658790044871371,0.7128404669260702,0.7056382085908295,0.1109025711451892
1658790044887371,0.688426031891356,0.7903562981612877,0.09698634317540211
1658790044903370,0.7007553215838866,0.7487296864271,0.0861219195849543
1658790044919370,0.7158922713054094,0.6682841229877168,0.09784084840161711
1658790044935370,0.7051499198901352,0.6676737621118489,0.11615167467765275
1658790044951370,0.6808575570305946,0.7945067521171891,0.09149309529259142
1658790044967370,0.6646219577325096,0.7764400701915006,0.07635614557106862
1658790044983369,0.6813458457312889,0.7146715495536737,0.0726939803158615
1658790044999369,0.6967269398031588,0.7002670328831924,0.09332417792019498
1658790045015380,0.6734111543450068,0.7118638895246816,0.09845120927748496
1658790045031380,0.6542458228427561,0.7914549477378499,0.10455481803616351
1658790045047380,0.6373998626688033,0.8187991149767297,0.0718394750896465
1658790045063380,0.6609597924773025,0.7327382314793622,0.0739147020675972
1658790045079380,0.6635233081559475,0.7069810025177388,0.09759670405126997
1658790045095379,0.636057068741894,0.8007324330510412,0.09112687876707071
1658790045111379,0.6132295719844354,0.8198977645532919,0.07928587777523433
1658790045127379,0.6120088502326997,0.795117112993057,0.050598916609445155
1658790045143379,0.6271457999542234,0.7182116426337073,0.06170748455024011
1658790045159379,0.6388647287708862,0.7366445410849165,0.07830930037384576
1658790045175378,0.6151827267872125,0.815014877546349,0.07342641336690292
1658790045191378,0.5924773022049283,0.8142824444953076,0.0663462272068358
1658790045207378,0.5974822613870447,0.7645990691996642,0.05633630884260299
1658790045223378,0.6010223544670783,0.7210193026626994,0.06317235065232296
1658790045239378,0.5907682917524983,0.8029297322041655,0.07281605249103507
1658790045255377,0.5623254749370563,0.8719005111772331,0.07342641336690292
1658790045271377,0.5794155794613562,0.8219729915312426,0.06659037155718295
1658790045287377,0.5950408178835733,0.751293202105745,0.06182955672541368
1658790045303377,0.6066376745250626,0.7970702677958341,0.06829938200961294
1658790045319377,0.5896696421759362,0.8867933165484096,0.05767910276951227
1658790045335357,0.5691615167467763,0.8913099870298318,0.043030441748683756
1658790045351357,0.560982681010147,0.8136720836194398,0.03411917296101308
1658790045367357,0.5707484550240327,0.7627679865720607,0.035217822537575216
1658790045383357,0.5542687113756006,0.8258793011367969,0.03802548256656735
1658790045399356,0.5357137407492178,0.9035172045471889,0.03045700770580595
1658790045415356,0.5215533684290836,0.873365377279316,0.022278171969176697
1658790045431356,0.5341268024719614,0.7853513389791713,0.02410925459678026
1658790045447356,0.5493858243686578,0.8050049591821162,0.04107728694590662
1658790045463356,0.5263141832608529,0.8921644922560468,0.03582818341344307
1658790045479355,0.5176470588235293,0.8991226062409403,0.040100709544518054
1658790045495355,0.506660563057908,0.8557869840543217,0.04315251392385733
1658790045511355,0.5136186770428015,0.7869382772564277,0.03582818341344307
1658790045527355,0.5120317387655451,0.7918211642633706,0.03924620431830306
1658790045543355,0.4850537880521859,0.8843518730449382,0.028259708552681673
1658790045559354,0.4694285496299688,0.911451895933471,0.02288853284504455
1658790045575354,0.4664988174258031,0.8437018387121382,0.023010605020218122
1658790045591354,0.4793163958190281,0.8020752269779505,0.040100709544518054
1658790045607354,0.4793163958190281,0.8467536430914775,0.05523765926604085
1658790045623354,0.4530708781567103,0.9035172045471889,0.045593957427328746
1658790045639353,0.45258258945601604,0.9145037003128103,0.03326466773479808
1658790045655365,0.45709925993743816,0.8878919661249718,0.03033493553063238
1658790045671364,0.4530708781567103,0.8834973678187232,0.0357061112382695
1658790045687364,0.4518501564049746,0.9204852368963152,0.02642862592507811
1658790045703364,0.4404974441138325,0.9271992065308616,0.01861600671396957
1658790045719364,0.4393987945372704,0.901197833218891,4.272526131074983E-4
1658790045735364,0.43439383535515397,0.9126726176852067,-0.001159685664148924
1658790045751363,0.4195010299839783,0.9470969710841537,-0.011169604028381741
1658790045767363,0.4099794003204398,0.9438010223544673,-0.01629663538567172
1658790045783363,0.42096589608606116,0.9176775768673231,-0.0036011291676203427
1658790045799363,0.42694743266956614,0.9235370412756545,0.010193026626993174
1658790045815363,0.40302128633554624,0.9474631876096744,0.0042114900434881974
1658790045831362,0.39374380102235484,0.9472190432593273,0.008239871824216038
1658790045847362,0.3793392843518735,0.9333028152895402,-0.015075913633936011
1658790045863362,0.38117036697947704,0.9092545967803467,-0.010559243152513886
1658790045879362,0.3917906462195777,0.9341573205157552,-0.009460593575951748
1658790045895362,0.3778744182497906,0.9387960631723509,-0.010315098802166744
1658790045911361,0.3709163042648962,0.9158464942397195,-0.012146181429770309
1658790045927361,0.3549248493171584,0.8661631189440753,-0.015564202334630295
1658790045943361,0.3477225909819177,0.8572518501564046,-0.009094377050431035
1658790045959361,0.3355153734645606,0.951003280689708,-0.0071412222476539
1658790045975341,0.3392996108949413,1.0183871213855191,-0.004821850919356052
1658790045991341,0.3352712291142135,0.9600366216525522,0.0039673456931410556
1658790046007341,0.33588158999008133,0.8721446555275802,0.0014038300144960658
1658790046023341,0.33832303349355275,0.8567635614557103,-0.006897077897306758
1658790046039341,0.3150072480354007,0.9453879606317237,-0.02032501716639956
1658790046055340,0.3217212176699471,1.039505607690547,-0.03997863736934448
1658790046071340,0.31305409323262356,0.9899443045700771,-0.03851377126726163
1658790046087340,0.31818112458991354,0.8783703364614333,-0.02276646066987098
1658790046103340,0.31305409323262356,0.9052262149996189,-0.027649347676813818
1658790046119340,0.312077515831235,0.9997100785839628,-0.03851377126726163
1658790046135339,0.3414969100480656,1.0675822079804682,-0.043030441748683756
1658790046151339,0.3347829404135192,1.0727092393377582,-0.04693675135423803
1658790046167339,0.3187914854657814,1.0208285648889905,-0.06305027847714983
1658790046183339,0.3029221026932172,1.0373083085374226,-0.0686655985351341
1658790046199339,0.30939192797741644,1.0766155489433125,-0.07940794995040834
1658790046215338,0.32831311512931993,1.0902876325627524,-0.050476844434271584
1658790046231338,0.3242847333485921,1.0651407644769968,-0.05426108186465228
1658790046247338,0.3031662470435643,1.0434119172961012,-0.0613412680247194
1658790046263338,0.2814373998626687,1.040604257267109,-0.08355840390630975
1658790046279338,0.2835126268406194,1.1149462119478137,-0.08551155870908689
1658790046295349,0.3014572365911343,1.1349660486762803,-0.0838025482566569
1658790046311349,0.30389868009460574,1.059403372243839,-0.04693675135423803
1658790046327348,0.3100022888532843,1.025223163195239,-0.024353398947127403
1658790046343348,0.29803921568627434,1.0657511253528646,-0.03985656519417091
1658790046359348,0.3079270618753336,1.0834515907530324,-0.03558403906309593
1658790046375348,0.3065842679484243,1.0694132906080718,-0.03802548256656735
1658790046391348,0.3040207522697793,1.0291294728007934,-0.02545204852368954
1658790046407347,0.29462119478141435,1.0146028839551384,-0.030823224231326662
1658790046423347,0.29962615396353076,1.0197299153124284,-0.029846646829938095
1658790046439347,0.32489509422445995,1.050003814755474,-0.036438544289310926
1658790046455347,0.3418631265735863,1.0150911726558327,-0.032288090333409514
1658790046471346,0.34967574578469485,0.9783474479285879,-0.00579842832074462
1658790046487346,0.33832303349355275,0.9993438620584421,-0.0015259021896696368
1658790046503346,0.3477225909819177,0.9993438620584421,-0.005310139620050336
1658790046519346,0.3670099946593419,0.9676050965133136,0.0026245517662317752
1658790046535346,0.3766536964980549,0.9816433966582743,0.011413748378728883
1658790046551345,0.37018387121385476,1.002517738612955,0.0039673456931410556
1658790046567345,0.37482261387045046,0.941603723201343,0.003479056992446772
1658790046583345,0.3919127183947513,0.9208514534218359,-0.003112840466926059
1658790046599345,0.40875867856870407,0.9323262378881516,0.004333562218661768
1658790046615356,0.4069275959411005,0.9472190432593273,0.006408789196612474
1658790046631356,0.39960326543068625,0.9326924544136723,0.00982681010147246
1658790046647356,0.42487220569161543,0.8792248416876483,0.015075913633936011
1658790046663355,0.44245059891660965,0.9262226291294731,0.017151140611886717
1658790046679355,0.44379339284351893,0.9588158999008165,0.024475471122300974
1658790046695355,0.456855115587091,0.9154802777141988,0.02276646066987098
1658790046711355,0.47772945754177165,0.8739757381551838,0.025696192874036683
1658790046727355,0.4905470359349966,0.8510261692225525,0.03326466773479808
1658790046743354,0.48187991149767306,0.9030289158464946,0.028381780727855244
1658790046759354,0.4729686427100024,0.8764171816586561,0.03155565728236809
1658790046775354,0.4901808194094759,0.8736095216296631,0.05133134966048658
1658790046791354,0.4934767681391623,0.8721446555275802,0.04583810177767589
1658790046807354,0.4922560463874266,0.8194094758525976,0.03692683299000521
1658790046823353,0.5136186770428015,0.8344243533989468,0.04571602960250232
1658790046839353,0.5279011215381093,0.8649423971923396,0.04779125658045302
1658790046855353,0.5507286182955671,0.8482185091935603,0.05816739147020655
1658790046871353,0.5554894331273363,0.8129396505683983,0.05682459754329727
1658790046887353,0.5596398870832378,0.8021972991531241,0.05877775234607441
1658790046903352,0.5716029602502477,0.8302738994430454,0.06170748455024011
1658790046919352,0.5673304341191727,0.8529793240253296,0.07257190814068792
1658790046935333,0.5611047531853206,0.8190432593270769,0.07794308384832505
1658790046951333,0.5756313420309755,0.74702067597467,0.08209353780422646
1658790046967332,0.6101777676050961,0.7733882658121614,0.08209353780422646
1658790046983332,0.6059052414740211,0.8137941557946133,0.06353856717784367
1658790046999332,0.6070038910505833,0.8084229800869762,0.07989623865110218
1658790047015332,0.6143282215609975,0.7565423056382086,0.08770885786221072
1658790047031332,0.6444800488288704,0.7462882429236286,0.10431067368581637
1658790047047331,0.6502174410620283,0.790844586861982,0.11322194247348705
1658790047063331,0.6515602349889376,0.759838254367895,0.12127870603494273
1658790047079331,0.673899443045701,0.7621576256961928,0.12884718089570502
1658790047095331,0.6883039597161824,0.7510490577553979,0.09906157015335282
1658790047111331,0.696116578927291,0.7071030746929123,0.0957656214236664
1658790047127330,0.6881818875410088,0.6792706187533382,0.10260166323338638
1658790047143330,0.6869611657892731,0.7144274052033266,0.11493095292591704
1658790047159330,0.6966048676279852,0.7184557869840544,0.11969176775768631
1658790047175330,0.7063706416418709,0.6674296177615018,0.13287556267643286
1658790047191330,0.717723353933013,0.6601052872510875,0.1432516975661864
1658790047207329,0.7129625391012437,0.649729152361334,0.15057602807660064
1658790047223329,0.7276112001220723,0.6732890821698332,0.15252918287937778
1658790047239329,0.7532463569085222,0.6641336690318154,0.13910124361028497
1658790047255340,0.76752880140383,0.5713588158999006,0.15899900816357704
1658790047271340,0.7610589761196307,0.5446250095368885,0.16815442130159486
1658790047287340,0.7532463569085222,0.6129854276340883,0.15948729686427132
1658790047303340,0.7534905012588693,0.6743877317463953,0.1579003585870149
1658790047319339,0.7655756466010528,0.5840543221179519,0.16595712214847058
1658790047335339,0.7775387197680628,0.48859388113221947,0.1768215457389184
1658790047351339,0.7687495231555657,0.48285648889906163,0.17169451438162842
1658790047367339,0.7539787899595636,0.5247272449835965,0.1511863889524685
1658790047383339,0.7870603494316013,0.546211947814145,0.15521477073319634
1658790047399338,0.8228274967574576,0.5640344853894863,0.15082017242694779
1658790047415338,0.8279545281147476,0.5165484092469672,0.18414587624933265
1658790047431338,0.8316166933699547,0.5676966506446934,0.19562066071564832
1658790047447338,0.8323491264209961,0.5364461738002593,0.1847562371252005
1658790047463338,0.8819104295414668,0.44538033112077535,0.21832608529793252
1658790047479337,0.8694590676737617,0.38287937743190703,0.2246738384069582
1658790047495337,0.8325932707713433,0.312077515831235,0.21258869306477468
1658790047511337,0.8247806515602347,0.3389333943694206,0.18023956664377838
1658790047527337,0.8014648661020827,0.4456244754711225,0.14642557412069923
1658790047543336,0.8202639810788126,0.5076371404592965,0.14044403753719426
1658790047559336,0.8228274967574576,0.42487220569161543,0.18487830930037408
1658790047575348,0.8245365072098876,0.3562676432440677,0.21551842526894038
1658790047591347,0.8379644464789804,0.3100022888532843,0.23651483939879459
1658790047607347,0.8750743877317468,0.3621271076523991,0.24640268558785383
1658790047623347,0.9013199053940646,0.4489204242008089,0.23163195239185175
1658790047639347,0.8939955748836503,0.42401770046540044,0.22504005493247892
1658790047655346,0.8990005340657667,0.3792172121766999,0.2108796826123447
1658790047671346,0.9084000915541317,0.3449149309529256,0.2296787975890746
1658790047687346,0.9115739681086446,0.37640955214770777,0.2439612420843824
1658790047703346,0.8953383688105596,0.3515068284122984,0.23700312809948887
1658790047719346,0.8827649347676818,0.26446936751354233,0.202822919050889
1658790047735345,0.8711680781261917,0.28119325551232155,0.19940489814602902
1658790047751345,0.8727550164034481,0.397405966277562,0.20294499122606258
1658790047767345,0.866529335469596,0.39447623407339627,0.2234531166552225
1658790047783345,0.8944838635843446,0.3360036621652549,0.25348287174792095
1658790047799345,0.8871595330739304,0.2427405203326467,0.26276035706111234
1658790047815344,0.9035172045471889,0.23456168459601745,0.2871747920958265
1658790047831344,0.9269550621805145,0.3554131380178527,0.27154955367360945
1658790047847344,0.9274433508812088,0.44867627985046177,0.2453040360112917
1658790047863344,0.9298847943846802,0.38483253223468417,0.2544594491493095
1658790047879344,0.931349660486763,0.25519188220035094,0.29462119478141435
1658790047895324,0.9142595559624631,0.2516517891203174,0.2991378652628365
1658790047911324,0.9146257724879838,0.2503089951934081,0.281071183337148
1658790047927324,0.9220721751735717,0.29340047302967864,0.23639276722362101
1658790047943324,0.9098649576562146,0.25897611963073164,0.23199816891737246
1658790047959324,0.8902113374532696,0.24335088120851456,0.2653238727397573
1658790047975323,0.8655527580682074,0.2637369344625009,0.2936446173800258
1658790047991323,0.8781261921110861,0.28204776073853655,0.31805905241474
1658790048007323,0.8998550392919817,0.3153734645609214,0.3158617532616157
1658790048023323,0.9213397421225302,0.2590981918059052,0.29010452429999223
1658790048039322,0.9599145494773786,0.18963912413214334,0.305241474021515
1658790048055322,0.9434348058289466,0.18243686579690266,0.31866941329060783
1658790048071322,0.9420920119020373,0.2586099031052109,0.313786526283665
1658790048087322,0.9124284733348595,0.25470359349965666,0.3023117418173493
1658790048103322,0.9136491950865953,0.21222247653925397,0.30634012359807716
1658790048119321,0.9348897535667966,0.20270084687571543,0.3313649195086592
1658790048135321,0.9221942473487452,0.14679179064621994,0.3347829404135192
1658790048151321,0.9224383916990924,0.13165484092469715,0.33661402304112276
1658790048167321,0.9060807202258339,0.1663233386739913,0.3124437323567557
1658790048183321,0.9129167620355538,0.23639276722362101,0.30426489662012646
1658790048199320,0.9213397421225302,0.2213778896772718,0.3062180514229036
1658790048215332,0.9376974135957887,0.13922331578545855,0.3427176317998013
1658790048231331,0.9209735255970095,0.07159533073929936,0.37189288166628476
1658790048247331,0.9047379262989246,0.040100709544518054,0.37409018081940903
1658790048263331,0.9219501029983981,0.1734035248340584,0.33588158999008133
1658790048279331,0.9389181353475244,0.20563057907988114,0.30133516441596075
1658790048295331,0.9577172503242544,0.14215304798962425,0.3229419394216828
1658790048311330,0.9524681467917908,0.059632257572289404,0.3368581673914699
1658790048327330,0.9190203707942324,-0.024719615472648115,0.3670099946593419
1658790048343330,0.9049820706492717,0.0394903486686502,0.35980773632410123
1658790048359330,0.8919203479056996,0.09295796139467427,0.3259937438010221
1658790048375330,0.906324864576181,0.08551155870908644,0.3267261768520635
1658790048391329,0.9065690089265281,0.05169756618600729,0.33075455863279135
1658790048407329,0.9221942473487452,-0.009460593575951748,0.3497978179598684
1658790048423329,0.9427023727779051,0.022400244144350268,0.37824063477531134
1658790048439329,0.9505149919890137,0.07525749599450648,0.36395819028000265
1658790048455329,0.9401388570992602,0.04718089570458517,0.3489433127336534
1658790048471328,0.950148775463493,0.01104753185320817,0.3595635919737541
1658790048487328,0.9385519188220037,0.005554283970397478,0.36273746852826694
1658790048503328,0.9268329900053409,6.713969634546402E-4,0.349065384908827
1658790048519328,0.9337911039902345,0.034851606012054503,0.33575951781490776
1658790048535308,0.9250019073777374,0.01373311970702673,0.3195239185168228
1658790048551308,0.9282978561074238,-0.03302052338445094,0.3292896925307085
1658790048567308,0.9271992065308616,-0.019226367589837423,0.3457694361791406
1658790048583308,0.9158464942397195,0.0012817578393224949,0.33588158999008133
1658790048599308,0.9169451438162817,-0.007263294422827471,0.3372243839169906
1658790048615307,0.9214618142977038,-0.04217593652246876,0.3402761882963299
1658790048631307,0.9334248874647137,-0.06890974288548124,0.350774395361257
1658790048647307,0.938185702296483,-0.021789883268482413,0.35297169451438126
1658790048663307,0.9408712901503016,0.021179522392614558,0.342229343099107
1658790048679307,0.9442893110551616,0.02398718242160669,0.32697032120241065
1658790048695306,0.951857785915923,-0.03070115205615309,0.33624780651560204
1658790048711306,0.9483176928358894,-0.06414892805371197,0.35797665369649767
1658790048727306,0.9372091248950944,-0.07354848554207694,0.35419241626611697
1658790048743306,0.9459983215075916,-0.058289463645380124,0.3335622186617835
1658790048759306,0.954421301594568,-0.008117799649042468,0.30353246356908503
1658790048775305,0.9536888685435265,-0.005065995269703194,0.3014572365911343
1658790048791305,0.9435568780041201,-0.07769893949797835,0.3187914854657814
1658790048807305,0.9228046082246131,-0.1039444571602961,0.3495536736095213
1658790048823305,0.9043717097734039,-0.05267414358739586,0.3394216830701149
1658790048839305,0.9096208133058674,-0.06195162890058725,0.315495536736095
1658790048855316,0.9359884031433587,-0.06012054627298369,0.31476310368505356
1658790048871316,0.9507591363393608,-0.06451514457923269,0.3251392385748071
1658790048887315,0.9490501258869308,-0.08050659952697048,0.3570000762951091
1658790048903315,0.9312275883115895,-0.09002822919050901,0.3671320668345155
1658790048919315,0.9208514534218359,-0.11090257114518964,0.3695735103379869
1658790048935315,0.939040207522698,-0.05938811322194226,0.35309376668955483
1658790048951315,0.9419699397268637,-0.04827954528114731,0.34247348744945416
1658790048967314,0.9289082169832916,-0.09124895094224472,0.3574883649958034
1658790048983314,0.9137712672617688,-0.12372014953841459,0.3726253147173262
1658790048999314,0.9008316166933703,-0.1342183566033417,0.37567711909666635
1658790049015314,0.9065690089265281,-0.12945754177157243,0.3709163042648962
1658790049031314,0.9127946898603803,-0.14728007934691378,0.37738612954909634
1658790049047313,0.9212176699473567,-0.13141069657434956,0.3607843137254898
1658790049063313,0.9103532463569088,-0.13824673838406953,0.35468070496681126
1658790049079313,0.9027847714961474,-0.15948729686427088,0.3738460364690619
1658790049095313,0.9014419775692382,-0.17425803006027296,0.39496452277409055
1658790049111312,0.8996108949416346,-0.1762111848630501,0.4082703898680098
1658790049127312,0.9051041428244453,-0.15960936903944445,0.392278934920272
1658790049143312,0.9142595559624631,-0.14996566720073234,0.3594415197985805
1658790049159312,0.9121843289845124,-0.1552147707331959,0.3495536736095213
1658790049175323,0.9164568551155874,-0.1914702067597469,0.3638361181048291
1658790049191323,0.9142595559624631,-0.2360265506981003,0.389715419241627
1658790049207323,0.9160906385900667,-0.2418860151064317,0.38861676966506487
1658790049223322,0.908033875028611,-0.2503089951934081,0.3952086671244377
1658790049239322,0.8996108949416346,-0.243228809033341,0.3784847791256585
1658790049255322,0.9030289158464946,-0.2339513237201496,0.3851987487602049
1658790049271322,0.9025406271458003,-0.20062561989776473,0.38861676966506487
1658790049287322,0.8920424200808732,-0.22955672541390104,0.4061951628900591
1658790049303321,0.8870374608987568,-0.2755779354543373,0.42951094834821113
1658790049319321,0.8748302433813988,-0.29803921568627434,0.4304875257495997
1658790049335321,0.8852063782711532,-0.28546578164339653,0.4329289692530711
1658790049351321,0.8858167391470211,-0.2695963988708323,0.41852445258258975
1658790049367321,0.8848401617456325,-0.2628824292362859,0.39618524452582626
1658790049383320,0.8865491721980625,-0.27277027542534515,0.3980163271534298
1658790049399320,0.8816662851911197,-0.26849774929427017,0.4061951628900591
1658790049415320,0.8832532234683761,-0.23492790112153816,0.4186465247577633
1658790049431320,0.8860608834973682,-0.23651483939879459,0.4170595864805069
1658790049447320,0.8814221408407725,-0.26190585183489734,0.41058976119630763
1658790049463319,0.8877698939497982,-0.2623941405355916,0.389715419241627
1658790049479319,0.8933852140077825,-0.23956664377813386,0.3843442435339899
1658790049495300,0.899488822766461,-0.19794003204394617,0.39325551232166056
1658790049511300,0.8896009765774018,-0.18915083543144906,0.40424200808728195
1658790049527300,0.8904554818036168,-0.21136797131303897,0.40888075074387764
1658790049543299,0.8894789044022282,-0.21234454871442754,0.39618524452582626
1658790049559299,0.9098649576562146,-0.19134813458457334,0.3784847791256585
1658790049575299,0.9152361333638517,-0.16473640039673443,0.3793392843518735
1658790049591299,0.9127946898603803,-0.16205081254291587,0.388860914015412
1658790049607298,0.9051041428244453,-0.15545891508354304,0.3842221713588163
1658790049623298,0.9043717097734039,-0.1342183566033417,0.38654154268711416
1658790049639298,0.9019302662699324,-0.1392233157854581,0.3793392843518735
1658790049655298,0.913160906385901,-0.12921339742122528,0.3583428702220184
1658790049671298,0.9209735255970095,-0.10235751888303968,0.3432059205004956
1658790049687297,0.9254901960784316,-0.10443274586099038,0.3495536736095213
1658790049703297,0.9175555046921495,-0.08099488822766476,0.3646906233310441
1658790049719297,0.9173113603418024,-0.06475928892957983,0.3645685511558705
1658790049735297,0.9120622568093388,-0.04193179217212162,0.35895323109788624
1658790049751297,0.9256122682536052,-0.04596017395284946,0.33575951781490776
1658790049767296,0.9314717326619366,-0.04644846265354374,0.33295185778591563
1658790049783296,0.9341573205157552,-0.026306553749904538,0.33026626993209707
1658790049799296,0.9252460517280845,-0.03595025558861664,0.34210727092393345
1658790049815307,0.915724422064546,-0.04608224612802303,0.33966582742046203
1658790049831307,0.9152361333638517,-0.0036011291676203427,0.31781490806439283
1658790049847307,0.9203631647211417,0.032532234683756656,0.30890363927672215
1658790049863307,0.9273212787060352,0.0386358434424352,0.313786526283665
1658790049879306,0.943312733653773,0.029602502479590953,0.3355153734645606
1658790049895306,0.9285420004577709,0.06549172198062081,0.3351491569390399
1658790049911306,0.9081559472037846,0.07306019684138221,0.3087815671015486
1658790049927306,0.9091325246051731,0.02423132677195383,0.2881513694972151
1658790049943306,0.9333028152895402,0.0726939803158615,0.2918135347524222
1658790049959305,0.9408712901503016,0.1486228732738235,0.281925688563363
1658790049975305,0.9340352483405816,0.16742198825055343,0.28326848249027226
1658790049991305,0.9262226291294731,0.14215304798962425,0.2764324406805523
1658790050007305,0.9278095674067295,0.0936903944457157,0.2671549553673609
1658790050023305,0.9474631876096744,0.10308995193408066,0.27496757457846943
1658790050039304,0.9427023727779051,0.23712520027466244,0.25690089265278093
1658790050055304,0.9306172274357216,0.27875181200885013,0.24432745860990313
1658790050071304,0.9198748760204474,0.16192874036774274,0.2562905317769131
1658790050087304,0.9264667734798202,0.13751430533302855,0.26813153276874946
1658790050103304,0.9173113603418024,0.27862973983367656,0.24798962386511025
1658790050119303,0.9129167620355538,0.33624780651560204,0.24554818036163883
1658790050135284,0.9226825360494395,0.3205004959182114,0.2318760967421989
1658790050151284,0.9490501258869308,0.24225223163195242,0.23077744716563675
1658790050167284,0.9534447241931794,0.2234531166552225,0.23504997329671173
1658790050183283,0.9442893110551616,0.21576256961928753,0.23932249942778672
1658790050199283,0.9185320820935381,0.2609292744335088,0.23041123064011604
1658790050215283,0.9070572976272224,0.3327077134355685,0.20856031128404684
1658790050231283,0.8976577401388575,0.32697032120241065,0.2083161669336997
1658790050247283,0.895216296635386,0.31976806286716997,0.22455176623178463
1658790050263282,0.9206073090714888,0.3285572594796671,0.23553826199740602
1658790050279282,0.9290302891584652,0.30780498970016,0.23822384985122458
1658790050295282,0.9274433508812088,0.2985275043869686,0.23212024109254603
1658790050311282,0.9269550621805145,0.3058518348973829,0.2251621271076525
1658790050327282,0.9159685664148931,0.346501869230182,0.21686121919584966
1658790050343281,0.9179217212176702,0.3875181200885027,0.21612878614480824
1658790050359281,0.9119401846341653,0.3898374914168006,0.22101167315175108
1658790050375281,0.9038834210727096,0.3308766308079649,0.22442969405661106
1658790050391281,0.8985122453650725,0.2840009155413137,0.22125581750209822
1658790050407281,0.8993667505912875,0.33710231174181704,0.22027924010070965
1658790050423280,0.8980239566643782,0.46430151827267885,0.21258869306477468
1658790050439280,0.881300068665599,0.4481879911497675,0.22040131227588322
1658790050455291,0.8892347600518811,0.36310368505378765,0.2246738384069582
1658790050471291,0.8979018844892046,0.36566720073243264,0.23675898374914173
1658790050487291,0.8910658426794846,0.4220645456626233,0.22748149843595034
1658790050503291,0.8949721522850389,0.4329289692530711,0.2191805905241475
1658790050519291,0.8941176470588239,0.3993591210803391,0.20697337300679042
1658790050535290,0.8914320592050053,0.38568703746089916,0.19720759899290474
1658790050551290,0.874219882505531,0.4263370717936983,0.19708552681773117
1658790050567290,0.8751964599069204,0.5183794918745708,0.19549858854047475
1658790050583290,0.8721446555275802,0.494697489890898,0.20440985732814543
1658790050599290,0.8841077286945911,0.37018387121385476,0.20978103303578255
1658790050615289,0.8822766460669875,0.3717708094911112,0.22504005493247892
1658790050631289,0.8711680781261917,0.4968947890440223,0.2191805905241475
1658790050647289,0.8518806744487675,0.5476768139162278,0.19354543373769761
1658790050663289,0.8693369954985881,0.4694285496299688,0.19415579461356547
1658790050679288,0.8745860990310517,0.3850766765850313,0.204531929503319
1658790050695288,0.867383840695811,0.42902265964751685,0.22577248798352034
1658790050711288,0.8371099412527654,0.5352254520485236,0.2091706721599147
1658790050727288,0.8311284046692604,0.5154497596704051,0.19537651636530118
1658790050743288,0.857984283207446,0.4547798886091403,0.19513237201495404
1658790050759287,0.8583504997329667,0.4329289692530711,0.20770580605783184
1658790050775299,0.834668497749294,0.4850537880521859,0.21173418783855968
1658790050791298,0.8128175783932248,0.5456015869382771,0.20343327992675686
1658790050807298,0.8187991149767297,0.5133745326924544,0.18512245365072122
1658790050823298,0.8378423743038068,0.4597848477912567,0.19562066071564832
1658790050839298,0.8388189517051954,0.5033646143282215,0.1990386816205083
1658790050855298,0.8177004654001676,0.5598840314335849,0.1940337224383919
1658790050871297,0.8084229800869762,0.5279011215381093,0.1797512779430841
1658790050887297,0.8255130846112761,0.4883497367818723,0.18072785534447267
1658790050903297,0.8302738994430454,0.5060502021820401,0.18072785534447267
1658790050919297,0.814160372320134,0.5546349279011213,0.1763332570382241
1658790050935297,0.795971618219272,0.5868619821469441,0.1721828030823227
1658790050951296,0.8063477531090255,0.559273670557717,0.16351567864499916
1658790050967296,0.8181887541008619,0.5403524834058135,0.17730983443961268
1658790050983296,0.8118410009918362,0.5590295262073699,0.17084000915541342
1658790050999296,0.795117112993057,0.5604943923094527,0.1696192874036777
1658790051015296,0.794262607766842,0.5634241245136185,0.16058594644083346
1658790051031295,0.7946288242923627,0.6046845197222854,0.1494773785000385
