Timestamp (microseconds),Accel X (g),Accel Y (g),Accel Z (g)
1658790028789337,0.21356527046616325,-0.4306095979247728,0.9250019073777374
1658790028805335,0.21734950789654395,-0.41290913252460504,0.9163347829404138
1658790028821333,0.21234454871442754,-0.41120012207217504,0.9058365758754867
1658790028837330,0.2133211261158161,-0.4130312046997786,0.906324864576181
1658790028853328,0.2112458991378654,-0.43463797970550067,0.9196307316701002
1658790028869326,0.21649500267032895,-0.4198672465094986,0.9119401846341653
1658790028885324,0.21844815747310609,-0.41461814297703503,0.9093766689555203
1658790028901322,0.2188143739986268,-0.4122987716487372,0.9120622568093388
1658790028917320,0.21661707484550252,-0.42792401007095426,0.9126726176852067
1658790028933318,0.21820401312275894,-0.4269474326695657,0.8961928740367746
1658790028949316,0.21942473487449465,-0.4131532768749522,0.9024185549706267
1658790028965314,0.22369726100556964,-0.4148622873273822,0.9075455863279167
1658790028981311,0.2175936522468911,-0.40704966811627363,0.9015640497444117
1658790028997309,0.2112458991378654,-0.42743572137026,0.9104753185320824
1658790029013307,0.21014724956130326,-0.4278019378957807,0.9107194628824296
1658790029029305,0.2083161669336997,-0.4193789578088043,0.8982681010147253
1658790029045303,0.21283283741512182,-0.4085145342183565,0.8955825131609068
1658790029061301,0.21808194094758537,-0.4218204013122757,0.9081559472037846
1658790029077299,0.22211032272831321,-0.4264591439688714,0.9185320820935381
1658790029093297,0.2251621271076525,-0.41718165865568,0.917433432516976
1658790029109283,0.21722743572137038,-0.4293888761730371,0.917433432516976
1658790029125281,0.20965896086060898,-0.4219424734874493,0.9090104524299996
1658790029141279,0.20440985732814543,-0.4425726710917832,0.9204852368963152
1658790029157277,0.21319905394064254,-0.4319523918516821,0.9250019073777374
1658790029173275,0.21869230182345323,-0.42548256656748284,0.9352559700923173
1658790029189273,0.22162203402761893,-0.42621499961852427,0.9352559700923173
1658790029205270,0.21661707484550252,-0.4269474326695657,0.9270771343556881
1658790029221268,0.21258869306477468,-0.44110780498970037,0.9188982986190588
1658790029237266,0.21234454871442754,-0.4341496910048064,0.9101091020065617
1658790029253264,0.20770580605783184,-0.44538033112077535,0.9355001144426645
1658790029269262,0.2121004043640804,-0.424872205691615,0.9259784847791259
1658790029285260,0.21307698176546896,-0.42206454566262286,0.9297627222095066
1658790029301258,0.2162508583199818,-0.4357366292820628,0.9352559700923173
1658790029317256,0.2108796826123447,-0.43634699015793066,0.9104753185320824
1658790029333253,0.20550850690470757,-0.4392767223620968,0.905470359349966
1658790029349251,0.20685130083161685,-0.44000915541313823,0.9116960402838181
1658790029365249,0.21283283741512182,-0.42841229877164855,0.906324864576181
1658790029381247,0.21747158007171752,-0.4218204013122757,0.912306401159686
1658790029397245,0.2258945601586939,-0.4147402151522086,0.9116960402838181
1658790029413243,0.2171053635461968,-0.4202334630350193,0.9032730601968417
1658790029429260,0.21649500267032895,-0.42755779354543355,0.9066910811017017
1658790029445258,0.21075761043717112,-0.4468451972228582,0.9163347829404138
1658790029461256,0.21185626001373326,-0.43048752574959925,0.9217059586480509
1658790029477254,0.21344319829098968,-0.41742580300602716,0.9203631647211417
1658790029493251,0.21979095140001537,-0.3959411001754787,0.9076676585030903
1658790029509249,0.22027924010070965,-0.4088807507438772,0.914869916838331
1658790029525247,0.2205233844510568,-0.42426184481574714,0.9274433508812088
1658790029541245,0.2200350957503625,-0.42804608224612783,0.9236591134508281
1658790029557243,0.22027924010070965,-0.4306095979247728,0.9219501029983981
1658790029573241,0.21454184786755182,-0.4253604943923093,0.913160906385901
1658790029589239,0.21393148699168396,-0.42597085526817713,0.9181658655680174
1658790029605237,0.21612878614480824,-0.42633707179369784,0.9319600213626309
1658790029621235,0.2150301365682461,-0.4176699473563743,0.9267109178301673
1658790029637232,0.21637293049515538,-0.4102235446707865,0.932204165712978
1658790029653230,0.2091706721599147,-0.4192568856336307,0.9156023498893724
1658790029669228,0.21832608529793252,-0.4125429159990843,0.9208514534218359
1658790029685226,0.21820401312275894,-0.4310978866254671,0.9234149691004809
1658790029701224,0.22735942626077676,-0.43012130922407854,0.9206073090714888
1658790029717222,0.22101167315175108,-0.44672312504768463,0.9118181124589917
1658790029733220,0.2188143739986268,-0.4385442893110554,0.9036392767223624
1658790029749115,0.21979095140001537,-0.4480659189745939,0.9281757839322502
1658790029765112,0.21698329137102323,-0.4461127641718168,0.9341573205157552
1658790029781109,0.21222247653925397,-0.43268482490272353,0.903761348897536
1658790029797107,0.21405355916685753,-0.42755779354543355,0.9053482871747924
1658790029813104,0.21405355916685753,-0.4293888761730371,0.8982681010147253
1658790029829102,0.2205233844510568,-0.4164492256046386,0.8987563897154196
1658790029845099,0.21832608529793252,-0.41998931868467215,0.900343327992676
1658790029861096,0.21612878614480824,-0.42621499961852427,0.907179369802396
1658790029877094,0.2196688792248418,-0.41998931868467215,0.9060807202258339
1658790029893091,0.22101167315175108,-0.4169375143053329,0.8900892652780961
1658790029909089,0.22833600366216533,-0.4151064316777293,0.8811779964904254
1658790029925086,0.2267490653849089,-0.42597085526817713,0.8900892652780961
1658790029941084,0.2238193331807432,-0.42572671091783,0.8928969253070882
1658790029957081,0.2310215915159839,-0.4177920195315479,0.8987563897154196
1658790029973078,0.23407339589532317,-0.42413977264057356,0.9058365758754867
1658790029989076,0.2267490653849089,-0.4331731136034178,0.8963149462119482
1658790030005073,0.22113374532692465,-0.4370794232089721,0.898634317540246
1658790030021071,0.21234454871442754,-0.4408636606393532,0.9010757610437174
1658790030037068,0.21649500267032895,-0.42548256656748284,0.9153582055390252
1658790030053065,0.21661707484550252,-0.41950102998397787,0.9146257724879838
1658790030068939,0.2188143739986268,-0.42084382391088715,0.9081559472037846
1658790030084936,0.21612878614480824,-0.4219424734874493,0.9084000915541317
1658790030100933,0.21905851834897394,-0.4336614023041121,0.9273212787060352
1658790030116930,0.21649500267032895,-0.42462806134126785,0.9130388342107274
1658790030132927,0.21368734264133682,-0.43097581445029354,0.908888380254826
1658790030148923,0.21600671396963467,-0.43341725795376496,0.9170672159914552
1658790030164920,0.21441977569237824,-0.4380560006103611,0.9168230716411081
1658790030180917,0.22455176623178463,-0.4218204013122757,0.9342793926909287
1658790030196914,0.21600671396963467,-0.4312199588006407,0.9235370412756545
1658790030212911,0.2121004043640804,-0.4343938353551535,0.9181658655680174
1658790030228908,0.20843823910887327,-0.43549248493171566,0.9093766689555203
1658790030244905,0.2095368886854354,-0.4281681544213014,0.9369649805447473
1658790030260902,0.20733958953231113,-0.43305104142824424,0.9488059815365837
1658790030276899,0.21222247653925397,-0.4164492256046386,0.949294270237278
1658790030292896,0.21136797131303897,-0.4193789578088043,0.9302510109102009
1658790030308893,0.21356527046616325,-0.42706950484473927,0.9258564126039524
1658790030324890,0.21527428091859324,-0.4343938353551535,0.9396505683985659
1658790030340887,0.21747158007171752,-0.4402532997634854,0.9485618371862365
1658790030356884,0.2150301365682461,-0.43097581445029354,0.9342793926909287
1658790030372881,0.21661707484550252,-0.4201113908598457,0.913160906385901
1658790030388763,0.2171053635461968,-0.4397650110627911,0.9087663080796524
1658790030404760,0.21234454871442754,-0.4406195162890061,0.9190203707942324
1658790030420756,0.21991302357518894,-0.42633707179369784,0.9230487525749602
1658790030436752,0.22333104448004892,-0.42291905088883786,0.9427023727779051
1658790030452749,0.22394140535591678,-0.43305104142824424,0.9239032578011752
1658790030468745,0.22369726100556964,-0.4323186083772028,0.9062027924010074
1658790030484742,0.2238193331807432,-0.43476005188067424,0.9041275654230567
1658790030500738,0.22125581750209822,-0.4245059891660943,0.9036392767223624
1658790030516735,0.2313878080415046,-0.41962310215915144,0.9048599984740981
1658790030532731,0.2334630350194553,-0.4320744640268557,0.9013199053940646
1658790030548728,0.2356603341725796,-0.4209658960860607,0.8949721522850389
1658790030564724,0.23163195239185175,-0.4164492256046386,0.8924086366063939
1658790030580721,0.22528419928282606,-0.42804608224612783,0.9074235141527431
1658790030596717,0.22735942626077676,-0.4329289692530707,0.9068131532768753
1658790030612713,0.22735942626077676,-0.4281681544213014,0.903761348897536
1658790030628710,0.22442969405661106,-0.41461814297703503,0.8920424200808732
1658790030644706,0.22394140535591678,-0.4102235446707865,0.8905775539787903
1658790030660703,0.22308690012970178,-0.4227969787136643,0.8988784618905932
1658790030676699,0.22980086976424818,-0.42243076218814357,0.8919203479056996
1658790030692696,0.23785763332570387,-0.41461814297703503,0.8900892652780961
1658790030708618,0.2368810559243153,-0.42413977264057356,0.902906843671321
1658790030724614,0.23504997329671173,-0.4357366292820628,0.9116960402838181
1658790030740611,0.2280918593118182,-0.43830014496070824,0.900343327992676
1658790030756607,0.22662699320973534,-0.4365911345082778,0.898634317540246
1658790030772604,0.2339513237201496,-0.42035553521019287,0.9007095445181967
1658790030788600,0.23553826199740602,-0.4133974212252993,0.9018081940947589
1658790030804597,0.22919050888838033,-0.421454184786755,0.908033875028611
1658790030820593,0.23260852979324032,-0.4147402151522086,0.9099870298313881
1658790030836589,0.22442969405661106,-0.4235294117647057,0.9084000915541317
1658790030852586,0.22479591058213177,-0.4324406805523764,0.9213397421225302
1658790030868582,0.22504005493247892,-0.42975509269855783,0.9225604638742659
1658790030884579,0.22613870450904106,-0.424872205691615,0.9190203707942324
1658790030900575,0.22882429236285962,-0.42499427786678856,0.9234149691004809
1658790030916572,0.2301670862897689,-0.42328526741435857,0.9169451438162817
1658790030932568,0.22858014801251247,-0.4268253604943921,0.9096208133058674
1658790030948565,0.22882429236285962,-0.41998931868467215,0.9192645151445795
1658790030964561,0.22394140535591678,-0.41376363775082003,0.9036392767223624
1658790030980558,0.22101167315175108,-0.4269474326695657,0.9160906385900667
1658790030996554,0.22235446707866036,-0.4198672465094986,0.9231708247501338
1658790031012550,0.22223239490348679,-0.416327153429465,0.9077897306782639
1658790031028442,0.22577248798352034,-0.4236514839398793,0.9213397421225302
1658790031044438,0.22333104448004892,-0.42328526741435857,0.8948500801098653
1658790031060434,0.22784771496147105,-0.43512626840619495,0.9127946898603803
1658790031076430,0.2313878080415046,-0.4345159075303271,0.9213397421225302
1658790031092426,0.2339513237201496,-0.423163195239185,0.9286640726329445
1658790031108422,0.22748149843595034,-0.4343938353551535,0.9378194857709623
1658790031124418,0.22223239490348679,-0.43646906233310423,0.9236591134508281
1658790031140414,0.21820401312275894,-0.4306095979247728,0.8964370183871218
1658790031156410,0.2146639200427254,-0.42670328831921855,0.9132829785610745
1658790031172406,0.22162203402761893,-0.42999923704890497,0.9306172274357216
1658790031188402,0.22980086976424818,-0.43549248493171566,0.9408712901503016
1658790031204398,0.24005493247882814,-0.4202334630350193,0.9379415579461359
1658790031220394,0.23834592202639815,-0.41791409170672145,0.9154802777141988
1658790031236390,0.2301670862897689,-0.4315861753261614,0.9223163195239188
1658790031252386,0.22491798275730535,-0.42719157701991284,0.9225604638742659
1658790031268382,0.21979095140001537,-0.42328526741435857,0.9265888456549938
1658790031284378,0.2205233844510568,-0.4185244525825893,0.9217059586480509
1658790031300374,0.22613870450904106,-0.4113221942473486,0.9195086594949267
1658790031316370,0.22223239490348679,-0.4177920195315479,0.9055924315251396
1658790031332366,0.22027924010070965,-0.42047760738536644,0.9087663080796524
1658790031348297,0.22479591058213177,-0.4226749065384907,0.9109636072327767
1658790031364292,0.2276035706111239,-0.4169375143053329,0.895216296635386
1658790031380288,0.23065537499046318,-0.4118104829480429,0.8869153887235832
1658790031396283,0.22796978713664462,-0.4177920195315479,0.8909437705043111
1658790031412279,0.22113374532692465,-0.4159609369039443,0.892652780956741
1658790031428274,0.2267490653849089,-0.41242084382391075,0.9035172045471889
1658790031444270,0.23077744716563675,-0.41962310215915144,0.9196307316701002
1658790031460265,0.2289463645380332,-0.41461814297703503,0.9074235141527431
1658790031476261,0.22284275577935464,-0.4207217517357136,0.8894789044022282
1658790031492256,0.22125581750209822,-0.4177920195315479,0.9044937819485774
1658790031508252,0.23651483939879459,-0.4177920195315479,0.9154802777141988
1658790031524247,0.23712520027466244,-0.40863660639353006,0.9181658655680174
1658790031540243,0.23553826199740602,-0.40619516289005864,0.9201190203707945
1658790031556238,0.2263828488593882,-0.41205462729839004,0.9115739681086446
1658790031572234,0.21454184786755182,-0.43390554665445924,0.9004654001678496
1658790031588229,0.21783779659723823,-0.4247501335164414,0.9188982986190588
1658790031604225,0.21930266269932108,-0.4290226596475164,0.9243915465018695
1658790031620220,0.2251621271076525,-0.41742580300602716,0.9171892881666288
1658790031636216,0.23236438544289317,-0.4109559777218279,0.9137712672617688
1658790031652211,0.23089951934081032,-0.4226749065384907,0.9143816281376367
1658790031668090,0.22577248798352034,-0.4319523918516821,0.9201190203707945
1658790031684085,0.22687113756008248,-0.43598077363240995,0.9320820935378045
1658790031700080,0.21979095140001537,-0.4358587014572364,0.9319600213626309
1658790031716076,0.22394140535591678,-0.42255283436331714,0.9257343404287788
1658790031732071,0.2213778896772718,-0.4273136491950864,0.9259784847791259
1658790031748066,0.2225986114290075,-0.42377355611505285,0.9263447013046466
1658790031764061,0.2205233844510568,-0.42877851529716926,0.9276874952315559
1658790031780056,0.22211032272831321,-0.4278019378957807,0.9279316395819031
1658790031796051,0.22162203402761893,-0.4298771648737314,0.9315938048371102
1658790031812046,0.2255283436331732,-0.428290226596475,0.9286640726329445
1658790031828041,0.22101167315175108,-0.4350041962310214,0.9248798352025638
1658790031844036,0.22027924010070965,-0.4302433813992521,0.9267109178301673
1658790031860031,0.2200350957503625,-0.4164492256046386,0.9217059586480509
1658790031876026,0.2191805905241475,-0.4114442664225222,0.911451895933471
1658790031892021,0.2179598687724118,-0.41583886472877074,0.9027847714961474
1658790031908016,0.21979095140001537,-0.42084382391088715,0.9064469367513546
1658790031924011,0.22442969405661106,-0.4285343709468221,0.8990005340657667
1658790031940006,0.23004501411459533,-0.42584878309300356,0.9149919890135045
1658790031956001,0.23163195239185175,-0.42291905088883786,0.9170672159914552
1658790031971996,0.2229648279545282,-0.4185244525825893,0.9041275654230567
1658790031987945,0.2196688792248418,-0.41876859693293644,0.9036392767223624
1658790032003940,0.21844815747310609,-0.4235294117647057,0.9154802777141988
1658790032019935,0.2238193331807432,-0.42206454566262286,0.9225604638742659
1658790032035930,0.22735942626077676,-0.4102235446707865,0.9258564126039524
1658790032051925,0.22662699320973534,-0.4043640802624551,0.9149919890135045
1658790032067920,0.2213778896772718,-0.41547264820325003,0.9127946898603803
1658790032083915,0.2243076218814375,-0.4219424734874493,0.9084000915541317
1658790032099910,0.2251621271076525,-0.4273136491950864,0.9136491950865953
1658790032115905,0.2301670862897689,-0.4135194934004729,0.9098649576562146
1658790032131900,0.22748149843595034,-0.4186465247577629,0.9154802777141988
1658790032147895,0.22784771496147105,-0.42230869001297,0.9130388342107274
1658790032163890,0.22247653925383393,-0.42572671091783,0.9112077515831238
1658790032179885,0.21600671396963467,-0.41913481345845716,0.8939955748836503
1658790032195881,0.21600671396963467,-0.40997940032043934,0.9102311741817353
1658790032211876,0.21783779659723823,-0.42084382391088715,0.9217059586480509
1658790032227871,0.2267490653849089,-0.41828030823224216,0.9231708247501338
1658790032243866,0.22906843671320676,-0.4236514839398793,0.9220721751735717
1658790032259861,0.22748149843595034,-0.42291905088883786,0.9130388342107274
1658790032275856,0.22015716792553608,-0.42792401007095426,0.9130388342107274
1658790032291851,0.21698329137102323,-0.4252384222171357,0.9198748760204474
1658790032307769,0.22235446707866036,-0.4253604943923093,0.9219501029983981
1658790032323764,0.2305333028152896,-0.41962310215915144,0.9268329900053409
1658790032339758,0.2258945601586939,-0.4245059891660943,0.928786144808118
1658790032355753,0.22211032272831321,-0.42255283436331714,0.9170672159914552
1658790032371748,0.2175936522468911,-0.4310978866254671,0.9143816281376367
1658790032387742,0.21271076523994825,-0.4345159075303271,0.918287937743191
1658790032403737,0.23175402456702532,-0.4273136491950864,0.9198748760204474
1658790032419731,0.23004501411459533,-0.416327153429465,0.9204852368963152
1658790032435726,0.22870222018768604,-0.41412985427634075,0.9085221637293053
1658790032451720,0.22064545662623036,-0.42572671091783,0.9022964827954532
1658790032467715,0.21857022964827966,-0.42963302052338426,0.8941176470588239
1658790032483709,0.2255283436331732,-0.41705958648050645,0.9069352254520489
1658790032499704,0.22479591058213177,-0.42206454566262286,0.9221942473487452
1658790032515699,0.22406347753109035,-0.41657129777981217,0.9096208133058674
1658790032531693,0.22015716792553608,-0.4236514839398793,0.8942397192339975
1658790032547688,0.22076752880140393,-0.42426184481574714,0.9087663080796524
1658790032563682,0.21942473487449465,-0.4219424734874493,0.9125505455100331
1658790032579677,0.22211032272831321,-0.41376363775082003,0.9195086594949267
1658790032595671,0.2238193331807432,-0.41840238040741573,0.9201190203707945
1658790032611666,0.22833600366216533,-0.42169832913710215,0.9176775768673231
1658790032627624,0.2246738384069582,-0.4286564431219957,0.9115739681086446
1658790032643619,0.22113374532692465,-0.42084382391088715,0.9074235141527431
1658790032659613,0.2208896009765775,-0.42133211261158143,0.9207293812466624
1658790032675608,0.2188143739986268,-0.42084382391088715,0.9303730830853745
1658790032691602,0.21991302357518894,-0.42255283436331714,0.9281757839322502
1658790032707597,0.22211032272831321,-0.4181582360570686,0.9241474021515224
1658790032723591,0.21722743572137038,-0.41791409170672145,0.9103532463569088
1658790032739586,0.22284275577935464,-0.4335393301289385,0.9228046082246131
1658790032755581,0.22540627145799963,-0.4343938353551535,0.9213397421225302
1658790032771575,0.2289463645380332,-0.4264591439688714,0.9291523613336388
1658790032787570,0.22284275577935464,-0.42084382391088715,0.9375753414206152
1658790032803564,0.21698329137102323,-0.41742580300602716,0.9180437933928438
1658790032819559,0.2162508583199818,-0.4235294117647057,0.9239032578011752
1658790032835553,0.21637293049515538,-0.42914473182269,0.9223163195239188
1658790032851548,0.22027924010070965,-0.41828030823224216,0.913160906385901
1658790032867542,0.21954680704966822,-0.40863660639353006,0.9162127107652402
1658790032883537,0.21832608529793252,-0.41535057602807646,0.9221942473487452
1658790032899531,0.22101167315175108,-0.4314641031509878,0.9186541542687117
1658790032915526,0.22577248798352034,-0.4385442893110554,0.9171892881666288
1658790032931521,0.22528419928282606,-0.43268482490272353,0.9051041428244453
1658790032947418,0.2208896009765775,-0.41754787518120073,0.904615854123751
1658790032963412,0.21857022964827966,-0.4133974212252993,0.898634317540246
1658790032979406,0.22113374532692465,-0.42230869001297,0.914869916838331
1658790032995400,0.2188143739986268,-0.4210879682612343,0.9145037003128103
1658790033011394,0.21808194094758537,-0.4122987716487372,0.9077897306782639
1658790033027388,0.22162203402761893,-0.4181582360570686,0.9121843289845124
1658790033043382,0.22418554970626392,-0.41412985427634075,0.9163347829404138
1658790033059376,0.22821393148699176,-0.42841229877164855,0.9234149691004809
1658790033075370,0.22223239490348679,-0.42377355611505285,0.9101091020065617
1658790033091364,0.22369726100556964,-0.4186465247577629,0.9208514534218359
1658790033107359,0.22211032272831321,-0.419745174334325,0.918287937743191
1658790033123353,0.2217441062027925,-0.41742580300602716,0.9203631647211417
1658790033139347,0.2191805905241475,-0.41913481345845716,0.9228046082246131
1658790033155341,0.2141756313420311,-0.43134203097581425,0.9265888456549938
1658790033171335,0.21686121919584966,-0.4226749065384907,0.9127946898603803
1658790033187329,0.21698329137102323,-0.4181582360570686,0.9224383916990924
1658790033203323,0.21771572442206466,-0.4185244525825893,0.9251239795529109
1658790033219317,0.22125581750209822,-0.4169375143053329,0.9175555046921495
1658790033235311,0.22027924010070965,-0.42511635004196213,0.911451895933471
1658790033251305,0.2310215915159839,-0.4252384222171357,0.9269550621805145
1658790033267242,0.22162203402761893,-0.42426184481574714,0.914015411612116
1658790033283236,0.22369726100556964,-0.40900282291905077,0.9053482871747924
1658790033299230,0.22076752880140393,-0.4219424734874493,0.9076676585030903
1658790033315224,0.22064545662623036,-0.4276798657206071,0.9091325246051731
1658790033331218,0.22308690012970178,-0.4302433813992521,0.9163347829404138
1658790033347212,0.2251621271076525,-0.4310978866254671,0.936476691844053
1658790033363206,0.2255283436331732,-0.4312199588006407,0.9256122682536052
1658790033379201,0.22064545662623036,-0.42169832913710215,0.9052262149996189
1658790033395195,0.21979095140001537,-0.4336614023041121,0.8985122453650725
1658790033411189,0.22064545662623036,-0.42914473182269,0.9103532463569088
1658790033427183,0.22235446707866036,-0.4230411230640114,0.9251239795529109
1658790033443177,0.22504005493247892,-0.41290913252460504,0.9151140611886781
1658790033459171,0.2289463645380332,-0.42841229877164855,0.919996948195621
1658790033475165,0.22491798275730535,-0.44623483634699035,0.9098649576562146
1658790033491159,0.2213778896772718,-0.44574654764629607,0.9031509880216682
1658790033507153,0.22357518883039607,-0.42999923704890497,0.9220721751735717
1658790033523147,0.23114366369115746,-0.4298771648737314,0.9394064240482187
1658790033539141,0.23273060196841389,-0.4396429388876175,0.9352559700923173
1658790033555135,0.23358510719462888,-0.4389105058365761,0.9355001144426645
1658790033571129,0.22528419928282606,-0.4353704127565421,0.9130388342107274
1658790033587097,0.21637293049515538,-0.423163195239185,0.894361791409171
1658790033603091,0.21905851834897394,-0.44281681544213036,0.9334248874647137
1658790033619085,0.22491798275730535,-0.43903257801174966,0.9348897535667966
1658790033635079,0.2368810559243153,-0.4202334630350193,0.936476691844053
1658790033651073,0.23822384985122458,-0.42243076218814357,0.933058670939193
1658790033667067,0.23639276722362101,-0.43549248493171566,0.9130388342107274
1658790033683061,0.22626077668421463,-0.4556343938353553,0.9138933394369424
1658790033699055,0.2263828488593882,-0.4616159304188603,0.9328145265888459
1658790033715049,0.23932249942778672,-0.4329289692530707,0.9456321049820708
1658790033731043,0.23700312809948887,-0.42926680399786354,0.9464866102082858
1658790033747038,0.23334096284428174,-0.4406195162890061,0.9435568780041201
1658790033763032,0.23407339589532317,-0.45551232166018174,0.9418478675516901
1658790033779026,0.23968871595330743,-0.44623483634699035,0.9362325474937059
1658790033795020,0.24164187075608456,-0.4323186083772028,0.945021744106203
1658790033811014,0.24371709773403527,-0.4384222171358818,0.9634546425574122
1658790033827008,0.24493781948577098,-0.4536812390325782,0.9601586938277258
1658790033843002,0.24750133516441597,-0.46137178606851315,0.9604028381780729
1658790033858996,0.2536049439230945,-0.4490424963759825,0.9414816510261694
1658790033874990,0.2595864805065995,-0.4447699702449075,0.9490501258869308
1658790033890984,0.2650797283894102,-0.457709620813306,0.9572289616235601
1658790033906921,0.2621499961852445,-0.4480659189745939,0.947585259784848
1658790033922915,0.2667887388418402,-0.4290226596475164,0.9595483329518579
1658790033938908,0.2667887388418402,-0.4430609597924775,0.9547875181200887
1658790033954902,0.275944151979858,-0.44208438239108894,0.9486839093614101
1658790033970895,0.27240405889982444,-0.45880827038986816,0.9466086823834594
1658790033986889,0.27240405889982444,-0.44501411459525464,0.9453879606317237
1658790034002883,0.2771648737315937,-0.4413519493400475,0.9521019302662701
1658790034018876,0.28155947203784226,-0.4323186083772028,0.932204165712978
1658790034034870,0.28375677119096654,-0.4425726710917832,0.939894712748913
1658790034050863,0.2985275043869686,-0.43988708323796466,0.953566796368353
1658790034066857,0.2947432669565879,-0.4369573510337985,0.9558861676966508
1658790034082851,0.29706263828488577,-0.43427176317997995,0.9252460517280845
1658790034098844,0.305241474021515,-0.42377355611505285,0.9081559472037846
1658790034114838,0.31232166018158214,-0.42914473182269,0.9334248874647137
1658790034130831,0.31818112458991354,-0.4319523918516821,0.9497825589379723
1658790034146825,0.3275806820782785,-0.39935912108033866,0.9423361562523844
1658790034162819,0.3270923933775842,-0.42511635004196213,0.9221942473487452
1658790034178812,0.3255054551003278,-0.43646906233310423,0.9228046082246131
1658790034194806,0.34125276569771845,-0.43476005188067424,0.9472190432593273
1658790034210799,0.3432059205004956,-0.4238956282902264,0.9363546196688795
1658790034226745,0.3535820553902491,-0.43012130922407854,0.9341573205157552
1658790034242739,0.36481269550621764,-0.4446478980697339,0.9257343404287788
1658790034258732,0.36395819028000265,-0.4312199588006407,0.9016861219195853
1658790034274726,0.3662775616083005,-0.4312199588006407,0.9040054932478832
1658790034290720,0.3793392843518735,-0.43866636148622895,0.901197833218891
1658790034306713,0.3898374914168006,-0.4528267338063632,0.9112077515831238
1658790034322707,0.39911497672999197,-0.4408636606393532,0.9026626993209739
1658790034338700,0.40424200808728195,-0.4374456397344928,0.8825207904173347
1658790034354694,0.4234073395895326,-0.43085374227511997,0.8780041199359125
1658790034370688,0.43439383535515397,-0.4406195162890061,0.883009079118029
1658790034386681,0.43451590753032754,-0.41840238040741573,0.8611581597619589
1658790034402675,0.4325627527275504,-0.39056992446784156,0.8456549935149154
1658790034418668,0.4463569085221639,-0.4286564431219957,0.8826428625925082
1658790034434662,0.4507515068284125,-0.4522163729304953,0.8888685435263604
1658790034450656,0.464545662623026,-0.41754787518120073,0.865674830243381
1658790034466649,0.4729686427100024,-0.4058289463645379,0.8440680552376589
1658790034482643,0.49164568551155874,-0.4256046387426564,0.8555428397039746
1658790034498636,0.5036087586785687,-0.45587853818570245,0.8705577172503238
1658790034514630,0.5097123674372472,-0.4455024032959489,0.8416266117341875
1658790034530624,0.5357137407492178,-0.4064393072404058,0.8219729915312426
1658790034546600,0.5265583276112,-0.424872205691615,0.8328374151216904
1658790034562594,0.5225299458304722,-0.4423285267414361,0.8313725490196076
1658790034578587,0.5388876173037307,-0.44586861982146964,0.8115968566414891
1658790034594581,0.5499961852445256,-0.42890058747234283,0.8004882887006941
1658790034610574,0.5552452887769892,-0.39142442969405655,0.761547264820325
1658790034626568,0.5700160219729913,-0.37958342870222017,0.7482413977264057
1658790034642562,0.5718471046005948,-0.40900282291905077,0.7366445410849165
1658790034658555,0.5952849622339205,-0.40033569848172723,0.7417715724422065
1658790034674549,0.5993133440146483,-0.37763027389944304,0.7103990234225988
1658790034690542,0.604806591897459,-0.3638361181048295,0.6732890821698332
1658790034706536,0.6281223773556119,-0.38336766613260087,0.6635233081559475
1658790034722530,0.6485084306095983,-0.4160830090791179,0.722850385290303
1658790034738523,0.6607156481269554,-0.38764019226367585,0.6928206301976045
1658790034754517,0.677317463950561,-0.3621271076523995,0.6552224002441447
1658790034770510,0.6836652170595867,-0.3576104371709774,0.6011444266422519
1658790034786504,0.696116578927291,-0.3530937666895553,0.610788128480964
1658790034802497,0.6922102693217367,-0.35614557106889455,0.6139620050354768
1658790034818491,0.6834210727092396,-0.33258564126039536,0.5802700846875712
1658790034834485,0.6814679179064624,-0.34320592050049603,0.5525597009231706
1658790034850478,0.7113756008239873,-0.34686808575570316,0.5694056610971234
1658790034866424,0.7346913862821394,-0.34235141527428103,0.6062714579995419
1658790034882417,0.7344472419317922,-0.34320592050049603,0.6061493858243683
1658790034898410,0.7519035629816129,-0.313908598458839,0.5658655680170899
1658790034914404,0.7584954604409857,-0.3312428473334861,0.5060502021820401
1658790034930397,0.7642328526741435,-0.34613565270466173,0.54193942168307
1658790034946390,0.8144045166704812,-0.2789959563591973,0.5691615167467763
1658790034962383,0.8251468680857554,-0.26227206836041805,0.5530479896238649
1658790034978376,0.7906004425116349,-0.30060273136491933,0.48859388113221947
1658790034994369,0.7765621423666742,-0.28168154421301583,0.42853437094682256
1658790035010362,0.7661860074769207,-0.27411306935225443,0.46601052872510884
1658790035026355,0.7739986266880292,-0.3117112993057143,0.5423056382085907
1658790035042348,0.785717555504692,-0.3003585870145722,0.5086137178606851
1658790035058342,0.7893797207598992,-0.2754558632791637,0.39545281147478484
1658790035074335,0.7765621423666742,-0.29669642175936506,0.4031433585107198
1658790035090328,0.7906004425116349,-0.28619821469443796,0.4010681315327691
1658790035106321,0.8242923628595404,-0.25006485084306096,0.41901274128328403
1658790035122314,0.8598153658350496,-0.24811169604028382,0.4116884107728698
1658790035138307,0.8748302433813988,-0.26141756313420306,0.3826352330815599
1658790035154300,0.8583504997329667,-0.2923018234531165,0.35431448844129054
1658790035170293,0.8570077058060575,-0.23260852979324032,0.30975814450293715
1658790035186248,0.867383840695811,-0.20148012512397973,0.3268482490272371
1658790035202242,0.8677500572213317,-0.2330968184939346,0.33954375524528846
1658790035218235,0.8745860990310517,-0.23468375677119102,0.3250171663996335
1658790035234228,0.866529335469596,-0.21722743572137038,0.3153734645609214
1658790035250221,0.8476081483176925,-0.21258869306477468,0.27325856412603944
1658790035266214,0.858838788433661,-0.18487830930037363,0.26520180056458376
1658790035282207,0.8728770885786217,-0.19647516594186332,0.2554360265506981
1658790035298200,0.8847180895704589,-0.22980086976424818,0.2692301823453116
1658790035314193,0.8941176470588239,-0.2621499961852445,0.27228198672465087
1658790035330186,0.896070801861601,-0.22613870450904106,0.2721599145494773
1658790035346180,0.9137712672617688,-0.19647516594186332,0.24335088120851456
1658790035362173,0.930495155260548,-0.24164187075608456,0.2717936980239566
1658790035378166,0.9219501029983981,-0.28168154421301583,0.2666666666666666
1658790035394159,0.9225604638742659,-0.24725719081406883,0.23248645761806674
1658790035410152,0.9076676585030903,-0.23553826199740602,0.22162203402761893
1658790035426145,0.9107194628824296,-0.2453040360112917,0.2083161669336997
1658790035442138,0.9221942473487452,-0.26483558403906304,0.1998931868467233
1658790035458131,0.9234149691004809,-0.25641260395208665,0.1826810101472498
1658790035474125,0.906324864576181,-0.23590447852292673,0.15606927595941134
1658790035490118,0.9250019073777374,-0.21734950789654395,0.17230487525749627
1658790035506073,0.9232928969253074,-0.27362478065156015,0.20209048599984758
1658790035522066,0.9223163195239188,-0.31134508278019357,0.20672922865644328
1658790035538059,0.9396505683985659,-0.3117112993057143,0.1423971923399714
1658790035554052,0.9295185778591595,-0.2957198443579765,0.10614175631341993
1658790035570045,0.9297627222095066,-0.2583657587548638,0.09625391012436069
1658790035586038,0.9435568780041201,-0.24554818036163883,0.12127870603494273
1658790035602031,0.9539330128938737,-0.23382925154497602,0.11944762340733917
1658790035618024,0.9771267261768521,-0.2133211261158161,0.09308003356984784
1658790035634018,0.9696803234912643,-0.2243076218814375,0.08404669260700359
1658790035650011,0.9500267032883194,-0.21954680704966822,0.041687647821774476
1658790035666004,0.9553978789959565,-0.23199816891737246,0.07257190814068792
1658790035681997,0.9679713130388343,-0.25812161440451664,0.10736247806515564
1658790035697990,0.9619897764553293,-0.25348287174792095,0.09893949797817925
1658790035713983,0.9699244678416115,-0.18219272144655507,0.06207370107576082
1658790035729976,0.9817654688334478,-0.1505760280766002,0.04486152437628732
1658790035745969,0.9729762722209507,-0.17547875181200867,0.05951018539711583
1658790035761963,0.9577172503242544,-0.204531929503319,0.045349813076981604
1658790035777956,0.9470969710841537,-0.16705577172503228,0.028259708552681673
1658790035793949,0.9474631876096744,-0.15887693598840302,0.018371862363622427
1658790035809942,0.9497825589379723,-0.1803616388189515,0.022400244144350268
1658790035825897,0.9414816510261694,-0.20221255817502115,0.01495384145876244
1658790035841890,0.9513694972152287,-0.1787747005416951,0.012878614480811734
1658790035857883,0.952712291142138,-0.18365758754863792,0.03814755474174092
1658790035873876,0.9462424658579387,-0.19964904249637616,0.018127718013275285
1658790035889869,0.9481956206607158,-0.17315938048371082,-0.007995727473868897
1658790035905862,0.9572289616235601,-0.15838864728770874,-0.05658045319295013
1658790035921856,0.97773708705272,-0.14618142977035165,-0.05426108186465228
1658790035937849,0.9799343862058443,-0.15912108033875016,-0.045471885252155175
1658790035953842,0.9754177157244222,-0.1593652246890973,-0.050598916609445155
1658790035969835,0.9721217669947357,-0.14569314106965736,-0.06305027847714983
1658790035985828,0.9668726634622722,-0.13812466620889596,-0.0707408255130848
1658790036001821,0.955275806820783,-0.15484855420767518,-0.07232776379034123
1658790036017814,0.9455100328068973,-0.15582513160906375,-0.0829480430304419
1658790036033807,0.9499046311131458,-0.14105439841306167,-0.08636606393530188
1658790036049800,0.9359884031433587,-0.13775844968337525,-0.11541924162661177
1658790036065794,0.9265888456549938,-0.12091248950942246,-0.12567330434119173
1658790036081787,0.935622186617838,-0.12237735561150531,-0.12335393301289388
1658790036097780,0.928786144808118,-0.12628366521705958,-0.13946746013580524
1658790036113773,0.9336690318150609,-0.10931563286793322,-0.18475623712520006
1658790036129766,0.9439230945296408,-0.09161516746776543,-0.18023956664377794
1658790036145721,0.951857785915923,-0.09393453879606328,-0.1627832455939573
1658790036161714,0.9677271686884872,-0.1182269016556039,-0.1220111390859846
1658790036177706,0.9707789730678265,-0.11627374685282676,-0.1581445029373616
1658790036193699,0.9502708476386665,-0.11786068513008319,-0.22015716792553608
1658790036209692,0.9336690318150609,-0.09308003356984829,-0.24896620126649882
1658790036225684,0.9358663309681852,-0.11102464332036321,-0.22040131227588322
1658790036241677,0.9595483329518579,-0.10638590066376752,-0.16937514305333012
1658790036257670,0.9590600442511636,-0.1190814068818189,-0.15338368810559233
1658790036273662,0.9536888685435265,-0.13006790264744028,-0.18683146410315077
1658790036289655,0.9445334554055087,-0.1165178912031739,-0.23920042725261315
1658790036305647,0.9213397421225302,-0.1211566338597696,-0.2448157473105974
1658790036321640,0.9274433508812088,-0.11200122072175178,-0.22479591058213177
1658790036337633,0.9156023498893724,-0.12310978866254674,-0.22491798275730535
1658790036353625,0.9147478446631574,-0.11859311818112461,-0.22858014801251247
1658790036369618,0.9297627222095066,-0.09210345616845972,-0.24042114900434886
1658790036385611,0.9326924544136723,-0.10553139543755252,-0.27533379110399014
1658790036401603,0.9362325474937059,-0.11602960250247962,-0.31024643320363143
1658790036417596,0.9464866102082858,-0.12310978866254674,-0.28827344167238866
1658790036433589,0.9431906614785994,-0.1308003356984817,-0.270817120622568
1658790036449581,0.9317158770122838,-0.13763637750820168,-0.2647135118638895
1658790036465545,0.9289082169832916,-0.12347600518806745,-0.27277027542534515
1658790036481538,0.9217059586480509,-0.11700617990386819,-0.29510948348210864
1658790036497531,0.9208514534218359,-0.11541924162661177,-0.31110093842984643
1658790036513523,0.9286640726329445,-0.13006790264744028,-0.29840543221179505
1658790036529516,0.9311055161364159,-0.1337300679026474,-0.2985275043869686
1658790036545508,0.9329365987640195,-0.12079041733424889,-0.2998702983138779
1658790036561501,0.9402609292744337,-0.12542915999084459,-0.3032883192187379
1658790036577494,0.9317158770122838,-0.13055619134813456,-0.3512626840619517
1658790036593486,0.9214618142977038,-0.1266498817425803,-0.392156862745098
1658790036609479,0.9074235141527431,-0.11712825207904176,-0.4104676890211336
1658790036625472,0.9048599984740981,-0.11932555123216604,-0.41461814297703503
1658790036641464,0.9136491950865953,-0.09832913710231184,-0.4401312275883118
1658790036657457,0.9073014419775696,-0.11248950942244607,-0.4341496910048064
1658790036673450,0.8990005340657667,-0.11309987029831392,-0.45294880598153675
1658790036689442,0.898634317540246,-0.11712825207904176,-0.4712596322575724
1658790036705435,0.9060807202258339,-0.1345845731288624,-0.4666208896009767
1658790036721428,0.9075455863279167,-0.1409323262378881,-0.46515602349889384
1658790036737420,0.9098649576562146,-0.12652780956740672,-0.458564126039521
1658790036753413,0.905470359349966,-0.11468680857557034,-0.45087357900358604
1658790036769405,0.9107194628824296,-0.09002822919050901,-0.46466773479819956
1658790036785400,0.9042496375982303,-0.093446250095369,-0.462836652170596
1658790036801393,0.9010757610437174,-0.0896620126649883,-0.43634699015793066
1658790036817385,0.8971694514381632,-0.07891966124971406,-0.4324406805523764
1658790036833378,0.8915541313801789,-0.07647821774624264,-0.42511635004196213
1658790036849371,0.892652780956741,-0.07989623865110262,-0.4190127412832836
1658790036865363,0.8981460288395517,-0.08722056916151688,-0.38727397573815514
1658790036881356,0.8987563897154196,-0.09735255970092327,-0.38178072785534445
1658790036897349,0.8998550392919817,-0.10162508583199825,-0.37177080949111163
1658790036913341,0.9062027924010074,-0.11261158159761964,-0.3512626840619517
1658790036929334,0.9184100099183645,-0.11981383993286032,-0.32086671244373255
1658790036945326,0.9297627222095066,-0.11566338597695891,-0.31219958800640857
1658790036961319,0.932204165712978,-0.11090257114518964,-0.3362478065156025
1658790036977312,0.9270771343556881,-0.12091248950942246,-0.34906538490882744
1658790036993304,0.9251239795529109,-0.12603952086671244,-0.3455252918287939
1658790037009297,0.9221942473487452,-0.12225528343633174,-0.33087663080796537
1658790037025290,0.9231708247501338,-0.11627374685282676,-0.32587167162584896
1658790037041282,0.9274433508812088,-0.10675211718928823,-0.3294117647058825
1658790037057275,0.9308613717860688,-0.12249942778667888,-0.32501716639963396
1658790037073268,0.9268329900053409,-0.14410620279240094,-0.3299000534065768
1658790037089260,0.9204852368963152,-0.1464255741206988,-0.3223315785458154
1658790037105194,0.9298847943846802,-0.1488670176241702,-0.30646219577325073
1658790037121186,0.9333028152895402,-0.14569314106965736,-0.3036545357442586
1658790037137179,0.9243915465018695,-0.1522850385290302,-0.28998245212481866
1658790037153172,0.917433432516976,-0.13580529488059812,-0.2876630807965208
1658790037169164,0.9096208133058674,-0.12799267566948958,-0.28876173037308295
1658790037185157,0.908888380254826,-0.13177691309987027,-0.27777523460746156
1658790037201150,0.9142595559624631,-0.1359273670557717,-0.24200808728160528
1658790037217142,0.910597390707256,-0.14654764629587236,-0.2453040360112917
1658790037233135,0.9145037003128103,-0.132143129625391,-0.21136797131303897
1658790037249127,0.9170672159914552,-0.127870603494316,-0.1719386587319751
1658790037265120,0.9151140611886781,-0.12323186083772031,-0.16717784390020585
1658790037281113,0.9324483100633252,-0.09954985885404755,-0.15533684290836947
1658790037297105,0.9302510109102009,-0.11566338597695891,-0.09991607537956826
1658790037313098,0.9278095674067295,-0.16168459601739515,-0.03558403906309593
1658790037329091,0.9245136186770431,-0.16375982299534586,-0.047913328755626594
1658790037345083,0.9270771343556881,-0.15863279163805588,-0.041565575646600905
1658790037361076,0.9301289387350273,-0.1745021744106201,0.023743038071259548
1658790037377069,0.9406271457999544,-0.17010757610437155,0.06195162890058725
1658790037393061,0.940749217975128,-0.1732814526588844,0.06280613412680225
1658790037409054,0.9403830014496073,-0.17816433966582723,0.07660028992141577
1658790037425018,0.937331197070268,-0.1585107194628823,0.06903181506065437
1658790037441011,0.9546654459449151,-0.16375982299534586,0.1129777981231399
1658790037457003,0.9481956206607158,-0.17523460746166153,0.11737239642938846
1658790037472996,0.9392843518730452,-0.16717784390020585,0.12689402609292788
1658790037488989,0.9418478675516901,-0.13971160448615239,0.1494773785000385
1658790037504981,0.9414816510261694,-0.16803234912642084,0.1914702067597469
1658790037520974,0.9367208361944002,-0.19501029983978047,0.20294499122606258
1658790037536966,0.9331807431143666,-0.18243686579690221,0.17169451438162842
1658790037552959,0.9345235370412759,-0.18475623712520006,0.18194857709620837
1658790037568952,0.9251239795529109,-0.21600671396963467,0.21527428091859324
1658790037584944,0.9234149691004809,-0.23126573586633103,0.2243076218814375
1658790037600937,0.9341573205157552,-0.2213778896772718,0.2255283436331732
1658790037616930,0.9331807431143666,-0.22015716792553608,0.20355535210193043
1658790037632922,0.9340352483405816,-0.21722743572137038,0.22699320973525605
1658790037648915,0.9281757839322502,-0.2334630350194553,0.24713511863889526
1658790037664908,0.9237811856260016,-0.2518959334706645,0.25214007782101167
1658790037680900,0.9268329900053409,-0.24225223163195242,0.23419546807049674
1658790037696893,0.9285420004577709,-0.2153963530937668,0.21832608529793252
1658790037712885,0.9248798352025638,-0.21954680704966822,0.2548256656748302
1658790037728878,0.9243915465018695,-0.23334096284428174,0.2675211718928816
1658790037744842,0.9231708247501338,-0.25128557259479667,0.2822919050888837
1658790037760834,0.9245136186770431,-0.2334630350194553,0.2894941634241244
1658790037776826,0.916578927290761,-0.25055313954375524,0.31012436102845786
1658790037792819,0.9053482871747924,-0.2852216372930494,0.3125658045319293
1658790037808811,0.910597390707256,-0.26935225452048517,0.30475318532082074
1658790037824803,0.9218280308232245,-0.2566567483024338,0.31866941329060783
1658790037840795,0.9156023498893724,-0.25348287174792095,0.3292896925307085
1658790037856787,0.9146257724879838,-0.27826352330815585,0.3406424048218506
1658790037872779,0.9237811856260016,-0.2796063172350651,0.35675593194476196
1658790037888772,0.9162127107652402,-0.26861982146944374,0.36176089112687837
1658790037904764,0.9110856794079503,-0.27020675974670016,0.37616540779736063
1658790037920756,0.8990005340657667,-0.28155947203784226,0.3561455710688941
1658790037936748,0.8916762035553525,-0.31122301060502,0.3657892729076062
1658790037952740,0.8957045853360803,-0.30011444266422505,0.3787289234760056
1658790037968732,0.9066910811017017,-0.2623941405355916,0.38568703746089916
1658790037984725,0.9075455863279167,-0.27740901808194085,0.3947203784237434
1658790038000717,0.8980239566643782,-0.29462119478141435,0.3725032425421526
1658790038016709,0.8854505226215004,-0.2973067826352329,0.3637140459296555
1658790038032701,0.8723887998779274,-0.2877851529716944,0.3695735103379869
1658790038048693,0.8700694285496295,-0.2881513694972151,0.3955748836499584
1658790038064697,0.8709239337758445,-0.2991378652628365,0.3967956054016941
1658790038080689,0.8740978103303574,-0.2993820096131836,0.386297398336767
1658790038096681,0.8723887998779274,-0.27826352330815585,0.40289921416037267
1658790038112673,0.8660410467689017,-0.281071183337148,0.41437399862668833
1658790038128666,0.8600595101853967,-0.3070725566491186,0.4296330205233847
1658790038144658,0.8542000457770653,-0.318181124589914,0.4459906919966432
1658790038160650,0.8517586022735939,-0.3096360723277636,0.4501411459525446
1658790038176642,0.8495613031204696,-0.274235141527428,0.4265812161440454
1658790038192634,0.8450446326390475,-0.2914473182269015,0.47138170443274596
1658790038208626,0.8438239108873118,-0.31219958800640857,0.48236820019836735
1658790038224619,0.8428473334859232,-0.32001220721751755,0.49042496375982303
1658790038240611,0.8451667048142211,-0.3140306706340126,0.4822461280231938
1658790038256603,0.8385748073548482,-0.3067063401235979,0.45294880598153675
1658790038272595,0.832959487296864,-0.31793698023956685,0.48065918974593735
1658790038288587,0.8305180437933926,-0.3209887846189061,0.5189898527504386
1658790038304579,0.8281986724650947,-0.3244068055237661,0.5220416571297779
1658790038320572,0.832104982070649,-0.32843518730449395,0.5086137178606851
1658790038336564,0.8302738994430454,-0.32587167162584896,0.4850537880521859
1658790038352556,0.8197756923781183,-0.32330815594720397,0.49164568551155874
1658790038368548,0.818432898451209,-0.3104905775539786,0.5087357900358587
1658790038384491,0.819287403677424,-0.3070725566491186,0.5300984206912336
1658790038400483,0.8168459601739526,-0.3010910200656136,0.5120317387655451
1658790038416475,0.8109864957656212,-0.31146715495536714,0.5042191195544365
1658790038432467,0.7980468451972227,-0.31378652628366543,0.5215533684290836
1658790038448459,0.784008545052262,-0.3320973525597011,0.5630579079880977
1658790038464451,0.7832761120012206,-0.33173113603418036,0.5683070115205613
1658790038480444,0.7913328755626763,-0.32465094987411325,0.5571984435797663
1658790038496436,0.7838864728770885,-0.33344014648661036,0.5545128557259478
1658790038512428,0.7744869153887235,-0.3231860837720304,0.5482871747920957
1658790038528420,0.7709468223086899,-0.310368505378805,0.5700160219729913
1658790038544412,0.7638666361486228,-0.316472114137484,0.5728236820019834
1658790038560404,0.7711909666590371,-0.3125658045319297,0.5735561150530248
1658790038576397,0.7672846570534828,-0.32843518730449395,0.5807583733882655
1658790038592389,0.7611810482948043,-0.3247730220492868,0.558419165331502
1658790038608381,0.7659418631265735,-0.32257572289616254,0.5784390020599677
1658790038624373,0.7644769970244907,-0.3445487144274053,0.6258030060273141
1658790038640365,0.7627679865720607,-0.33221942473487465,0.6052948805981533
1658790038656357,0.753002212558175,-0.3253833829251547,0.5821011673151748
1658790038672350,0.7379873350118258,-0.3311207751583125,0.5735561150530248
1658790038688342,0.7283436331731137,-0.3291676203555354,0.6024872205691612
1658790038704315,0.7273670557717251,-0.318181124589914,0.6365453574425883
1658790038720307,0.7282215609979401,-0.3159838254367897,0.6254367895017934
1658790038736299,0.7349355306324865,-0.31280994888227687,0.5955291065842676
1658790038752291,0.7272449835965515,-0.3345387960631725,0.6250705729762727
1658790038768283,0.7119859616998552,-0.34735637445639744,0.6602273594262611
1658790038784276,0.7085679407949952,-0.32587167162584896,0.6558327611200125
1658790038800268,0.7072251468680859,-0.3194018463416497,0.6287327382314798
1658790038816260,0.7029526207370109,-0.33221942473487465,0.6356908522163733
1658790038832252,0.6936751354238195,-0.33856717784390034,0.6603494316014347
1658790038848244,0.689280537117571,-0.3353933012893875,0.6896467536430917
1658790038864236,0.6902571145189595,-0.349187457084001,0.679880979629206
1658790038880229,0.6968490119783324,-0.3434500648508432,0.6653543907835511
1658790038896221,0.6883039597161824,-0.32806897077897323,0.6470435645075154
1658790038912213,0.6743877317463953,-0.3501640344853896,0.6796368352788589
1658790038928205,0.6653543907835511,-0.3513847562371253,0.673899443045701
1658790038944197,0.6757305256733046,-0.3411306935225453,0.6698710612649732
1658790038960189,0.6724345769436182,-0.33978789959563604,0.6791485465781646
1658790038976182,0.6585183489738311,-0.3546807049668117,0.7060044251163502
1658790038992174,0.650583657587549,-0.36408026245517666,0.7046616311894409
1658790039008166,0.6470435645075154,-0.36627756160830094,0.7018539711604488
1658790039024170,0.641184100099184,-0.351750972762646,0.6902571145189595
1658790039040162,0.6281223773556119,-0.35700007629510955,0.7188220035095751
1658790039056154,0.6146944380865182,-0.37299153124284734,0.7433585107194629
1658790039072146,0.6242160677500568,-0.35407034409094384,0.7396963454642558
1658790039088138,0.6356908522163733,-0.3403982604715039,0.7206530861371787
1658790039104130,0.6209201190203704,-0.35443656061646456,0.7414053559166858
1658790039120123,0.6126192111085675,-0.3773861295490959,0.7611810482948043
1658790039136115,0.6074921797512776,-0.38471046005951015,0.7674067292286564
1658790039152107,0.609079118028534,-0.39777218280308224,0.7769283588921949
1658790039168099,0.6084687571526661,-0.36408026245517666,0.7537346456092164
1658790039184091,0.594552529182879,-0.3757991912718395,0.7686274509803921
1658790039200083,0.5886930647745476,-0.3882505531395437,0.7812008850232699
1658790039216076,0.5877164873731591,-0.3739681086442359,0.7775387197680628
1658790039232068,0.5889372091248948,-0.356023498893721,0.7608148317692836
1658790039248060,0.5722133211261156,-0.3665217059586481,0.7678950179293507
1658790039264052,0.563546196688792,-0.3782406347753109,0.7639887083237964
1658790039280044,0.5537804226749063,-0.3714045929655909,0.7702143892576485
1658790039296036,0.5568322270542456,-0.3617608911268788,0.7650873579003585
1658790039312029,0.5639124132143127,-0.35663385976958883,0.7733882658121614
1658790039328021,0.558419165331502,-0.3761654077973602,0.7786373693446249
1658790039343994,0.5498741130693521,-0.39520866712443725,0.7782711528191042
1658790039359986,0.5465781643396657,-0.3941100175478751,0.7776607919432363
1658790039375978,0.5509727626459142,-0.3711604486152438,0.7748531319142442
1658790039391970,0.5373006790264743,-0.35272755016403456,0.7720454718852521
1658790039407962,0.5249713893339436,-0.34308384832532246,0.784863050278477
1658790039423955,0.5106889448386358,-0.350896467536431,0.7821774624246585
1658790039439947,0.5094682230869001,-0.35992980849927525,0.7936522468909741
1658790039455939,0.5161821927214465,-0.36322575722896167,0.7978027008468755
1658790039471931,0.5064164187075608,-0.3635919737544824,0.8076905470359348
1658790039487923,0.502388036926833,-0.37372396429388877,0.8263675898374911
1658790039503915,0.5089799343862058,-0.36200503547722596,0.8225833524071104
1658790039519908,0.5202105745021743,-0.3722590981918059,0.8302738994430454
1658790039535900,0.5105668726634622,-0.3760433356221866,0.8164797436484319
1658790039551892,0.49164568551155874,-0.3875181200885023,0.8305180437933926
1658790039567884,0.47479972533760595,-0.40070191500724794,0.8455329213397418
1658790039583876,0.4695506218051424,-0.3832455939574273,0.8417486839093611
1658790039599868,0.47687495231555665,-0.3648126955062181,0.8480964370183868
1658790039615861,0.48102540627145807,-0.35785458152132454,0.8241702906843669
1658790039631853,0.4674753948271917,-0.3639581902800031,0.829541466392004
1658790039647845,0.45331502250705746,-0.36151674677653167,0.8189211871519033
1658790039663787,0.44867627985046177,-0.3559014267185474,0.8142824444953076
1658790039679780,0.4581979095140003,-0.3734798199435416,0.8267338063630119
1658790039695772,0.4522163729304953,-0.3787289234760052,0.8203860532539862
1658790039711764,0.43622491798275753,-0.3789730678263523,0.8291752498664833
1658790039727756,0.42560463874265686,-0.37177080949111163,0.826123445487144
1658790039743748,0.43329518577859183,-0.37335774776836805,0.8524910353246353
1658790039759740,0.4384222171358818,-0.37384603646906234,0.849439230945296
1658790039775733,0.42096589608606116,-0.37592126344701304,0.8557869840543217
1658790039791725,0.4010681315327691,-0.384466315709163,0.8723887998779274
1658790039807717,0.390569924467842,-0.39020370794232084,0.8854505226215004
1658790039823709,0.4024109254596784,-0.3732356755931945,0.8769054703593504
1658790039839701,0.4086366063935305,-0.36993972686350807,0.8911879148546582
1658790039855693,0.39923704890516554,-0.36456855115587095,0.9030289158464946
1658790039871686,0.3930113679713134,-0.37042801556420235,0.8959487296864275
1658790039887678,0.3921568627450984,-0.38800640878919657,0.8938735027084768
1658790039903670,0.3960631723506527,-0.3980163271534294,0.8950942244602125
1658790039919662,0.37994964522774133,-0.39850461585412367,0.897779812314031
1658790039935654,0.3659113450827798,-0.4068055237659265,0.908888380254826
1658790039951646,0.3633478294041348,-0.3933775844968337,0.9040054932478832
1658790039967639,0.36725413900968906,-0.3646906233310445,0.8789806973373011
1658790039983642,0.3557793545433734,-0.3505302510109103,0.8599374380102232
1658790039999634,0.345647364003967,-0.38849469748989085,0.8902113374532696
1658790040015627,0.3392996108949413,-0.4088807507438772,0.8871595330739304
1658790040031619,0.33990997177080917,-0.39899290455481795,0.8789806973373011
1658790040047611,0.349919890135042,-0.38983749141680013,0.8762951094834825
1658790040063603,0.3335622186617835,-0.39362172884718083,0.8703135728999767
1658790040079595,0.31940184634164925,-0.3991149767299915,0.8719005111772331
1658790040095587,0.30780498970016,-0.3920347905699244,0.8688487067978938
1658790040111580,0.31512932021057427,-0.3963073167009994,0.8747081712062252
1658790040127572,0.3192797741664757,-0.39313344014648655,0.8760509651331354
1658790040143564,0.31134508278019357,-0.41828030823224216,0.9068131532768753
1658790040159556,0.306950484473945,-0.4329289692530707,0.9289082169832916
1658790040175548,0.3067063401235979,-0.4269474326695657,0.929640650034333
1658790040191540,0.310368505378805,-0.4092469672693979,0.9257343404287788
1658790040207533,0.31146715495536714,-0.4164492256046386,0.9622339208056765
1658790040223525,0.30426489662012646,-0.4361028458075835,0.9689478904402229
1658790040239517,0.31146715495536714,-0.4293888761730371,0.9807888914320593
1658790040255509,0.3217212176699471,-0.41620508125429145,1.0066681925688563
1658790040271501,0.3179369802395664,-0.4335393301289385,1.0456092164492254
1658790040287493,0.3132982375829707,-0.4673533226520181,1.0518348973830776
1658790040303466,0.2965743495841915,-0.4984817273212787,1.067948424505989
1658790040319459,0.30060273136491933,-0.498115510795758,1.0978561074235138
1658790040335451,0.30218966964217575,-0.4956740672922866,1.1226367589837487
1658790040351443,0.29974822613870433,-0.49323262378881516,1.1393606469825288
1658790040367435,0.3019455252918286,-0.49787136644541086,1.1272755016403453
1658790040383427,0.2944991226062408,-0.5018997482261387,1.0849164568551153
1658790040399419,0.2923018234531165,-0.49701686121919586,1.0806439307240403
1658790040415412,0.2985275043869686,-0.4874952315556573,1.0885786221103224
1658790040431404,0.30133516441596075,-0.4812695506218052,1.0917524986648353
1658790040447396,0.3019455252918286,-0.4948195620660716,1.0703898680094603
1658790040463388,0.30170138094148147,-0.4997024490730144,1.0270542458228427
1658790040479380,0.30463111314564717,-0.49994659342336156,1.0214389257648584
1658790040495372,0.313786526283665,-0.5047074082551308,1.0230258640421148
1658790040511365,0.3309987029831385,-0.4959182116426337,1.040604257267109
1658790040527357,0.33917753871976775,-0.46845197222858026,1.0091096360723277
1658790040543349,0.3389333943694206,-0.42670328831921855,0.9618677042801558
1658790040559341,0.3419851987487599,-0.42426184481574714,0.9086442359044788
1658790040575333,0.3485770962081327,-0.44501411459525464,0.933058670939193
1658790040591325,0.35675593194476196,-0.45844205386434744,0.9676050965133136
1658790040607318,0.3621271076523991,-0.45087357900358604,0.9699244678416115
1658790040623291,0.3851987487602049,-0.4374456397344928,0.932204165712978
1658790040639283,0.3959411001754791,-0.43671320668345137,0.8972915236133368
1658790040655275,0.4175478751812012,-0.41571679255359717,0.8979018844892046
1658790040671267,0.4253604943923097,-0.39020370794232084,0.8900892652780961
1658790040687259,0.4308537422751204,-0.37933928435187303,0.8771496147096975
1658790040703251,0.4367132066834518,-0.3789730678263523,0.8524910353246353
1658790040719244,0.44245059891660965,-0.3883726253147173,0.8460212100404361
1658790040735236,0.4545357442587932,-0.39813839932860295,0.8542000457770653
1658790040751228,0.4627145799954224,-0.4110780498970015,0.8510261692225525
1658790040767220,0.48566414892805376,-0.39948119325551223,0.8257572289616233
1658790040783212,0.5105668726634622,-0.37799649042496375,0.8152590218966962
1658790040799204,0.5133745326924544,-0.3856870374608987,0.8118410009918362
1658790040815197,0.5271686884870679,-0.35565728236820027,0.8109864957656212
1658790040831189,0.5332722972457464,-0.3467460135805296,0.7821774624246585
1658790040847181,0.5441367208361942,-0.3417410543984132,0.7471427481498436
1658790040863173,0.5498741130693521,-0.3319752803845275,0.7301747158007172
1658790040879165,0.5608606088349735,-0.3471122301060503,0.7472648203250172
1658790040895157,0.5752651255054548,-0.3789730678263523,0.742748149843595
1658790040911150,0.5827115281910427,-0.39386587319752797,0.7454337376974136
1658790040927142,0.5998016327153426,-0.36029602502479596,0.7261463340199894
1658790040943115,0.6037079423208969,-0.32965590905622966,0.6680399786373696
1658790040959107,0.6227512016479739,-0.32709239337758467,0.6644998855573361
1658790040975098,0.6444800488288704,-0.34235141527428103,0.6846417944609753
1658790040991090,0.6482642862592511,-0.33759060044251177,0.6873273823147938
1658790041007082,0.6624246585793854,-0.3168383306630047,0.6320286869611662
1658790041023073,0.6525368123903261,-0.33136491950865965,0.5912565804531926
1658790041039065,0.6613260090028232,-0.35529106584267955,0.6063935301747154
1658790041055057,0.6752422369726103,-0.3361257343404289,0.6175020981155104
1658790041071048,0.7064927138170445,-0.3235523002975511,0.6607156481269554
1658790041087040,0.7155260547798887,-0.32623788815136967,0.6123750667582204
1658790041103032,0.7204089417868316,-0.31793698023956685,0.5418173495078964
1658790041119023,0.7270008392462044,-0.321599145494774,0.5283894102388036
1658790041135015,0.7268787670710308,-0.3504081788357367,0.574654764629587
1658790041151007,0.7425040054932479,-0.31451895933470686,0.6105439841306168
1658790041166998,0.7595941100175478,-0.2746013580529487,0.5486533913176164
1658790041182990,0.7573968108644236,-0.2730144197756923,0.45929655909056244
1658790041198982,0.766674296177615,-0.2927901121538108,0.4552681773098346
1658790041214974,0.7826657511253527,-0.29974822613870433,0.5048294804303044
1658790041230965,0.7941405355916684,-0.27826352330815585,0.5254596780346379
1658790041246957,0.7989013504234377,-0.27069504844739445,0.49616235599298086
1658790041262970,0.795971618219272,-0.2890058747234301,0.4649118791485467
1658790041278961,0.7962157625696191,-0.2747234302281223,0.4137636377508205
1658790041294953,0.8085450522621498,-0.2620279240100709,0.4254825665674833
1658790041310945,0.8118410009918362,-0.26349279011215376,0.4446478980697339
1658790041326936,0.8126955062180512,-0.28632028686961153,0.44623483634699035
1658790041342928,0.8258793011367969,-0.29010452429999223,0.4182803082322426
1658790041358920,0.8256351567864497,-0.2666666666666666,0.3653009842069119
1658790041374911,0.8230716411078047,-0.26056305790798806,0.3432059205004956
1658790041390903,0.8224612802319369,-0.2670328831921873,0.3554131380178527
1658790041406895,0.8349126420996411,-0.27411306935225443,0.3913023575188834
1658790041422886,0.8460212100404361,-0.277653162432288,0.39044785229266843
1658790041438878,0.8615243762874796,-0.27069504844739445,0.34833295185778557
1658790041454870,0.8714122224765388,-0.25885404745555807,0.29120317387655437
1658790041470862,0.8740978103303574,-0.24725719081406883,0.281925688563363
1658790041486853,0.8811779964904254,-0.26739909971770803,0.33197528038452706
1658790041502845,0.8933852140077825,-0.26739909971770803,0.3502861066605627
1658790041518837,0.9070572976272224,-0.2205233844510568,0.3108567940794993
1658790041534828,0.9059586480506603,-0.240665293354696,0.29877164873731576
1658790041550820,0.895216296635386,-0.2532387273975738,0.27069504844739445
1658790041566812,0.8974135957885103,-0.26141756313420306,0.2985275043869686
1658790041582794,0.8933852140077825,-0.2775310902571144,0.3363698786907756
1658790041598786,0.8869153887235832,-0.2575112535286488,0.30609597924773
1658790041614777,0.8968032349126425,-0.23627069504844744,0.25226214999618524
1658790041630769,0.9099870298313881,-0.23236438544289317,0.22565041580834677
1658790041646761,0.9219501029983981,-0.2628824292362859,0.27875181200885013
1658790041662752,0.9198748760204474,-0.27106126497291516,0.3024338139925229
1658790041678744,0.9185320820935381,-0.2658121614404516,0.2532387273975738
1658790041694736,0.9223163195239188,-0.27997253376058584,0.2439612420843824
1658790041710727,0.9317158770122838,-0.2709391927977416,0.2322423132677196
1658790041726719,0.934767681391623,-0.273380636301213,0.23627069504844744
1658790041742711,0.9279316395819031,-0.2659342336156252,0.24383916990920884
1658790041758702,0.9235370412756545,-0.25604638742656594,0.20416571297779829
1658790041774694,0.9230487525749602,-0.25018692301823453,0.1864652475776305
1658790041790686,0.9323262378881516,-0.25348287174792095,0.17376974135957912
1658790041806677,0.9384298466468302,-0.26861982146944374,0.1902494850080112
1658790041822669,0.949294270237278,-0.26190585183489734,0.19415579461356547
1658790041838661,0.9445334554055087,-0.2339513237201496,0.1276264591439693
1658790041854653,0.9336690318150609,-0.22784771496147105,0.10577553978789922
1658790041870644,0.9420920119020373,-0.2410315098802167,0.1276264591439693
1658790041886636,0.9607690547035936,-0.2284580758373389,0.15472648203250206
1658790041902618,0.9875028610666057,-0.22040131227588322,0.1868314641031512
1658790041918610,0.9855497062638285,-0.2175936522468911,0.15545891508354348
1658790041934601,0.9599145494773786,-0.19000534065766406,0.0386358434424352
1658790041950593,0.9369649805447473,-0.19513237201495404,-0.011169604028381741
1658790041966585,0.9232928969253074,-0.22113374532692465,0.040344853894865196
1658790041982576,0.9270771343556881,-0.22064545662623036,0.11773861295490917
1658790041998568,0.9550316624704358,-0.1862211032272829,0.14752422369726137
1658790042014560,0.9595483329518579,-0.20856031128404684,0.0844129091325243
1658790042030552,0.9420920119020373,-0.21112382696269183,-0.0037232013427939137
1658790042046543,0.937331197070268,-0.21014724956130326,-0.007263294422827471
1658790042062535,0.9512474250400551,-0.20782787823300541,0.0726939803158615
1658790042078527,0.9702906843671322,-0.1948882276646069,0.09332417792019498
1658790042094518,0.9829861905851836,-0.15704585336079946,0.03582818341344307
1658790042110510,0.9645532921339743,-0.13556115053025097,-0.057190814068817986
1658790042126502,0.9406271457999544,-0.1526512550545509,-0.05267414358739586
1658790042142493,0.948439765011063,-0.17254901960784297,-0.01495384145876244
1658790042158485,0.9533226520180058,-0.15326161593041876,0.0021362630655374915
1658790042174477,0.9613794155794615,-0.15716792553597303,-0.0025024795910582043
1658790042190468,0.9511253528648815,-0.16644541084916442,-0.052918287937743
1658790042206460,0.9420920119020373,-0.18255893797207579,-0.08892957961394687
1658790042222473,0.9594262607766844,-0.18231479362172864,-0.05413900968947871
1658790042238464,0.9699244678416115,-0.16180666819256873,-0.04962233920805659
1658790042254456,0.9672388799877929,-0.15289539940489805,-0.07098496986343195
1658790042270448,0.9647974364843215,-0.14483863584344236,-0.10821698329137108
1658790042286440,0.9575951781490808,-0.1485008010986495,-0.10418860151064324
1658790042302431,0.9530785076676587,-0.17096208133058655,-0.10174715800717182
1658790042318423,0.9661402304112308,-0.1526512550545509,-0.09759670405127041
1658790042334415,0.9712672617685207,-0.13958953231097881,-0.1325093461509117
1658790042350406,0.9770046540016786,-0.1581445029373616,-0.1275043869687953
1658790042366398,0.9588158999008165,-0.18341344319829078,-0.11334401464866106
1658790042382390,0.9481956206607158,-0.1876859693293662,-0.11554131380178534
1658790042398381,0.9550316624704358,-0.17206073090714868,-0.12237735561150531
1658790042414373,0.9668726634622722,-0.17901884489204223,-0.09515526054779899
1658790042430365,0.9696803234912643,-0.1774319066147858,-0.10089265278095683
1658790042446356,0.9729762722209507,-0.15753414206149374,-0.13690394445716025
1658790042462348,0.9619897764553293,-0.14703593499656664,-0.1522850385290302
1658790042478340,0.9499046311131458,-0.14544899671931022,-0.1421530479896238
1658790042494331,0.9408712901503016,-0.14166475928892952,-0.162294956893263
1658790042510323,0.9448996719310294,-0.12713817044327458,-0.15997558556496516
1658790042526315,0.9463645380331123,-0.14239719233997095,-0.13897917143511096
1658790042542266,0.9463645380331123,-0.1308003356984817,-0.14691386282139307
1658790042558258,0.9459983215075916,-0.14105439841306167,-0.15704585336079946
1658790042574250,0.9539330128938737,-0.1455710688944838,-0.17975127794308365
1658790042590242,0.9654077973601893,-0.14789044022278164,-0.17108415350576012
1658790042606233,0.9679713130388343,-0.1652246890974287,-0.16034180209048587
1658790042622225,0.9622339208056765,-0.14740215152208735,-0.18793011367971335
1658790042638217,0.9685816739147022,-0.11676203555352105,-0.19757381551842546
1658790042654208,0.9634546425574122,-0.11053635461966893,-0.19012741283283763
1658790042670200,0.9650415808346686,-0.11969176775768675,-0.16827649347676799
1658790042686192,0.9672388799877929,-0.13360799572747384,-0.1598535133897916
1658790042702183,0.9533226520180058,-0.1354390783550774,-0.15619134813458446
1658790042718175,0.9400167849240866,-0.12335393301289388,-0.1627832455939573
1658790042734167,0.9269550621805145,-0.12225528343633174,-0.18634317540245648
1658790042750158,0.9276874952315559,-0.10357824063477539,-0.18805218585488692
1658790042766150,0.9428244449530787,-0.11407644769970249,-0.16705577172503228
1658790042782142,0.9463645380331123,-0.12152285038529032,-0.1774319066147858
1658790042798133,0.9494163424124515,-0.11981383993286032,-0.20721751735713756
1658790042814125,0.9423361562523844,-0.10955977721828036,-0.24298466468299385
1658790042830117,0.9379415579461359,-0.09845120927748541,-0.2927901121538108
1658790042846109,0.9384298466468302,-0.11200122072175178,-0.2671549553673609
1658790042862091,0.9419699397268637,-0.1211566338597696,-0.26434729533836876
1658790042878082,0.9417257953765166,-0.11895933470664533,-0.26727702754253446
1658790042894074,0.9477073319600215,-0.10821698329137108,-0.2650797283894102
1658790042910066,0.9489280537117573,-0.11944762340733961,-0.2905928130006865
1658790042926057,0.9380636301213094,-0.11383230334935535,-0.35199511711299314
1658790042942049,0.9370870527199209,-0.09613183794918756,-0.35187304493781957
1658790042958041,0.941603723201343,-0.0829480430304419,-0.35870908674753954
1658790042974033,0.9524681467917908,-0.050476844434271584,-0.3600518806744488
1658790042990024,0.9523460746166172,-0.05938811322194226,-0.37958342870222017
1658790043006016,0.9461203936827651,-0.06451514457923269,-0.4085145342183565
1658790043022008,0.9385519188220037,-0.053406576638437286,-0.4281681544213014
1658790043037999,0.9351338979171437,-0.07037460898756409,-0.421454184786755
1658790043053991,0.9175555046921495,-0.08734264133669045,-0.4114442664225222
1658790043069983,0.9175555046921495,-0.06024261844815726,-0.39935912108033866
1658790043085974,0.9065690089265281,-0.04522774090180803,-0.40521858548867007
1658790043101966,0.9110856794079503,-0.042786297398336615,-0.40827038986800934
1658790043117958,0.9090104524299996,-0.036194399938963784,-0.41034561684596005
1658790043133949,0.9093766689555203,-0.051941710536354435,-0.38300144960708016
1658790043149941,0.9207293812466624,-0.06305027847714983,-0.3727473868925002
1658790043165933,0.9309834439612423,-0.057190814068817986,-0.3656672007324331
1658790043181915,0.9418478675516901,-0.04132143129625376,-0.3546807049668117
1658790043197907,0.9403830014496073,-0.04364080262455161,-0.3504081788357367
1658790043213898,0.9363546196688795,-0.05914396887159512,-0.3438162813763639
1658790043229890,0.9324483100633252,-0.06475928892957983,-0.3206225680933854
1658790043245882,0.933913176165408,-0.06927595941100195,-0.2888838025482565
1658790043261873,0.9323262378881516,-0.06671244373235696,-0.2880292973220415
1658790043277865,0.9411154345006487,-0.06305027847714983,-0.2831464103150987
1658790043293857,0.9400167849240866,-0.07855344472419334,-0.27447928587777515
1658790043309848,0.9346456092164495,-0.07354848554207694,-0.2813153276874951
1658790043325840,0.9307392996108952,-0.07306019684138265,-0.2746013580529487
1658790043341832,0.9318379491874573,-0.07391470206759765,-0.24921034561684596
1658790043357823,0.9431906614785994,-0.0762340733958955,-0.23260852979324032
1658790043373815,0.9428244449530787,-0.08575570305943403,-0.21857022964827966
1658790043389807,0.9469748989089801,-0.07476920729381265,-0.23175402456702532
1658790043405799,0.9385519188220037,-0.08355840390630975,-0.2272373540856032
1658790043421790,0.9406271457999544,-0.093446250095369,-0.23175402456702532
1658790043437782,0.9466086823834594,-0.10431067368581681,-0.19891660944533474
1658790043453774,0.9551537346456094,-0.09185931181811258,-0.18927290760662263
1658790043469765,0.9553978789959565,-0.08441290913252475,-0.18915083543144906
1658790043485757,0.9546654459449151,-0.08111696040283833,-0.17291523613336368
1658790043501770,0.9491721980621044,-0.11578545815213248,-0.13177691309987027
1658790043517761,0.9556420233463037,-0.12506294346532387,-0.1333638513771267
1658790043533753,0.9573510337987337,-0.1328755626764324,-0.13873502708476382
1658790043549745,0.9580834668497751,-0.13678187228198668,-0.10919356069275965
1658790043565736,0.9532005798428322,-0.13702601663233382,-0.06878767071030767
1658790043581728,0.9525902189669644,-0.132143129625391,-0.0567025253681237
1658790043597720,0.9430685893034259,-0.128725108720531,-0.08624399176012831
1658790043613711,0.9486839093614101,-0.13580529488059812,-0.06915388723582838
1658790043629703,0.939040207522698,-0.1502098115510795,-0.025574120698863112
1658790043645695,0.9486839093614101,-0.1543602655069809,0.0025024795910582043
1658790043661687,0.946730754558633,-0.15204089417868305,-0.002990768291752488
1658790043677678,0.9361104753185323,-0.1782864118410008,0.007995727473868897
1658790043693670,0.9315938048371102,-0.19269092851148262,0.03326466773479808
1658790043709662,0.9385519188220037,-0.19391165026321833,0.037537193865873064
1658790043725653,0.9463645380331123,-0.1837796597238115,0.019592584115358136
1658790043741645,0.951857785915923,-0.18561074235141506,0.06024261844815726
1658790043757637,0.951003280689708,-0.18194857709620793,0.08075074387731718
1658790043773628,0.9585717555504694,-0.16754406042572656,0.0852674143587393
1658790043789620,0.9575951781490808,-0.1732814526588844,0.0831921873807886
1658790043805612,0.9536888685435265,-0.18426794842450578,0.09808499275196425
1658790043821563,0.9372091248950944,-0.19452201113908618,0.11908140688181845
1658790043837555,0.934767681391623,-0.20050354772259116,0.12982375829709358
1658790043853547,0.9379415579461359,-0.19427786678873904,0.14081025406271497
1658790043869538,0.933913176165408,-0.1846341649500265,0.13849088273441712
1658790043885530,0.9318379491874573,-0.17254901960784297,0.13836881055924355
1658790043901522,0.930495155260548,-0.17987335011825722,0.15924315251392418
1658790043917513,0.9269550621805145,-0.21429770351720467,0.17755397878995982
1658790043933505,0.913160906385901,-0.2435950255588617,0.1981841763942933
1658790043949497,0.9180437933928438,-0.21979095140001537,0.1902494850080112
1658790043965489,0.9317158770122838,-0.1961089494163426,0.20502021820401328
1658790043981480,0.9334248874647137,-0.2108796826123447,0.21869230182345323
1658790043997472,0.9324483100633252,-0.2238193331807432,0.23041123064011604
1658790044013464,0.9232928969253074,-0.2205233844510568,0.22833600366216533
1658790044029455,0.9324483100633252,-0.19134813458457334,0.24713511863889526
1658790044045447,0.9175555046921495,-0.2343175402456703,0.29596398870832363
1658790044061439,0.9102311741817353,-0.2746013580529487,0.3410086213473713
1658790044077430,0.910597390707256,-0.2709391927977416,0.3419851987487599
1658790044093422,0.9151140611886781,-0.2571450370031281,0.3187914854657814
1658790044109414,0.9188982986190588,-0.22418554970626392,0.2915693904020751
1658790044125405,0.9043717097734039,-0.2611734187838559,0.3174486915388721
1658790044141388,0.8987563897154196,-0.2780193789578087,0.3532158388647284
1658790044157379,0.9032730601968417,-0.26691081101701375,0.34003204394598274
1658790044173371,0.8992446784161139,-0.26825360494392303,0.31989013504234354
1658790044189363,0.8866712443732361,-0.2982833600366215,0.3419851987487599
1658790044205354,0.8847180895704589,-0.3159838254367897,0.35797665369649767
1658790044221346,0.8933852140077825,-0.29889372091248934,0.34540321965361986
1658790044237338,0.9000991836423289,-0.2876630807965208,0.3594415197985805
1658790044253329,0.8950942244602125,-0.29669642175936506,0.37726405737392277
1658790044269321,0.8811779964904254,-0.31415274280918615,0.3762874799725342
1658790044285313,0.8766613260090033,-0.32806897077897323,0.37726405737392277
1658790044301304,0.878736552986954,-0.31451895933470686,0.38068207827878275
1658790044317296,0.8664072632944224,-0.31415274280918615,0.3833676661326013
1658790044333288,0.8659189745937281,-0.317326619363699,0.38788433661402344
1658790044349280,0.8659189745937281,-0.3067063401235979,0.3855649652857256
1658790044365271,0.8600595101853967,-0.31451895933470686,0.3900816357671477
1658790044381263,0.8484626535439075,-0.3152513923857483,0.3986266880292977
1658790044397255,0.8378423743038068,-0.3218432898451211,0.4015564202334634
1658790044413246,0.8379644464789804,-0.3189135576409554,0.3859311818112463
1658790044429238,0.8374761577782861,-0.3345387960631725,0.41522850385290333
1658790044445230,0.8430914778362704,-0.3247730220492868,0.4174258030060276
1658790044461242,0.8455329213397418,-0.33270771343556893,0.4439154650186925
1658790044477234,0.8490730144197753,-0.33099870298313894,0.4182803082322426
1658790044493226,0.8317387655451283,-0.3306324864576182,0.4115663385976962
1658790044509217,0.826123445487144,-0.3266041046768904,0.4497749294270239
1658790044525209,0.8168459601739526,-0.35236133363851385,0.5072709239337758
1658790044541201,0.8205081254291597,-0.3331960021362632,0.4935988403143359
1658790044557192,0.8246585793850612,-0.32257572289616254,0.4716258487830931
1658790044573184,0.8129396505683983,-0.32880140383001466,0.49958037689784085
1658790044589176,0.804516670481422,-0.3369802395666439,0.5321736476691843
1658790044605167,0.791699092088197,-0.3600518806744488,0.5409628442816814
1658790044621159,0.7935301747158006,-0.34235141527428103,0.5031204699778744
1658790044637151,0.7853513389791713,-0.3504081788357367,0.5112993057145037
1658790044653143,0.7755855649652856,-0.35565728236820027,0.5653772793163956
1658790044669134,0.7772945754177156,-0.3400320439459832,0.5855191882200348
1658790044685126,0.7753414206149385,-0.35077439536125743,0.5586633096818492
1658790044701118,0.7736324101625085,-0.3610284580758374,0.5353475242236971
1658790044717109,0.7656977187762264,-0.36029602502479596,0.541084916456855
1658790044733101,0.7565423056382086,-0.34821087968261244,0.5808804455634391
1658790044749093,0.751293202105745,-0.3530937666895553,0.5999237048905162
1658790044765084,0.7575188830395971,-0.34699015793087673,0.5718471046005948
1658790044781067,0.7462882429236286,-0.3576104371709774,0.5574425879301135
1658790044797058,0.731395437552453,-0.35992980849927525,0.5946746013580526
1658790044813050,0.716868848706798,-0.3799496452277409,0.6398413061722747
1658790044829042,0.7128404669260702,-0.3841000991836423,0.6323949034866869
1658790044845033,0.7178454261081866,-0.38214694438086516,0.6063935301747154
1658790044861025,0.7118638895246816,-0.3682307164110781,0.6229953459983211
1658790044877017,0.6988021667811095,-0.37091630426489663,0.6570534828717483
1658790044893008,0.6956282902265967,-0.37079423208972306,0.6619363698786911
1658790044909000,0.6995345998321509,-0.3739681086442359,0.6605935759517818
1658790044924992,0.6923323414969103,-0.3646906233310445,0.6275120164797441
1658790044940983,0.6839093614099339,-0.3768978408484016,0.6701152056153203
1658790044956975,0.6748760204470896,-0.39276722362096583,0.6776836804760817
1658790044972967,0.6762188143739989,-0.39691767757686724,0.6856183718623639
1658790044988958,0.6856183718623639,-0.39472037842374297,0.6826886396581981
1658790045004950,0.6737773708705275,-0.40363164721141365,0.6559548332951861
1658790045020942,0.6594949263752197,-0.40692759594110006,0.6724345769436182
1658790045036934,0.6481422140840776,-0.41547264820325003,0.7136949721522852
1658790045052925,0.6542458228427561,-0.40192263675898365,0.6870832379644467
1658790045068917,0.6569314106965747,-0.3816586556801709,0.6631570916304268
1658790045084909,0.642893110551614,-0.39935912108033866,0.6809796292057682
1658790045100860,0.6190890363927668,-0.4071717402914472,0.7094224460212102
1658790045116852,0.6093232623788811,-0.41290913252460504,0.731395437552453
1658790045132844,0.6161593041886011,-0.42230869001297,0.7200427252613109
1658790045148835,0.6240939955748832,-0.40949111161974505,0.691844052796216
1658790045164827,0.6187228198672461,-0.40314335851071936,0.6967269398031588
1658790045180819,0.6021210040436404,-0.41083390554665433,0.717723353933013
1658790045196810,0.596261539635309,-0.40411993591210793,0.7227283131151294
1658790045212802,0.5930876630807962,-0.38800640878919657,0.6782940413519496
1658790045228794,0.5873502708476384,-0.393011367971313,0.6942854962996874
1658790045244785,0.5717250324254213,-0.4042420080872815,0.7162584878309302
1658790045260777,0.5709925993743799,-0.421454184786755,0.7384756237125201
1658790045276769,0.5795376516365298,-0.4285343709468221,0.7367666132600901
1658790045292760,0.591989013504234,-0.41278706034943147,0.7312733653772794
1658790045308752,0.5839322499427784,-0.4013122758831158,0.7390859845883879
1658790045324744,0.5696498054474706,-0.4083924620431829,0.7749752040894178
1658790045340736,0.5531700617990385,-0.42413977264057356,0.7733882658121614
1658790045356727,0.5523155565728235,-0.424872205691615,0.7650873579003585
1658790045372719,0.5454795147631035,-0.42963302052338426,0.768383306630045
1658790045388711,0.5344930189974821,-0.41913481345845716,0.7766842145418478
1658790045404702,0.5204547188525215,-0.43903257801174966,0.7827878233005263
1658790045420715,0.5199664301518272,-0.44879835202563534,0.7807125963225756
1658790045436707,0.5313191424429693,-0.44074158846417966,0.7830319676508735
1658790045452698,0.5250934615091172,-0.4348821240558478,0.7713130388342107
1658790045468690,0.5193560692759593,-0.42377355611505285,0.7737544823376821
1658790045484682,0.504097047379263,-0.43305104142824424,0.7768062867170213
1658790045500673,0.49628442816815443,-0.4190127412832836,0.7699702449073014
1658790045516665,0.498115510795758,-0.4176699473563743,0.7440909437705043
1658790045532657,0.4874952315556573,-0.41583886472877074,0.7488517586022736
1658790045548648,0.47943846799420164,-0.42340733958953214,0.7753414206149385
1658790045564640,0.4682078278782331,-0.45160601205462747,0.7759517814908063
1658790045580632,0.46930647745479526,-0.46015106431677744,0.7645990691996642
1658790045596624,0.46686503395132384,-0.45294880598153675,0.7536125734340429
1658790045612615,0.4574654764629589,-0.46308079652094314,0.7725337605859464
1658790045628607,0.4507515068284125,-0.45380331120775175,0.7819333180743113
1658790045644599,0.45136186770428033,-0.4402532997634854,0.7904783703364613
1658790045660590,0.44330510414282465,-0.45209430075532175,0.8032959487296862
1658790045676582,0.43451590753032754,-0.44708934157320535,0.8214847028305483
1658790045692574,0.4274357213702604,-0.45416952773327246,0.8390630960555425
1658790045708565,0.427557793545434,-0.46015106431677744,0.8349126420996411
1658790045724557,0.4236514839398797,-0.4683299000534067,0.8600595101853967
1658790045740539,0.40973525597009264,-0.46552224002441456,0.8568856336308839
1658790045756531,0.40375371938658766,-0.4708934157320517,0.8611581597619589
1658790045772523,0.4053406576638441,-0.48651865415426876,0.8712901503013653
1658790045788514,0.4122987716487376,-0.4809033340962845,0.8678721293965053
1658790045804506,0.39081406881818914,-0.48651865415426876,0.8627450980392153
1658790045820498,0.37482261387045046,-0.4614938582436867,0.8542000457770653
1658790045836489,0.3705500877393755,-0.464545662623026,0.8549324788281067
1658790045852481,0.3688410772869455,-0.46808575570305955,0.8609140154116117
1658790045868473,0.3778744182497906,-0.4771190966659038,0.880445563439384
1658790045884464,0.36639963378347407,-0.46894026092927454,0.8539559014267182
1658790045900456,0.3557793545433734,-0.47687495231555665,0.8367437247272447
1658790045916448,0.35468070496681126,-0.4831006332494088,0.8069581139848934
1658790045932439,0.350774395361257,-0.4821240558480202,0.7970702677958341
1658790045948431,0.33881132219424703,-0.46173800259403386,0.818432898451209
1658790045964423,0.33588158999008133,-0.45917448691538887,0.8706797894254974
1658790045980414,0.32526131074998066,-0.46173800259403386,0.8500495918211639
1658790045996406,0.31866941329060783,-0.45587853818570245,0.8115968566414891
1658790046012398,0.32648203250171637,-0.4451361867704282,0.7981689173723963
1658790046028390,0.3119554436560614,-0.4514839398794539,0.8364995803768975
1658790046044381,0.31134508278019357,-0.4494087129015032,0.8881361104753189
1658790046060363,0.2982833600366215,-0.45917448691538887,0.8899671931029225
1658790046076355,0.2926680399786372,-0.4755321583886474,0.8642099641412981
1658790046092347,0.2993820096131836,-0.4931105516136416,0.877027542534524
1658790046108338,0.29877164873731576,-0.5060502021820401,0.900343327992676
1658790046124330,0.3165941863126571,-0.49579613946746015,0.9445334554055087
1658790046140322,0.3119554436560614,-0.4965285725185016,0.9873807888914321
1658790046156314,0.30389868009460574,-0.5138628213931486,0.9898222323949035
1658790046172305,0.29169146257724865,-0.5022659647516594,0.9978789959563592
1658790046188297,0.2982833600366215,-0.4850537880521859,1.0142366674296177
1658790046204289,0.29376668955519936,-0.4791943236438545,1.032913710231174
1658790046220280,0.2860761425192644,-0.492988479438468,1.0242465857938505
1658790046236272,0.275089646753643,-0.534248874647135,1.021805142290379
1658790046252264,0.26483558403906304,-0.5490196078431371,1.0449988555733576
1658790046268255,0.2647135118638895,-0.5434042877851528,1.0829633020523382
1658790046284247,0.27277027542534515,-0.5292439154650186,1.0802777141985196
1658790046300239,0.27570000762951086,-0.5397421225299457,1.030960555428397
1658790046316230,0.2857099259937437,-0.5382772564278628,1.0100862134737163
1658790046332222,0.28363469901579297,-0.5383993286030364,0.9921416037232014
1658790046348214,0.2871747920958265,-0.5232623788815136,0.9960479133287556
1658790046364205,0.28754100862134724,-0.5191119249256122,1.0048371099412527
1658790046380188,0.2818036163881894,-0.5258258945601586,0.9882352941176471
1658790046396179,0.28290226596475154,-0.5404745555809871,0.9572289616235601
1658790046412171,0.2835126268406194,-0.5562218661783778,0.966628519111925
1658790046428163,0.3024338139925229,-0.5414511329823757,0.9748073548485543
1658790046444154,0.31989013504234354,-0.534248874647135,0.9713893339436943
1658790046460146,0.3284351873044935,-0.5127641718165865,0.932204165712978
1658790046476138,0.32782482642862565,-0.510078583962768,0.9163347829404138
1658790046492129,0.3334401464866099,-0.5115434500648508,0.907179369802396
1658790046508121,0.34833295185778557,-0.503242542153048,0.8968032349126425
1658790046524113,0.3506523231860834,-0.4893263141832609,0.8908216983291375
1658790046540104,0.3582207980468448,-0.48065918974593735,0.8888685435263604
1658790046556096,0.3628595407034405,-0.4889600976577402,0.8771496147096975
1658790046572088,0.3728694590676733,-0.48871595330739304,0.881300068665599
1658790046588080,0.3834897383077749,-0.46186007476920743,0.8650644693675131
1658790046604071,0.3898374914168006,-0.45038529030289176,0.8487067978942546
1658790046620063,0.3919127183947513,-0.4746776531624324,0.8472419317921718
1658790046636055,0.40424200808728195,-0.48200198367284663,0.8383306630045011
1658790046652046,0.4220645456626233,-0.4791943236438545,0.8385748073548482
1658790046668038,0.4320744640268561,-0.4807812619211109,0.8482185091935603
1658790046684030,0.4356145571068897,-0.4821240558480202,0.8451667048142211
1658790046700012,0.4573434042877853,-0.46686503395132384,0.8214847028305483
1658790046716004,0.4712596322575724,-0.45246051728084247,0.7943846799420156
1658790046731995,0.47614251926451523,-0.4469672693980318,0.7999999999999998
1658790046747987,0.4678416113527124,-0.4281681544213014,0.7736324101625085
1658790046763979,0.46967269398031597,-0.4181582360570686,0.7687495231555657
1658790046779970,0.4793163958190281,-0.4385442893110554,0.7787594415197985
1658790046795962,0.48151369497215235,-0.4632028686961167,0.7763179980163271
1658790046811954,0.49787136644541086,-0.45795376516365316,0.7711909666590371
1658790046827945,0.5054398413061723,-0.4397650110627911,0.7650873579003585
1658790046843937,0.5310749980926222,-0.42426184481574714,0.7510490577553979
1658790046859929,0.546211947814145,-0.42597085526817713,0.7342030975814451
1658790046875920,0.5525597009231706,-0.43866636148622895,0.7481193255512322
1658790046891912,0.5524376287479971,-0.42914473182269,0.7498283360036622
1658790046907904,0.5556115053025099,-0.42084382391088715,0.7366445410849165
1658790046923895,0.5523155565728235,-0.4452582589456018,0.7213855191882201
1658790046939887,0.5620813305867092,-0.46308079652094314,0.731395437552453
1658790046955879,0.5816128786144805,-0.4312199588006407,0.7277332722972458
1658790046971871,0.5905241474021512,-0.40228885328450437,0.6967269398031588
1658790046987862,0.6011444266422519,-0.41071183337148076,0.7019760433356224
1658790047003854,0.6126192111085675,-0.42999923704890497,0.6995345998321509
1658790047019836,0.6247043564507511,-0.4328068970778971,0.697825589379721
1658790047035828,0.6306858930342569,-0.418036163881895,0.6751201647974368
1658790047051819,0.6421606775005726,-0.4306095979247728,0.6723125047684446
1658790047067811,0.6601052872510875,-0.4320744640268557,0.6818341344319832
1658790047083803,0.674753948271916,-0.42633707179369784,0.6808575570305946
1658790047099794,0.6802471961547267,-0.4016784924086365,0.6658426794842454
1658790047115786,0.6767071030746932,-0.3761654077973602,0.6170138094148161
1658790047131778,0.6835431448844131,-0.3773861295490959,0.6162813763637747
1658790047147770,0.6912336919203481,-0.3798275730525673,0.6337376974135962
1658790047163761,0.6940413519493402,-0.3773861295490959,0.6018768596932933
1658790047179753,0.7113756008239873,-0.38605325398641943,0.5847867551689934
1658790047195745,0.712596322575723,-0.39850461585412367,0.5851529716945141
1658790047211736,0.7199206530861373,-0.39362172884718083,0.5878385595483326
1658790047227728,0.7405508506904708,-0.3705500877393759,0.5613488975356677
1658790047243720,0.7549553673609521,-0.34320592050049603,0.5314412146181429
1658790047259711,0.7600823987182421,-0.32208743419546826,0.4888380254825666
1658790047275703,0.7622796978713664,-0.3020675974670022,0.4816357671473259
1658790047291695,0.7648432135500114,-0.31573968108644257,0.5204547188525215
1658790047307686,0.768383306630045,-0.3478446631570917,0.54193942168307
1658790047323678,0.7694819562066071,-0.3433279926756696,0.4837109941252766
1658790047339660,0.7686274509803921,-0.33844510566872676,0.4221866178377969
1658790047355652,0.7667963683527885,-0.34515907530327317,0.4426947432669568
1658790047371644,0.7855954833295185,-0.32245365072098897,0.49579613946746015
1658790047387635,0.8170901045242998,-0.28119325551232155,0.48114747844663164
1658790047403627,0.8258793011367969,-0.25897611963073164,0.4220645456626233
1658790047419619,0.8369878690775918,-0.25397116044861523,0.45539024948500817
1658790047435610,0.8427252613107497,-0.28583199816891725,0.4741893644617381
1658790047451602,0.8640878919661246,-0.25519188220035094,0.40204470893415767
1658790047467594,0.8695811398489353,-0.2565346761272602,0.34674601358052914
1658790047483585,0.8462653543907832,-0.2881513694972151,0.29755092698558006
1658790047499577,0.8362554360265504,-0.26849774929427017,0.2965743495841915
1658790047515569,0.8308842603189133,-0.2697184710460059,0.3892271305409327
1658790047531561,0.8349126420996411,-0.25897611963073164,0.4132753490501262
1658790047547552,0.8395513847562368,-0.23956664377813386,0.3367360952162963
1658790047563544,0.8437018387121382,-0.2850995651178758,0.32941176470588207
1658790047579536,0.8476081483176925,-0.2888838025482565,0.28070496681162727
1658790047595527,0.869092851148241,-0.2518959334706645,0.29291218432898436
1658790047611519,0.8959487296864275,-0.20965896086060898,0.3117112993057143
1658790047627511,0.9113298237582974,-0.2153963530937668,0.3158617532616157
1658790047643502,0.9184100099183645,-0.24432745860990313,0.32526131074998066
1658790047659515,0.9142595559624631,-0.23126573586633103,0.3192797741664757
1658790047675507,0.9119401846341653,-0.23077744716563675,0.3124437323567557
1658790047691498,0.9119401846341653,-0.25140764476997024,0.2881513694972151
1658790047707490,0.904615854123751,-0.243228809033341,0.2632486457618066
1658790047723482,0.8979018844892046,-0.24872205691615168,0.2600747692072938
1658790047739473,0.8909437705043111,-0.2251621271076525,0.30548561837186217
1658790047755465,0.8896009765774018,-0.2499427786678874,0.341374837872892
1658790047771457,0.8980239566643782,-0.24750133516441597,0.28448920424200796
1658790047787449,0.907179369802396,-0.2453040360112917,0.20697337300679042
1658790047803440,0.9159685664148931,-0.2700846875715266,0.20807202258335256
1658790047819432,0.9389181353475244,-0.23956664377813386,0.23297474631876103
1658790047835424,0.9514915693904022,-0.22455176623178463,0.2885175860227358
1658790047851415,0.9519798580910965,-0.24078736552986957,0.29791714351110077
1658790047867407,0.9494163424124515,-0.26312657358663305,0.25140764476997024
1658790047883399,0.9392843518730452,-0.2796063172350651,0.21698329137102323
1658790047899390,0.9362325474937059,-0.2728923476005187,0.18976119630731692
1658790047915382,0.9459983215075916,-0.2351720454718853,0.20856031128404684
1658790047931374,0.9436789501792937,-0.23175402456702532,0.22247653925383393
1658790047947365,0.9232928969253074,-0.23175402456702532,0.22064545662623036
1658790047963357,0.9027847714961474,-0.24762340733958954,0.18841840238040763
1658790047979309,0.8996108949416346,-0.25775539787899593,0.16485847257190844
1658790047995300,0.9224383916990924,-0.26398107881284805,0.1768215457389184
1658790048011292,0.9429465171282523,-0.2717936980239566,0.19708552681773117
1658790048027284,0.9679713130388343,-0.24835584039063097,0.19269092851148262
1658790048043275,0.970046540016785,-0.2301670862897689,0.14898908979934422
1658790048059267,0.9699244678416115,-0.21649500267032895,0.11419851987487561
1658790048075259,0.9633325703822386,-0.24139772640573742,0.13995574883649997
1658790048091251,0.953566796368353,-0.2695963988708323,0.1646143282215613
1658790048107242,0.9549095902952622,-0.26654459449149304,0.1747463187609677
1658790048123234,0.9528343633173115,-0.2473792629892424,0.11187914854657777
1658790048139226,0.947585259784848,-0.20965896086060898,0.030945296406500233
1658790048155217,0.952712291142138,-0.20318913557640972,0.046814679179064456
1658790048171209,0.955275806820783,-0.21478599221789896,0.10760662241550278
1658790048187201,0.9636987869077593,-0.21661707484550252,0.1419089036392771
1658790048203192,0.9591821164263372,-0.22504005493247892,0.10760662241550278
1658790048219184,0.9524681467917908,-0.21637293049515538,0.019836728465705278
1658790048235176,0.9358663309681852,-0.2448157473105974,6.103608758678547E-5
1658790048251167,0.9553978789959565,-0.2258945601586939,0.053040360112916574
1658790048267159,0.9718776226443886,-0.20721751735713756,0.10150301365682424
1658790048283151,0.9889677271686885,-0.18060578316929865,0.08209353780422646
1658790048299133,0.9868925001907378,-0.17474631876096725,0.018127718013275285
1658790048315125,0.9596704051270315,-0.17975127794308365,-0.06463721675440626
1658790048331116,0.9519798580910965,-0.17682154573891795,-0.04974441138323016
1658790048347108,0.9469748989089801,-0.1890287632562755,-0.013366903181506018
1658790048363100,0.9477073319600215,-0.1686427100022887,-0.013366903181506018
1658790048379091,0.9516136415655758,-0.17254901960784297,-0.010559243152513886
1658790048395083,0.9540550850690472,-0.1749904631113144,-0.037781338216220206
1658790048411075,0.9688258182650493,-0.16852063782711513,-0.07403677424277122
1658790048427066,0.9910429541466392,-0.1660791943236437,-0.06427100022888554
1658790048443058,0.9926298924238957,-0.18304722667277007,-0.028870069428549527
1658790048459050,0.9834744792858778,-0.16925307087815655,-0.01629663538567172
1658790048475041,0.9732204165712979,-0.1459372854200045,-0.03961242084382377
1658790048491033,0.9627222095063708,-0.13641565575646597,-0.06256198977645555
1658790048507025,0.9694361791409172,-0.1362935835812924,-0.0648813611047534
1658790048523017,0.9704127565423057,-0.15387197680628661,-0.030945296406500233
1658790048539008,0.9639429312581065,-0.1526512550545509,-0.04461738002594018
1658790048555000,0.9623559929808501,-0.1345845731288624,-0.07013046463721695
1658790048570992,0.9605249103532465,-0.13275349050125884,-0.07684443427176335
1658790048586983,0.9613794155794615,-0.13812466620889596,-0.08184939345387976
1658790048602975,0.9602807660028994,-0.1371480888075074,-0.08184939345387976
1658790048618957,0.9619897764553293,-0.13849088273441668,-0.09246967269398043
1658790048634949,0.9712672617685207,-0.1240863660639353,-0.09210345616845972
1658790048650941,0.9812771801327536,-0.12079041733424889,-0.08184939345387976
1658790048666932,0.9887235828183414,-0.13189898527504385,-0.05133134966048658
1658790048682924,0.9798123140306707,-0.13482871747920955,-0.05108720531013944
1658790048698916,0.97261005569543,-0.11517509727626463,-0.08319218738078904
1658790048714907,0.9660181582360572,-0.12457465476462959,-0.08307011520561547
1658790048730899,0.9710231174181736,-0.09222552834363329,-0.10064850843060968
1658790048746891,0.9831082627603571,-0.0648813611047534,-0.09893949797817969
1658790048762882,0.9921416037232014,-0.07428091859311836,-0.06012054627298369
1658790048778874,0.9770046540016786,-0.09478904402227828,-0.07928587777523477
1658790048794866,0.9590600442511636,-0.10406652933546967,-0.10028229190508897
1658790048810857,0.942458228427558,-0.12066834515907532,-0.1022354467078661
1658790048826849,0.9427023727779051,-0.13348592355230027,-0.09137102311741829
1658790048842841,0.9591821164263372,-0.1182269016556039,-0.07440299076829193
1658790048858832,0.9744411383230336,-0.10943770504310679,-0.07013046463721695
1658790048874824,0.9763942931258107,-0.11297779812314035,-0.08941786831464116
1658790048890816,0.9721217669947357,-0.10870527199206537,-0.13482871747920955
1658790048906808,0.9643091477836272,-0.11944762340733961,-0.15387197680628661
1658790048922799,0.9728542000457772,-0.09845120927748541,-0.14349584191653308
1658790048938812,0.9812771801327536,-0.08746471351186402,-0.12970168612191957
1658790048954804,0.9735866330968186,-0.10247959105821325,-0.11895933470664533
1658790048970795,0.9557640955214772,-0.10443274586099038,-0.14105439841306167
1658790048986787,0.945021744106203,-0.12457465476462959,-0.16339360646982515
1658790049002779,0.9490501258869308,-0.1404440375371938,-0.1627832455939573
1658790049018770,0.9517357137407494,-0.127870603494316,-0.19452201113908618
1658790049034762,0.9633325703822386,-0.09210345616845972,-0.21063553826199755
1658790049050754,0.9611352712291144,-0.09210345616845972,-0.20233463035019472
1658790049066745,0.9505149919890137,-0.09002822919050901,-0.2086823834592204
1658790049082737,0.944167238879988,-0.09002822919050901,-0.2158846417944611
1658790049098729,0.9447775997558558,-0.10089265278095683,-0.23504997329671173
1658790049114720,0.9463645380331123,-0.09308003356984829,-0.25970855268177306
1658790049130712,0.96406500343328,-0.08917372396429402,-0.22491798275730535
1658790049146704,0.9572289616235601,-0.08819714656290545,-0.20465400167849257
1658790049162696,0.9483176928358894,-0.07147325856412623,-0.19330128938735047
1658790049178687,0.946730754558633,-0.08148317692835905,-0.21515220874341967
1658790049194679,0.9495384145876251,-0.0657358663309684,-0.26483558403906304
1658790049210671,0.9569848172732129,-0.050476844434271584,-0.3143968871595333
1658790049226662,0.9551537346456094,-0.031189440756847375,-0.33099870298313894
1658790049242654,0.9594262607766844,-0.010437170977340315,-0.33392843518730464
1658790049258606,0.9643091477836272,-0.007385366598001042,-0.33173113603418036
1658790049274597,0.9549095902952622,-0.022400244144350268,-0.3458915083543146
1658790049290589,0.9516136415655758,-0.06146334019989297,-0.3634699015793088
1658790049306581,0.9394064240482187,-0.09820706492713827,-0.37262531471732663
1658790049322572,0.9372091248950944,-0.10113679713130397,-0.36798657206073093
1658790049338564,0.9442893110551616,-0.08819714656290545,-0.357732509346151
1658790049354556,0.9439230945296408,-0.07501335164415979,-0.3433279926756696
1658790049370547,0.945021744106203,-0.05926604104676869,-0.353459983215076
1658790049386539,0.9439230945296408,-0.056946669718470844,-0.35101853971160457
1658790049402531,0.9348897535667966,-0.06036469062333083,-0.3550469214923324
1658790049418522,0.9380636301213094,-0.04974441138323016,-0.3505302510109103
1658790049434514,0.9358663309681852,-0.07013046463721695,-0.33807888914320605
1658790049450506,0.9374532692454416,-0.0762340733958955,-0.317326619363699
1658790049466498,0.9435568780041201,-0.07501335164415979,-0.3048752574959943
1658790049482489,0.9456321049820708,-0.05951018539711583,-0.29169146257724865
1658790049498481,0.9451438162813766,-0.07306019684138265,-0.2947432669565879
1658790049514473,0.9428244449530787,-0.08978408484016187,-0.29840543221179505
1658790049530464,0.941603723201343,-0.0896620126649883,-0.29669642175936506
1658790049546456,0.9503929198138401,-0.07000839246204338,-0.27203784237430373
1658790049562448,0.9590600442511636,-0.06878767071030767,-0.2510414282444495
1658790049578430,0.9578393224994279,-0.06024261844815726,-0.2503089951934081
1658790049594421,0.9502708476386665,-0.07989623865110262,-0.24957656214236668
1658790049610413,0.9474631876096744,-0.10162508583199825,-0.23260852979324032
1658790049626405,0.9480735484855423,-0.11395437552452892,-0.21271076523994825
1658790049642397,0.9485618371862365,-0.1152971694514382,-0.18390173189898507
1658790049658388,0.9557640955214772,-0.11041428244449536,-0.17022964827954512
1658790049674380,0.9604028381780729,-0.08978408484016187,-0.1727931639581901
1658790049690372,0.9562523842221715,-0.11334401464866106,-0.15362783245593947
1658790049706363,0.9539330128938737,-0.1308003356984817,-0.13434042877851526
1658790049722355,0.9542992294193944,-0.12884718089570457,-0.13031204699778742
1658790049738347,0.9569848172732129,-0.12152285038529032,-0.13153276874952313
1658790049754338,0.9619897764553293,-0.12823682001983672,-0.09759670405127041
1658790049770330,0.9584496833752958,-0.1337300679026474,-0.07586785687037478
1658790049786322,0.955275806820783,-0.1359273670557717,-0.07647821774624264
1658790049802313,0.9483176928358894,-0.1450827801937895,-0.08599984740978117
1658790049818305,0.9444113832303351,-0.13189898527504385,-0.08929579613946759
1658790049834297,0.9532005798428322,-0.11859311818112461,-0.06146334019989297
1658790049850288,0.9584496833752958,-0.13006790264744028,-0.040100709544518054
1658790049866280,0.9639429312581065,-0.13202105745021742,-0.03399710078583951
1658790049882272,0.9556420233463037,-0.13348592355230027,-0.0289921416037231
1658790049898285,0.936476691844053,-0.14874494544899663,-0.02032501716639956
1658790049914276,0.9323262378881516,-0.16754406042572656,0.007507438773174613
1658790049930268,0.9457541771572444,-0.1619287403677423,0.0499885557335773
1658790049946260,0.9528343633173115,-0.1476462958724345,0.07342641336690292
1658790049962251,0.951003280689708,-0.14959945067521163,0.07318226901655578
1658790049978243,0.9428244449530787,-0.15924315251392374,0.0806286717021436
1658790049994235,0.942458228427558,-0.19977111467154973,0.10455481803616351
1658790050010226,0.9488059815365837,-0.20929274433508827,0.13470664530403642
1658790050026218,0.9594262607766844,-0.17633325703822367,0.1575341420614942
1658790050042210,0.9530785076676587,-0.17291523613336368,0.18548867017624193
1658790050058201,0.9408712901503016,-0.19293507286182976,0.1566796368352792
1658790050074193,0.932204165712978,-0.21661707484550252,0.16095216296635417
1658790050090185,0.9314717326619366,-0.2263828488593882,0.19977111467154973
1658790050106176,0.9234149691004809,-0.2091706721599147,0.24164187075608456
1658790050122168,0.9220721751735717,-0.2086823834592204,0.27020675974670016
1658790050138160,0.9423361562523844,-0.19830624856946688,0.2511635004196231
1658790050154152,0.9538109407187001,-0.22320897230487535,0.25775539787899593
1658790050170143,0.9505149919890137,-0.21783779659723823,0.24676890211337454
1658790050186135,0.9358663309681852,-0.20050354772259116,0.21942473487449465
1658790050202127,0.9269550621805145,-0.20013733119707044,0.22955672541390104
1658790050218109,0.918287937743191,-0.21979095140001537,0.25506981002517737
1658790050234100,0.9074235141527431,-0.24884412909132525,0.30597390707255645
1658790050250092,0.9143816281376367,-0.23907835507743957,0.31061264972915215
1658790050266084,0.9284199282825973,-0.2368810559243153,0.27985046158541227
1658790050282076,0.9395284962233923,-0.25397116044861523,0.2633707179369802
1658790050298067,0.9380636301213094,-0.24542610818646526,0.26446936751354233
1658790050314059,0.9317158770122838,-0.2385900663767453,0.2973067826352329
1658790050330051,0.9240253299763488,-0.24042114900434886,0.3220874341954678
1658790050346042,0.9240253299763488,-0.2213778896772718,0.3067063401235979
1658790050362034,0.9173113603418024,-0.24664682993820097,0.3036545357442586
1658790050378026,0.9120622568093388,-0.274235141527428,0.2947432669565879
1658790050394017,0.912306401159686,-0.280216678110933,0.2993820096131836
1658790050410009,0.9138933394369424,-0.25214007782101167,0.3351491569390399
1658790050426001,0.9043717097734039,-0.2527504386968795,0.3457694361791406
1658790050441992,0.9026626993209739,-0.2737468528267337,0.3380788891432056
1658790050457984,0.9013199053940646,-0.29205767910276936,0.33795681696803204
1658790050473976,0.8988784618905932,-0.28412298771648725,0.35394827191576983
1658790050489967,0.8996108949416346,-0.2822919050888837,0.35968566414892766
1658790050505959,0.9002212558175025,-0.2771648737315937,0.35602349889372054
1658790050521951,0.9051041428244453,-0.27484550240329586,0.3609063859006634
1658790050537902,0.8925307087815675,-0.2881513694972151,0.3754329747463192
1658790050553894,0.8893568322270546,-0.28278019378957797,0.4052185854886705
1658790050569886,0.8876478217746246,-0.2957198443579765,0.4055848020141912
1658790050585878,0.8874036774242775,-0.31744869153887256,0.3797055008773942
1658790050601869,0.8843518730449382,-0.3357595178149082,0.3705500877393755
1658790050617861,0.8837415121690704,-0.30548561837186217,0.4074158846417948
1658790050633853,0.8764171816586561,-0.30646219577325073,0.42438391699092115
1658790050649844,0.882154573891814,-0.3067063401235979,0.4044861524376291
1658790050665836,0.8877698939497982,-0.31830319676508756,0.38275730525673346
1658790050681828,0.8720225833524067,-0.3096360723277636,0.3578545815213241
1658790050697819,0.8642099641412981,-0.30353246356908503,0.4005798428320748
1658790050713811,0.8527351796749825,-0.319890135042344,0.4229190508888383
1658790050729803,0.864820325017166,-0.31537346456092186,0.40753795681696836
1658790050745794,0.8717784390020595,-0.31744869153887256,0.38666361486228773
1658790050761786,0.854566262302586,-0.31378652628366543,0.38776226443884987
1658790050777778,0.8378423743038068,-0.3189135576409554,0.4144960708018619
1658790050793769,0.8306401159685661,-0.3331960021362632,0.4341496910048068
1658790050809761,0.8402838178072782,-0.31952391851682327,0.43402761882963325
1658790050825753,0.8430914778362704,-0.31451895933470686,0.42560463874265686
1658790050841745,0.8358892195010297,-0.31293202105745044,0.44293888761730393
1658790050857757,0.8245365072098876,-0.33014419775692394,0.4566109712367439
1658790050873749,0.8275883115892269,-0.3361257343404289,0.4607614251926453
1658790050889741,0.8366216525520711,-0.33099870298313894,0.4375677119096668
1658790050905732,0.8299076829175247,-0.3307545586327918,0.44122987716487394
1658790050921724,0.8208743419546805,-0.3417410543984132,0.47687495231555665
1658790050937716,0.8142824444953076,-0.35358205539024956,0.496406500343328
1658790050953707,0.8166018158236055,-0.3419851987487603,0.5001907377737087
1658790050969699,0.8144045166704812,-0.32513923857480753,0.48114747844663164
1658790050985691,0.8042725261310748,-0.3436942092011903,0.500679026474403
1658790051001682,0.7990234225986113,-0.34137483787289247,0.5020218204013123
1658790051017674,0.795971618219272,-0.3286793316548411,0.5138628213931486
1658790051033666,0.7875486381322956,-0.32465094987411325,0.5366903181506064
1658790051049657,0.7835202563515677,-0.3316090638590068,0.5530479896238649
1658790051065649,0.7849851224536506,-0.33844510566872676,0.5465781643396657
1658790051081641,0.7761959258411535,-0.3512626840619517,0.5414511329823757
1658790051097633,0.7696040283817807,-0.3530937666895553,0.5508506904707406
1658790051113624,0.7670405127031357,-0.35663385976958883,0.5490196078431371
1658790051129616,0.7739986266880292,-0.3390554665445946,0.5550011444266421
1658790051145608,0.7770504310673685,-0.33099870298313894,0.5515831235217821
1658790051161599,0.7625238422217135,-0.3335622186617839,0.5352254520485236
1658790051177581,0.7350576028076601,-0.3522392614633403,0.5608606088349735
1658790051193573,0.7197985809109637,-0.3659113450827802,0.558419165331502
1658790051209565,0.7348134584573129,-0.36334782940413524,0.563546196688792
1658790051225556,0.7432364385442893,-0.351750972762646,0.5700160219729913
1658790051241548,0.7407949950408179,-0.34052033264667747,0.5972381170366976
1658790051257540,0.725413900968948,-0.35101853971160457,0.593698023956664
1658790051273532,0.7174792095826659,-0.36871900511177236,0.5882047760738534
1658790051289523,0.7193102922102694,-0.38641947051194014,0.5916227969787133
1658790051305515,0.7103990234225988,-0.37714198519874875,0.6214084077210646
1658790051321507,0.6985580224307624,-0.36664377813382165,0.6453345540550854
1658790051337498,0.6980697337300681,-0.3622491798275731,0.6344701304646376
1658790051353490,0.6931868467231252,-0.3660334172579538,0.6023651483939876
1658790051369482,0.6936751354238195,-0.38129243915465016,0.6381322957198448
1658790051385473,0.6840314335851074,-0.3920347905699244,0.6714579995422296
1658790051401465,0.6767071030746932,-0.38092622262912945,0.6664530403601132
1658790051417457,0.682444495307851,-0.3883726253147173,0.6336156252384226
1658790051433448,0.6762188143739989,-0.40314335851071936,0.6365453574425883
1658790051449440,0.6652323186083775,-0.4033875028610665,0.6605935759517818
1658790051465432,0.6537575341420618,-0.40399786373693436,0.6823224231326774
1658790051481423,0.654001678492409,-0.3996032654306858,0.675608453498131
1658790051497406,0.6489967193102926,-0.4030212863355458,0.6536354619668883
1658790051513397,0.6388647287708862,-0.4071717402914472,0.6691386282139318
1658790051529389,0.6254367895017934,-0.4130312046997786,0.6786602578774703
1658790051545381,0.6218966964217589,-0.40143434805828937,0.6914778362706953
1658790051561372,0.6244602121004039,-0.3944762340733958,0.6946517128252081
1658790051577364,0.6139620050354768,-0.4000915541313801,0.6995345998321509
1658790051593356,0.5955291065842676,-0.42890058747234283,0.7116197451743345
1658790051609347,0.5952849622339205,-0.416327153429465,0.710887312123293
1658790051625339,0.5947966735332262,-0.4396429388876175,0.7246814679179066
1658790051641331,0.5952849622339205,-0.4302433813992521,0.7090562294956895
1658790051657323,0.577218280308232,-0.4350041962310214,0.7139391165026323
1658790051673314,0.5663538567177842,-0.44574654764629607,0.7310292210269322
1658790051689306,0.5716029602502477,-0.43866636148622895,0.7410391393911651
1658790051705298,0.5785610742351412,-0.42792401007095426,0.7379873350118258
1658790051721289,0.5691615167467763,-0.4125429159990843,0.7302967879758908
1658790051737281,0.5603723201342792,-0.4260929274433507,0.7406729228656443
1658790051753273,0.5548790722514685,-0.42719157701991284,0.7384756237125201
1658790051769264,0.5545128557259478,-0.4455024032959489,0.7559319447623407
1658790051785256,0.5440146486610207,-0.43903257801174966,0.7534905012588693
1658790051801248,0.5296101319905393,-0.43012130922407854,0.7676508735790035
1658790051817199,0.5192339971007858,-0.4468451972228582,0.7727779049362935
1658790051833191,0.5175249866483558,-0.4489204242008089,0.7853513389791713
1658790051849183,0.5194781414511329,-0.45416952773327246,0.7833981841763942
1658790051865174,0.5147173266193636,-0.4348821240558478,0.7528801403830014
1658790051881166,0.5062943465323873,-0.42084382391088715,0.7342030975814451
1658790051897158,0.49030289158464946,-0.4358587014572364,0.7654535744258792
1658790051913149,0.49616235599298086,-0.4578316929884796,0.8178225375753412
1658790051929141,0.5017776760509651,-0.4425726710917832,0.7898680094605934
1658790051945133,0.4934767681391623,-0.43830014496070824,0.7583733882658121
1658790051961125,0.47650873579003594,-0.45001907377737105,0.7781490806439306
1658790051977116,0.4614938582436867,-0.4614938582436867,0.8014648661020827
1658790051993108,0.4649118791485467,-0.4507515068284125,0.8185549706263826
1658790052009100,0.47138170443274596,-0.4564888990615703,0.8373540856031125
1658790052025091,0.4623483634699017,-0.43634699015793066,0.8024414435034712
1658790052041083,0.4480659189745939,-0.45136186770428033,0.8104982070649269
1658790052057075,0.4368352788586254,-0.4661326009002824,0.8344243533989468
1658790052073066,0.43488212405584825,-0.464545662623026,0.8422369726100554
1658790052089058,0.4359807736324104,-0.4547798886091403,0.8225833524071104
1658790052105050,0.4221866178377969,-0.45758754863813245,0.8161135271229112
1658790052121041,0.4077821011673155,-0.47736324101625094,0.8439459830624854
1658790052137054,0.39838254367895054,-0.4812695506218052,0.8645761806668188
1658790052153046,0.4116884107728698,-0.46979476615548954,0.865674830243381
1658790052169037,0.42011139085984617,-0.464545662623026,0.8292973220416568
1658790052185029,0.41815823605706903,-0.45709925993743816,0.8147707331960019
1658790052201021,0.39667353322652055,-0.47186999313344025,0.8289311055161361
1658790052217013,0.3834897383077749,-0.46186007476920743,0.834668497749294
1658790052233004,0.38361181048294846,-0.4729686427100024,0.8296635385671776
1658790052248996,0.37775234607461705,-0.47943846799420164,0.7991454947737848
1658790052264988,0.36444647898069693,-0.4754100862134738,0.8092774853131912
1658790052280979,0.34833295185778557,-0.4833447775997559,0.8388189517051954
1658790052296971,0.35675593194476196,-0.4597848477912567,0.8223392080567633
1658790052312963,0.3629816128786141,-0.45722133211261173,0.8142824444953076
1658790052328954,0.37103837644006976,-0.4380560006103611,0.8159914549477376
1658790052344946,0.35895323109788624,-0.45001907377737105,0.8335698481727318
1658790052360938,0.3460135805294877,-0.46002899214160387,0.836377508201724
1658790052376929,0.3428397039749749,-0.46857404440375383,0.8493171587701225
1658790052392921,0.3380788891432056,-0.4926222629129473,0.8754406042572676
1658790052408913,0.3352712291142135,-0.4863965819790952,0.8826428625925082
1658790052424904,0.3247730220492864,-0.48822766460669875,0.8794689860379954
1658790052440896,0.3196459906919964,-0.48395513847562377,0.8811779964904254
1658790052456878,0.31110093842984643,-0.49042496375982303,0.8883802548256661
1658790052472870,0.30060273136491933,-0.47394522011139095,0.9032730601968417
1658790052488862,0.2960860608834972,-0.4841992828259709,0.9177996490424967
1658790052504853,0.2919356069275958,-0.48322270542458234,0.9125505455100331
1658790052520845,0.2907148851758601,-0.49323262378881516,0.896070801861601
1658790052536837,0.277653162432288,-0.4841992828259709,0.8997329671168082
1658790052552828,0.26947432669565874,-0.4837109941252766,0.9219501029983981
1658790052568820,0.2658121614404516,-0.48200198367284663,0.910597390707256
1658790052584812,0.27948424505989156,-0.47943846799420164,0.9041275654230567
1658790052600803,0.28290226596475154,-0.48651865415426876,0.9019302662699324
1658790052616795,0.2772869459067673,-0.47357900358587024,0.8968032349126425
1658790052632787,0.2709391927977416,-0.4862745098039216,0.9010757610437174
1658790052648779,0.2743572137026016,-0.4956740672922866,0.8947280079346918
1658790052664770,0.2746013580529487,-0.5045853360799573,0.8992446784161139
1658790052680762,0.2676432440680552,-0.4948195620660716,0.8791027695124747
1658790052696754,0.2558022430762188,-0.5193560692759593,0.8767833981841768
1658790052712745,0.2558022430762188,-0.5200885023270008,0.8728770885786217
1658790052728737,0.24884412909132525,-0.508369573510338,0.8852063782711532
1658790052744729,0.2427405203326467,-0.4889600976577402,0.8914320592050053
1658790052760720,0.22784771496147105,-0.500679026474403,0.877027542534524
1658790052776703,0.2296787975890746,-0.5189898527504386,0.8649423971923396
1658790052792694,0.23920042725261315,-0.5414511329823757,0.9152361333638517
1658790052808686,0.24127565423056385,-0.5324177920195314,0.9503929198138401
1658790052824678,0.2394445716029603,-0.5105668726634622,0.9613794155794615
1658790052840669,0.2318760967421989,-0.5330281528953993,0.9616235599298086
1658790052856661,0.2401770046540017,-0.5524376287479971,0.9564965285725187
1658790052872653,0.25299458304722666,-0.5581750209811549,0.9870145723659114
1658790052888644,0.2654459449149309,-0.569649805447471,1.0106965743495842
1658790052904636,0.2783855954833294,-0.5819790951400017,0.9959258411535821
1658790052920628,0.280216678110933,-0.6116426337071794,0.9934843976501107
1658790052936619,0.27826352330815585,-0.6050507362478066,0.9887235828183414
1658790052952611,0.26739909971770803,-0.5831998168917374,0.9929961089494164
1658790052968603,0.2608072022583352,-0.5658655680170903,0.9893339436942092
1658790052984594,0.2630045014114595,-0.573922331578546,0.9945830472266728
1658790053000586,0.27032883192187374,-0.558419165331502,0.9687037460898758
1658790053016578,0.2754558632791637,-0.52826733806363,0.951003280689708
1658790053032570,0.2864423590447851,-0.541084916456855,0.9602807660028994
1658790053048561,0.29303425650415793,-0.5506065461203935,0.9490501258869308
1658790053064553,0.3007248035400929,-0.558419165331502,0.9630884260318915
1658790053080545,0.3049973296711679,-0.5403524834058135,0.9561303120469979
1658790053096557,0.3012130922407872,-0.5413290608072021,0.9218280308232245
1658790053112549,0.30463111314564717,-0.5398641947051193,0.914869916838331
1658790053128541,0.3029221026932172,-0.5352254520485236,0.9024185549706267
1658790053144532,0.31866941329060783,-0.5104448004882887,0.9082780193789581
1658790053160524,0.33124284733348563,-0.4837109941252766,0.8836194399938968
1658790053176516,0.3377126726176849,-0.498115510795758,0.8703135728999767
1658790053192507,0.34088654917219774,-0.5170366979476615,0.8721446555275802
1658790053208499,0.3414969100480656,-0.5042191195544365,0.8736095216296631
1658790053224491,0.3510185397116041,-0.48615243762874805,0.8710460059510181
1658790053240482,0.36481269550621764,-0.4829785610742352,0.8529793240253296
1658790053256474,0.3770199130235756,-0.4893263141832609,0.8642099641412981
1658790053272466,0.388860914015412,-0.45966277561608315,0.8662851911192488
1658790053288457,0.39630731670099983,-0.4456244754711225,0.8518806744487675
1658790053304449,0.4022888532845048,-0.4754100862134738,0.8531013962005032
1658790053320441,0.41339742122529977,-0.48859388113221947,0.8642099641412981
1658790053336433,0.4153505760280769,-0.4774853131914245,0.8623788815136946
1658790053352424,0.4271915770199133,-0.43952086671244395,0.8482185091935603
1658790053368416,0.43707942320897253,-0.4253604943923093,0.8168459601739526
1658790053384408,0.4484321355001146,-0.4324406805523764,0.8112306401159683
1658790053400399,0.4614938582436867,-0.43598077363240995,0.8236820019836726
1658790053416351,0.4686961165789274,-0.4434271763179982,0.8510261692225525
1658790053432343,0.4787060349431602,-0.4464789806973375,0.8324711985961697
1658790053448334,0.4910353246356909,-0.44208438239108894,0.7699702449073014
1658790053464326,0.5099565117875944,-0.44196231021591537,0.7742427710383764
1658790053480318,0.5208209353780422,-0.4236514839398793,0.7718013275349049
1658790053496309,0.5271686884870679,-0.4013122758831158,0.7592278934920271
1658790053512301,0.5249713893339436,-0.4247501335164414,0.7691157396810864
1658790053528293,0.5279011215381093,-0.44916456855115605,0.7969481956206605
1658790053544284,0.529121843289845,-0.42719157701991284,0.7577630273899443
1658790053560276,0.5352254520485236,-0.4293888761730371,0.725413900968948
1658790053576268,0.5471885252155335,-0.43390554665445924,0.7154039826047152
1658790053592260,0.5714808880750741,-0.4152285038529029,0.7320057984283208
1658790053608251,0.5855191882200348,-0.3757991912718395,0.7367666132600901
1658790053624243,0.598825055313954,-0.3659113450827802,0.7270008392462044
1658790053640235,0.6138399328603033,-0.4047302967879758,0.7056382085908295
1658790053656226,0.6220187685969325,-0.4302433813992521,0.7027084763866638
1658790053672218,0.6247043564507511,-0.40192263675898365,0.6780498970016025
1658790053688210,0.6316624704356455,-0.3865415426871137,0.6767071030746932
1658790053704201,0.6323949034866869,-0.39777218280308224,0.6857404440375374
1658790053720193,0.6414282444495312,-0.39276722362096583,0.6920881971465631
1658790053736175,0.6426489662012669,-0.37750820172426947,0.6499732967116811
1658790053752167,0.6551003280689711,-0.36151674677653167,0.609079118028534
1658790053768159,0.6629129472800797,-0.37543297474631876,0.5973601892118712
1658790053784150,0.6803692683299003,-0.3873960479133287,0.6260471503776612
1658790053800142,0.6984359502555888,-0.3761654077973602,0.6532692454413676
1658790053816134,0.7105210955977723,-0.3567559319447624,0.6354467078660262
1658790053832125,0.7158922713054094,-0.36334782940413524,0.603952086671244
1658790053848117,0.7184557869840544,-0.381902800030518,0.5819790951400012
1658790053864109,0.7277332722972458,-0.3673762111848631,0.5803921568627448
1658790053880100,0.7360341802090486,-0.3382009613183796,0.5874723430228119
1658790053896092,0.7385976958876936,-0.3362478065156025,0.5835660334172577
1658790053912084,0.7465323872739758,-0.3161058976119633,0.5163042648966201
1658790053928075,0.7498283360036622,-0.3140306706340126,0.48822766460669875
1658790053944067,0.7467765316243229,-0.34430457007705817,0.5394979781795985
1658790053960059,0.7533684290836957,-0.35199511711299314,0.5684290836957349
1658790053976050,0.7744869153887235,-0.3353933012893875,0.5340047302967879
1658790053992042,0.7979247730220491,-0.33344014648661036,0.48944838635843446
