Timestamp (microseconds),Gyro X (°/s),Gyro Y (°/s),Gyro Z (°/s)
1658790025815643,-1.1902037079423735,0.3967345693140487,-1.1291676203554744
1658790025831643,-0.15259021896690683,0.2746623941404778,-0.8239871824216607
1658790025847643,1.1291676203554744,0.03051804379333589,-1.8005645838102282
1658790025863642,0.9460593575952316,0.3967345693140487,-1.8616006713969
1658790025879642,2.04470893415737,0.8850232700083325,-2.410925459678083
1658790025895642,1.9226367589837992,1.1902037079423735,-2.166781109330941
1658790025911642,0.8239871824216607,1.0070954451819034,-1.983672846570471
1658790025927641,0.5798428320745188,1.2512397955290453,-1.9226367589837992
1658790025943641,-0.09155413138023505,1.1902037079423735,-1.5564202334630863
1658790025959641,1.0070954451819034,1.0070954451819034,-1.983672846570471
1658790025975641,0.8239871824216607,0.5798428320745188,-1.983672846570471
1658790025991641,0.03051804379333589,1.0070954451819034,-1.6174563210497581
1658790026007640,-0.09155413138023505,2.8992141603723667,-1.6174563210497581
1658790026023640,0.09155413138023505,4.486152437628789,-2.04470893415737
1658790026039640,1.4953841458761872,5.096513313496644,-1.8005645838102282
1658790026055640,3.5095750362402214,5.2185854886702145,-2.410925459678083
1658790026071640,1.3733119707026162,4.730296787975931,-3.4485389486533222
1658790026087639,-1.1291676203554744,5.584802014190927,-3.1433585107195086
1658790026103639,-2.5940337224383256,6.439307240405924,-1.6174563210497581
1658790026119639,-4.486152437628789,6.378271152819025,-0.8850232700083325
1658790026135620,-2.4719615472647547,5.462729839017356,-1.9226367589837992
1658790026151620,-1.8005645838102282,3.4485389486533222,-1.6784924086366573
1658790026167619,0.8239871824216607,2.410925459678083,-0.15259021896690683
1658790026183619,3.2654306858930795,3.1433585107195086,1.1902037079423735
1658790026199619,0.5798428320745188,1.9226367589837992,0.45777065690094787
1658790026215619,1.739528496223329,0.7019150072480898,-0.7629510948347615
1658790026231619,4.974441138323073,0.7629510948347615,-0.6408789196611906
1658790026247618,6.256198977645454,2.04470893415737,-0.45777065690094787
1658790026263618,1.4953841458761872,3.3875028610666504,-1.9226367589837992
1658790026279618,-3.936827649347606,2.288853284504512,-3.0212863355459376
1658790026295618,-1.983672846570471,1.8616006713969,-3.0212863355459376
1658790026311617,0.7019150072480898,1.6174563210497581,-2.166781109330941
1658790026327617,0.7629510948347615,1.3733119707026162,-1.8005645838102282
1658790026343617,-1.3122758831159445,1.1902037079423735,-2.166781109330941
1658790026359617,-1.4343480582895154,0.5188067444876197,-2.166781109330941
1658790026375617,1.0681315327688026,0.213626306553806,-0.8850232700083325
1658790026391616,2.532997634851654,0.5798428320745188,0.5188067444876197
1658790026407616,3.2654306858930795,0.5798428320745188,-0.15259021896690683
1658790026423616,1.6174563210497581,0.45777065690094787,-1.0681315327688026
1658790026439616,0.45777065690094787,-0.8850232700083325,-2.410925459678083
1658790026455627,0.7019150072480898,-0.8850232700083325,-2.410925459678083
1658790026471627,0.09155413138023505,0.3967345693140487,-1.2512397955290453
1658790026487627,-0.03051804379333589,0.09155413138023505,-1.6784924086366573
1658790026503626,0.8239871824216607,-0.3967345693140487,-2.04470893415737
1658790026519626,1.8616006713969,-1.6784924086366573,-1.983672846570471
1658790026535626,1.8616006713969,-2.4719615472647547,-1.983672846570471
1658790026551626,1.4343480582895154,-1.3733119707026162,-1.5564202334630863
1658790026567626,2.7161058976118966,-0.5798428320745188,-1.0681315327688026
1658790026583625,2.8992141603723667,-0.5798428320745188,-1.3733119707026162
1658790026599625,-0.9460593575952316,-1.3733119707026162,-1.5564202334630863
1658790026615625,-2.288853284504512,-1.6174563210497581,-2.288853284504512
1658790026631625,-0.213626306553806,-1.4343480582895154,-2.288853284504512
1658790026647625,2.8992141603723667,-0.5798428320745188,-2.04470893415737
1658790026663624,1.983672846570471,-0.213626306553806,-1.6784924086366573
1658790026679624,-1.8005645838102282,-0.33569848172737693,-2.288853284504512
1658790026695624,-1.5564202334630863,-0.6408789196611906,-2.04470893415737
1658790026711624,-0.2746623941404778,-0.8239871824216607,-1.8005645838102282
1658790026727624,1.4343480582895154,-0.6408789196611906,-1.4343480582895154
1658790026743623,1.4953841458761872,-0.33569848172737693,-1.5564202334630863
1658790026759623,0.213626306553806,-0.5798428320745188,-1.6784924086366573
1658790026775634,1.2512397955290453,-1.0070954451819034,-2.105745021744042
1658790026791634,2.7771419851987957,-1.5564202334630863,-1.8616006713969
1658790026807634,3.7537193865873633,-1.3122758831159445,-1.6784924086366573
1658790026823634,3.875791561760934,-0.45777065690094787,-1.4343480582895154
1658790026839634,0.8239871824216607,-0.09155413138023505,-1.0070954451819034
1658790026855633,-1.1291676203554744,-0.3967345693140487,-1.0070954451819034
1658790026871633,0.09155413138023505,0.3967345693140487,-0.3967345693140487
1658790026887633,-0.15259021896690683,0.5188067444876197,-0.2746623941404778
1658790026903633,0.09155413138023505,0.6408789196611906,-0.7019150072480898
1658790026919633,-0.7019150072480898,0.5798428320745188,-0.213626306553806
1658790026935632,-0.8239871824216607,0.03051804379333589,0.5188067444876197
1658790026951632,2.3498893720911838,0.3967345693140487,1.2512397955290453
1658790026967632,3.997863736934505,0.8850232700083325,1.739528496223329
1658790026983632,1.1291676203554744,0.3967345693140487,1.1291676203554744
1658790026999632,0.09155413138023505,0.5798428320745188,0.45777065690094787
1658790027015631,1.1902037079423735,1.6784924086366573,1.2512397955290453
1658790027031631,1.739528496223329,2.8992141603723667,1.6784924086366573
1658790027047631,0.3967345693140487,3.1433585107195086,0.45777065690094787
1658790027063631,-1.4343480582895154,2.166781109330941,-0.8850232700083325
1658790027079630,0.6408789196611906,1.8005645838102282,-0.7019150072480898
1658790027095611,2.4719615472647547,1.739528496223329,-0.03051804379333589
1658790027111611,2.8992141603723667,1.983672846570471,0.15259021896690683
1658790027127611,3.2043945983061803,1.9226367589837992,-0.213626306553806
1658790027143611,2.166781109330941,1.9226367589837992,-0.45777065690094787
1658790027159610,-0.33569848172737693,1.3733119707026162,-0.6408789196611906
1658790027175610,-1.739528496223329,0.7019150072480898,-0.8850232700083325
1658790027191610,0.213626306553806,0.9460593575952316,-0.5798428320745188
1658790027207610,2.166781109330941,1.3733119707026162,-0.33569848172737693
1658790027223610,1.2512397955290453,1.739528496223329,-0.9460593575952316
1658790027239609,-1.0681315327688026,1.1902037079423735,-1.9226367589837992
1658790027255609,-1.5564202334630863,1.1291676203554744,-1.8005645838102282
1658790027271609,1.3122758831159445,1.3733119707026162,-1.3122758831159445
1658790027287609,2.4719615472647547,1.3122758831159445,-1.1291676203554744
1658790027303609,0.33569848172737693,0.7019150072480898,-2.04470893415737
1658790027319608,1.1291676203554744,0.2746623941404778,-2.410925459678083
1658790027335608,1.8616006713969,0.5798428320745188,-1.4343480582895154
1658790027351608,1.6174563210497581,0.9460593575952316,-0.5798428320745188
1658790027367608,1.0070954451819034,1.1902037079423735,-0.6408789196611906
1658790027383607,3.2043945983061803,1.2512397955290453,-1.1902037079423735
1658790027399607,3.3264667734797513,1.0070954451819034,-1.0070954451819034
1658790027415619,0.3967345693140487,-0.213626306553806,-1.0681315327688026
1658790027431618,-1.5564202334630863,-0.213626306553806,-0.9460593575952316
1658790027447618,0.09155413138023505,0.5188067444876197,-0.7019150072480898
1658790027463618,0.7629510948347615,1.0070954451819034,-0.5798428320745188
1658790027479618,0.9460593575952316,0.45777065690094787,-0.5188067444876197
1658790027495617,1.0681315327688026,-0.213626306553806,-0.7629510948347615
1658790027511617,1.6174563210497581,-0.03051804379333589,-1.4343480582895154
1658790027527617,1.6784924086366573,0.7629510948347615,-1.1902037079423735
1658790027543617,0.7629510948347615,0.45777065690094787,-1.0681315327688026
1658790027559617,0.7019150072480898,0.15259021896690683,-0.9460593575952316
1658790027575616,-0.03051804379333589,0.45777065690094787,-0.9460593575952316
1658790027591616,-1.4953841458761872,-0.09155413138023505,-1.5564202334630863
1658790027607616,-0.03051804379333589,0.33569848172737693,-2.227817196917613
1658790027623616,2.04470893415737,0.3967345693140487,-1.9226367589837992
1658790027639616,1.983672846570471,0.33569848172737693,-1.4343480582895154
1658790027655615,2.3498893720911838,-0.03051804379333589,-1.6784924086366573
1658790027671615,1.0681315327688026,-0.33569848172737693,-1.9226367589837992
1658790027687615,0.6408789196611906,-0.15259021896690683,-1.983672846570471
1658790027703615,1.5564202334630863,0.213626306553806,-1.983672846570471
1658790027719615,1.739528496223329,0.45777065690094787,-2.105745021744042
1658790027735595,-1.0681315327688026,0.33569848172737693,-2.105745021744042
1658790027751595,-0.7629510948347615,0.6408789196611906,-2.166781109330941
1658790027767595,0.2746623941404778,0.5188067444876197,-1.739528496223329
1658790027783595,0.45777065690094787,0.5188067444876197,-1.0070954451819034
1658790027799595,1.3733119707026162,0.5188067444876197,-0.8239871824216607
1658790027815594,0.09155413138023505,0.33569848172737693,-0.7019150072480898
1658790027831594,0.03051804379333589,-0.213626306553806,-0.5188067444876197
1658790027847594,1.0070954451819034,0.09155413138023505,-0.3967345693140487
1658790027863594,1.0070954451819034,0.3967345693140487,-1.4343480582895154
1658790027879593,0.8239871824216607,0.09155413138023505,-2.410925459678083
1658790027895593,1.8616006713969,0.33569848172737693,-2.227817196917613
1658790027911593,2.105745021744042,0.5188067444876197,-1.1902037079423735
1658790027927593,1.0681315327688026,1.1291676203554744,-0.7019150072480898
1658790027943593,-0.45777065690094787,0.9460593575952316,-1.0070954451819034
1658790027959592,-1.0070954451819034,0.15259021896690683,-1.5564202334630863
1658790027975592,0.45777065690094787,-0.3967345693140487,-1.1902037079423735
1658790027991592,2.532997634851654,0.09155413138023505,-0.33569848172737693
1658790028007592,2.227817196917613,0.09155413138023505,-0.9460593575952316
1658790028023592,1.9226367589837992,0.33569848172737693,-1.6174563210497581
1658790028039591,1.1902037079423735,-0.09155413138023505,-2.410925459678083
1658790028055603,2.105745021744042,0.03051804379333589,-2.04470893415737
1658790028071602,0.8850232700083325,0.5188067444876197,-0.9460593575952316
1658790028087602,-0.45777065690094787,0.33569848172737693,-0.7019150072480898
1658790028103602,-0.33569848172737693,0.3967345693140487,-0.8850232700083325
1658790028119602,-0.8239871824216607,-0.2746623941404778,-1.1902037079423735
1658790028135602,-0.6408789196611906,-0.7019150072480898,-1.1902037079423735
1658790028151601,-0.9460593575952316,-0.8239871824216607,-0.09155413138023505
1658790028167601,1.3733119707026162,-0.45777065690094787,1.0681315327688026
1658790028183601,2.3498893720911838,-0.6408789196611906,1.0070954451819034
1658790028199601,1.2512397955290453,-1.3122758831159445,0.6408789196611906
1658790028215601,2.3498893720911838,-1.2512397955290453,0.09155413138023505
1658790028231600,2.655069810025225,-0.6408789196611906,0.5798428320745188
1658790028247600,1.0681315327688026,-0.15259021896690683,0.8239871824216607
1658790028263600,-0.33569848172737693,0.45777065690094787,-0.09155413138023505
1658790028279600,-1.4343480582895154,0.33569848172737693,-1.0681315327688026
1658790028295600,-0.45777065690094787,0.03051804379333589,-0.9460593575952316
1658790028311599,2.166781109330941,0.09155413138023505,-0.03051804379333589
1658790028327599,2.4719615472647547,0.45777065690094787,0.5798428320745188
1658790028343599,-0.09155413138023505,0.45777065690094787,0.8850232700083325
1658790028359599,-1.0681315327688026,0.33569848172737693,0.8239871824216607
1658790028375579,0.03051804379333589,-0.3967345693140487,0.33569848172737693
1658790028391579,1.0681315327688026,-0.7629510948347615,-0.03051804379333589
1658790028407579,0.2746623941404778,-0.213626306553806,-0.03051804379333589
1658790028423579,-1.0681315327688026,-0.45777065690094787,-0.5798428320745188
1658790028439579,0.33569848172737693,-0.2746623941404778,-0.9460593575952316
1658790028455578,2.227817196917613,0.213626306553806,-0.45777065690094787
1658790028471578,0.8239871824216607,0.09155413138023505,-0.7019150072480898
1658790028487578,-1.0681315327688026,-0.45777065690094787,-1.739528496223329
1658790028503578,-1.739528496223329,-0.7629510948347615,-1.5564202334630863
1658790028519578,-0.15259021896690683,0.03051804379333589,-1.0070954451819034
1658790028535577,-1.2512397955290453,0.8850232700083325,-0.3967345693140487
1658790028551577,-2.7771419851987957,0.03051804379333589,0.09155413138023505
1658790028567577,-1.4953841458761872,-0.5188067444876197,-0.2746623941404778
1658790028583577,-0.3967345693140487,-0.8850232700083325,-0.6408789196611906
1658790028599577,1.3733119707026162,-0.5798428320745188,-0.213626306553806
1658790028615576,3.7537193865873633,0.3967345693140487,-0.5188067444876197
1658790028631576,3.997863736934505,0.2746623941404778,-1.739528496223329
1658790028647576,3.570611123826893,0.45777065690094787,-2.04470893415737
1658790028663576,2.4719615472647547,0.33569848172737693,-1.9226367589837992
1658790028679576,1.2512397955290453,0.7019150072480898,-1.3733119707026162
1658790028695587,0.03051804379333589,0.8239871824216607,-1.1291676203554744
1658790028711587,-1.3122758831159445,-0.09155413138023505,-1.0070954451819034
1658790028727586,-2.288853284504512,-0.213626306553806,0.15259021896690683
1658790028743586,-1.3733119707026162,-0.7629510948347615,1.3122758831159445
1658790028759586,1.0070954451819034,-0.213626306553806,1.6784924086366573
1658790028775586,1.1902037079423735,0.3967345693140487,1.0681315327688026
1658790028791586,0.8850232700083325,-0.09155413138023505,0.213626306553806
1658790028807585,1.6784924086366573,0.03051804379333589,0.5188067444876197
1658790028823585,1.739528496223329,0.8850232700083325,0.7019150072480898
1658790028839585,-0.33569848172737693,1.1902037079423735,-0.2746623941404778
1658790028855585,-1.9226367589837992,0.6408789196611906,-1.2512397955290453
1658790028871585,-0.5798428320745188,0.33569848172737693,-0.7019150072480898
1658790028887584,1.3733119707026162,0.8850232700083325,0.5798428320745188
1658790028903584,0.2746623941404778,1.0070954451819034,0.3967345693140487
1658790028919584,-2.532997634851654,0.5188067444876197,-0.5798428320745188
1658790028935584,-1.739528496223329,0.03051804379333589,-1.3122758831159445
1658790028951583,1.6784924086366573,0.3967345693140487,-0.6408789196611906
1658790028967583,3.3264667734797513,1.2512397955290453,-0.45777065690094787
1658790028983583,-1.1291676203554744,0.7019150072480898,-1.1291676203554744
1658790028999583,-3.6316472114137923,-0.09155413138023505,-2.7771419851987957
1658790029015594,-0.9460593575952316,-0.03051804379333589,-2.105745021744042
1658790029031594,2.3498893720911838,0.6408789196611906,-0.8850232700083325
1658790029047594,3.3264667734797513,1.1902037079423735,-1.0681315327688026
1658790029063593,0.5798428320745188,1.0070954451819034,-2.166781109330941
1658790029079593,-1.8616006713969,0.213626306553806,-2.5940337224383256
1658790029095593,-0.5188067444876197,0.213626306553806,-2.227817196917613
1658790029111593,2.105745021744042,1.0070954451819034,-1.8005645838102282
1658790029127593,1.8005645838102282,1.4343480582895154,-3.2043945983061803
1658790029143592,-0.6408789196611906,1.0070954451819034,-3.936827649347606
1658790029159592,1.1291676203554744,0.9460593575952316,-3.1433585107195086
1658790029175592,3.2043945983061803,1.3122758831159445,-1.6784924086366573
1658790029191592,3.2043945983061803,1.6174563210497581,-1.2512397955290453
1658790029207592,-0.15259021896690683,1.0070954451819034,-1.9226367589837992
1658790029223591,-1.6174563210497581,-0.03051804379333589,-2.288853284504512
1658790029239591,0.8239871824216607,-0.15259021896690683,-1.3733119707026162
1658790029255591,2.7161058976118966,0.7629510948347615,-0.7629510948347615
1658790029271591,1.4343480582895154,1.1902037079423735,-0.5798428320745188
1658790029287591,-1.3733119707026162,1.0070954451819034,-0.5188067444876197
1658790029303590,-0.15259021896690683,0.7629510948347615,-0.3967345693140487
1658790029319590,-0.33569848172737693,0.213626306553806,0.5188067444876197
1658790029335571,0.45777065690094787,-0.3967345693140487,0.03051804379333589
1658790029351571,1.8616006713969,-0.2746623941404778,-0.7019150072480898
1658790029367571,0.8239871824216607,0.15259021896690683,0.03051804379333589
1658790029383570,-0.7019150072480898,0.03051804379333589,0.33569848172737693
1658790029399570,0.3967345693140487,0.6408789196611906,0.9460593575952316
1658790029415570,-0.213626306553806,0.213626306553806,0.2746623941404778
1658790029431570,-1.1902037079423735,-1.3122758831159445,-1.3733119707026162
1658790029447569,0.213626306553806,-1.5564202334630863,-1.4343480582895154
1658790029463569,1.8005645838102282,-0.7019150072480898,-0.45777065690094787
1658790029479569,2.288853284504512,0.09155413138023505,-0.33569848172737693
1658790029495569,1.9226367589837992,0.6408789196611906,-0.5798428320745188
1658790029511569,-1.0681315327688026,0.6408789196611906,-0.9460593575952316
1658790029527568,-1.2512397955290453,0.2746623941404778,-1.3733119707026162
1658790029543568,-1.4343480582895154,0.03051804379333589,-1.2512397955290453
1658790029559568,-0.7629510948347615,0.3967345693140487,-0.6408789196611906
1658790029575568,1.0070954451819034,0.9460593575952316,-0.45777065690094787
1658790029591568,1.4953841458761872,1.4343480582895154,-0.3967345693140487
1658790029607567,0.7629510948347615,0.8850232700083325,-0.7019150072480898
1658790029623567,0.8239871824216607,0.3967345693140487,-0.8239871824216607
1658790029639567,2.8992141603723667,1.1291676203554744,0.2746623941404778
1658790029655578,4.9134050507361735,3.0212863355459376,1.5564202334630863
1658790029671578,3.3875028610666504,3.4485389486533222,1.4953841458761872
1658790029687578,0.33569848172737693,2.8992141603723667,0.5798428320745188
1658790029703578,-4.180971999694748,3.1433585107195086,0.7019150072480898
1658790029719577,-5.76791027695117,3.2043945983061803,1.2512397955290453
1658790029735577,-2.8381780727854675,2.8381780727854675,0.5188067444876197
1658790029751577,0.7019150072480898,1.739528496223329,-0.7019150072480898
1658790029767577,2.9602502479590385,1.1291676203554744,-0.5188067444876197
1658790029783577,2.7771419851987957,1.0070954451819034,0.7019150072480898
1658790029799576,2.166781109330941,0.8239871824216607,1.1902037079423735
1658790029815576,3.692683299000464,0.213626306553806,0.5188067444876197
1658790029831576,3.6316472114137923,-0.5188067444876197,0.15259021896690683
1658790029847576,4.852368963149502,-0.8239871824216607,0.3967345693140487
1658790029863576,2.410925459678083,0.2746623941404778,0.7019150072480898
1658790029879575,-0.7629510948347615,0.5798428320745188,0.33569848172737693
1658790029895575,-0.03051804379333589,1.0070954451819034,-0.15259021896690683
1658790029911575,0.5798428320745188,0.7629510948347615,-0.7019150072480898
1658790029927575,-0.5798428320745188,0.3967345693140487,-1.1902037079423735
1658790029943575,-1.8616006713969,0.33569848172737693,-1.8616006713969
1658790029959574,-2.227817196917613,0.5188067444876197,-1.8005645838102282
1658790029975555,-1.1902037079423735,1.2512397955290453,-1.8005645838102282
1658790029991555,-1.4953841458761872,1.4953841458761872,-1.9226367589837992
1658790030007555,-0.7019150072480898,0.33569848172737693,-3.2043945983061803
1658790030023554,2.166781109330941,-0.15259021896690683,-3.2043945983061803
1658790030039554,2.8381780727854675,-0.213626306553806,-2.8992141603723667
1658790030055554,2.532997634851654,0.6408789196611906,-2.4719615472647547
1658790030071554,1.8616006713969,0.8239871824216607,-2.9602502479590385
1658790030087554,0.6408789196611906,0.3967345693140487,-3.3264667734797513
1658790030103553,1.0070954451819034,0.03051804379333589,-3.3875028610666504
1658790030119553,1.4343480582895154,0.45777065690094787,-2.3498893720911838
1658790030135553,-0.09155413138023505,0.33569848172737693,-2.7161058976118966
1658790030151553,0.3967345693140487,0.45777065690094787,-2.8992141603723667
1658790030167553,1.0070954451819034,0.2746623941404778,-2.3498893720911838
1658790030183552,2.410925459678083,-0.6408789196611906,-2.655069810025225
1658790030199552,2.532997634851654,0.15259021896690683,-1.8616006713969
1658790030215552,1.1291676203554744,0.2746623941404778,-2.166781109330941
1658790030231552,2.7771419851987957,-0.2746623941404778,-2.7161058976118966
1658790030247552,4.180971999694748,-0.33569848172737693,-2.288853284504512
1658790030263551,2.288853284504512,-0.15259021896690683,-1.4343480582895154
1658790030279551,-0.03051804379333589,0.5798428320745188,-1.0070954451819034
1658790030295562,0.33569848172737693,1.1291676203554744,-0.5188067444876197
1658790030311562,0.7019150072480898,1.3733119707026162,-0.45777065690094787
1658790030327562,-0.8239871824216607,0.7019150072480898,-0.7629510948347615
1658790030343562,-1.4953841458761872,0.9460593575952316,0.33569848172737693
1658790030359562,-2.288853284504512,1.3122758831159445,1.1902037079423735
1658790030375561,-3.875791561760934,1.8005645838102282,1.0070954451819034
1658790030391561,-4.669260700389032,1.6784924086366573,0.7019150072480898
1658790030407561,-2.288853284504512,1.0681315327688026,1.0070954451819034
1658790030423561,-0.8850232700083325,0.6408789196611906,1.6784924086366573
1658790030439561,-1.0681315327688026,1.1291676203554744,1.9226367589837992
1658790030455560,-1.4343480582895154,1.3733119707026162,2.166781109330941
1658790030471560,-0.7019150072480898,0.45777065690094787,2.105745021744042
1658790030487560,2.8992141603723667,-0.213626306553806,2.4719615472647547
1658790030503560,1.8616006713969,-0.03051804379333589,2.8992141603723667
1658790030519559,-2.5940337224383256,0.33569848172737693,3.1433585107195086
1658790030535559,-3.936827649347606,0.5798428320745188,2.04470893415737
1658790030551559,-2.9602502479590385,0.3967345693140487,1.3122758831159445
1658790030567559,-0.7629510948347615,0.15259021896690683,0.6408789196611906
1658790030583559,0.6408789196611906,0.15259021896690683,0.09155413138023505
1658790030599558,0.09155413138023505,-0.213626306553806,-0.15259021896690683
1658790030615570,-0.7629510948347615,-0.3967345693140487,0.33569848172737693
1658790030631569,0.2746623941404778,-0.15259021896690683,0.5798428320745188
1658790030647569,-1.1291676203554744,0.3967345693140487,0.09155413138023505
1658790030663569,-1.9226367589837992,0.5798428320745188,-0.33569848172737693
1658790030679569,-2.166781109330941,0.5188067444876197,-0.45777065690094787
1658790030695569,-1.983672846570471,0.15259021896690683,-0.45777065690094787
1658790030711568,-1.5564202334630863,-0.213626306553806,-1.1291676203554744
1658790030727568,-2.5940337224383256,0.15259021896690683,-1.739528496223329
1658790030743568,-0.6408789196611906,-0.15259021896690683,-1.4953841458761872
1658790030759568,2.5940337224383256,-0.213626306553806,-1.739528496223329
1658790030775568,2.4719615472647547,-0.7019150072480898,-1.5564202334630863
1658790030791567,0.2746623941404778,-0.8239871824216607,-1.6174563210497581
1658790030807567,-0.6408789196611906,-0.6408789196611906,-2.4719615472647547
1658790030823567,0.5798428320745188,-0.45777065690094787,-2.5940337224383256
1658790030839567,2.5940337224383256,0.3967345693140487,-1.9226367589837992
1658790030855567,1.3122758831159445,-0.15259021896690683,-2.532997634851654
1658790030871566,0.33569848172737693,-0.7019150072480898,-2.532997634851654
1658790030887566,1.3733119707026162,-0.03051804379333589,-1.8616006713969
1658790030903566,2.410925459678083,0.5798428320745188,-1.739528496223329
1658790030919566,1.5564202334630863,0.2746623941404778,-1.9226367589837992
1658790030935547,1.9226367589837992,-0.33569848172737693,-2.105745021744042
1658790030951546,3.4485389486533222,-0.2746623941404778,-1.983672846570471
1658790030967546,2.8381780727854675,0.2746623941404778,-1.5564202334630863
1658790030983546,1.2512397955290453,0.5798428320745188,-2.4719615472647547
1658790030999546,1.0681315327688026,0.6408789196611906,-2.227817196917613
1658790031015545,1.0681315327688026,0.7629510948347615,-1.4343480582895154
1658790031031545,1.6784924086366573,0.45777065690094787,-1.739528496223329
1658790031047545,1.8616006713969,1.0681315327688026,-1.3122758831159445
1658790031063545,0.7019150072480898,0.5798428320745188,-2.105745021744042
1658790031079545,2.105745021744042,0.213626306553806,-2.532997634851654
1658790031095544,1.8005645838102282,0.33569848172737693,-2.105745021744042
1658790031111544,1.2512397955290453,0.7629510948347615,-1.8616006713969
1658790031127544,2.410925459678083,1.1291676203554744,-1.4343480582895154
1658790031143544,2.227817196917613,0.33569848172737693,-1.3733119707026162
1658790031159544,2.9602502479590385,-0.213626306553806,-1.3733119707026162
1658790031175543,2.288853284504512,-0.213626306553806,-0.6408789196611906
1658790031191543,-1.0070954451819034,0.33569848172737693,0.213626306553806
1658790031207543,-1.8005645838102282,0.33569848172737693,-0.09155413138023505
1658790031223543,1.3733119707026162,0.5798428320745188,-0.03051804379333589
1658790031239543,2.7771419851987957,0.2746623941404778,-0.8239871824216607
1658790031255554,2.655069810025225,0.213626306553806,-0.33569848172737693
1658790031271554,1.6174563210497581,0.33569848172737693,0.33569848172737693
1658790031287553,0.15259021896690683,0.5798428320745188,0.33569848172737693
1658790031303553,-1.4953841458761872,0.7629510948347615,0.45777065690094787
1658790031319553,-1.1902037079423735,1.0070954451819034,0.2746623941404778
1658790031335553,-0.3967345693140487,0.8239871824216607,0.15259021896690683
1658790031351553,-0.15259021896690683,0.2746623941404778,0.09155413138023505
1658790031367552,-1.0070954451819034,0.15259021896690683,-0.03051804379333589
1658790031383552,-0.5188067444876197,0.2746623941404778,-0.213626306553806
1658790031399552,0.03051804379333589,0.9460593575952316,-0.7629510948347615
1658790031415552,-0.2746623941404778,0.8850232700083325,-1.4953841458761872
1658790031431552,0.09155413138023505,0.213626306553806,-1.6174563210497581
1658790031447551,0.6408789196611906,-0.2746623941404778,-1.3122758831159445
1658790031463551,-0.5188067444876197,-0.5188067444876197,-0.8850232700083325
1658790031479551,-0.09155413138023505,-0.09155413138023505,-1.3122758831159445
1658790031495551,1.983672846570471,0.2746623941404778,-1.983672846570471
1658790031511551,2.5940337224383256,0.5798428320745188,-2.166781109330941
1658790031527550,1.4953841458761872,0.7019150072480898,-2.105745021744042
1658790031543550,0.09155413138023505,0.5188067444876197,-2.7161058976118966
1658790031559550,-0.8239871824216607,1.0070954451819034,-2.655069810025225
1658790031575531,-1.0070954451819034,0.33569848172737693,-3.2654306858930795
1658790031591530,2.3498893720911838,-0.09155413138023505,-3.5095750362402214
1658790031607530,4.42511635004189,0.5188067444876197,-2.105745021744042
1658790031623530,2.4719615472647547,1.0070954451819034,-1.4953841458761872
1658790031639530,0.15259021896690683,0.6408789196611906,-2.166781109330941
1658790031655530,0.7629510948347615,0.8850232700083325,-2.5940337224383256
1658790031671529,0.8239871824216607,0.33569848172737693,-3.0823224231326094
1658790031687529,1.8005645838102282,0.33569848172737693,-2.5940337224383256
1658790031703529,1.4953841458761872,0.45777065690094787,-1.983672846570471
1658790031719529,0.7629510948347615,0.5798428320745188,-2.105745021744042
1658790031735529,0.5798428320745188,0.7629510948347615,-1.9226367589837992
1658790031751528,0.8850232700083325,0.45777065690094787,-1.6784924086366573
1658790031767528,0.6408789196611906,0.45777065690094787,-1.0681315327688026
1658790031783528,0.5188067444876197,0.3967345693140487,-0.7629510948347615
1658790031799528,0.2746623941404778,0.33569848172737693,-1.0070954451819034
1658790031815528,0.45777065690094787,0.3967345693140487,-1.0070954451819034
1658790031831527,0.3967345693140487,0.5188067444876197,-0.213626306553806
1658790031847527,1.2512397955290453,0.3967345693140487,-0.2746623941404778
1658790031863527,1.1902037079423735,0.2746623941404778,-0.15259021896690683
1658790031879527,0.6408789196611906,0.2746623941404778,-0.15259021896690683
1658790031895538,0.7629510948347615,0.33569848172737693,0.33569848172737693
1658790031911538,-0.03051804379333589,0.6408789196611906,0.45777065690094787
1658790031927538,-1.6784924086366573,0.213626306553806,-0.15259021896690683
1658790031943537,-0.7629510948347615,0.03051804379333589,-0.33569848172737693
1658790031959537,0.9460593575952316,0.33569848172737693,-0.2746623941404778
1658790031975537,1.2512397955290453,0.15259021896690683,-0.9460593575952316
1658790031991537,0.33569848172737693,0.09155413138023505,-1.739528496223329
1658790032007537,0.9460593575952316,0.45777065690094787,-1.4343480582895154
1658790032023536,2.04470893415737,0.7019150072480898,-0.6408789196611906
1658790032039536,2.655069810025225,0.15259021896690683,-0.7019150072480898
1658790032055536,2.04470893415737,0.33569848172737693,-1.0070954451819034
1658790032071536,-0.45777065690094787,0.7019150072480898,-0.8239871824216607
1658790032087535,-1.4343480582895154,0.8239871824216607,-0.45777065690094787
1658790032103535,0.33569848172737693,0.6408789196611906,-0.5798428320745188
1658790032119535,1.8616006713969,0.7019150072480898,-0.7629510948347615
1658790032135535,1.1291676203554744,0.8850232700083325,-1.1291676203554744
1658790032151535,-0.33569848172737693,1.1902037079423735,-1.739528496223329
1658790032167534,0.6408789196611906,0.8239871824216607,-2.105745021744042
1658790032183534,3.2043945983061803,0.5188067444876197,-1.8616006713969
1658790032199534,3.2654306858930795,0.6408789196611906,-1.3122758831159445
1658790032215545,1.4953841458761872,1.3122758831159445,-1.1902037079423735
1658790032231545,-1.9226367589837992,0.7019150072480898,-1.8005645838102282
1658790032247545,-1.1291676203554744,0.7019150072480898,-1.6784924086366573
1658790032263545,1.3733119707026162,0.8239871824216607,-1.1902037079423735
1658790032279544,2.288853284504512,0.9460593575952316,-1.3122758831159445
1658790032295544,1.6174563210497581,1.0681315327688026,-1.8616006713969
1658790032311544,-0.09155413138023505,1.1291676203554744,-1.5564202334630863
1658790032327544,-0.33569848172737693,1.0070954451819034,-1.2512397955290453
1658790032343544,-0.03051804379333589,1.1902037079423735,-0.8239871824216607
1658790032359543,0.8239871824216607,1.0681315327688026,-1.2512397955290453
1658790032375543,1.0681315327688026,1.0070954451819034,-1.6784924086366573
1658790032391543,0.9460593575952316,0.6408789196611906,-1.6174563210497581
1658790032407543,2.166781109330941,0.5188067444876197,-0.5188067444876197
1658790032423543,1.0681315327688026,1.3733119707026162,0.5188067444876197
1658790032439542,-0.33569848172737693,1.1291676203554744,-0.15259021896690683
1658790032455542,-1.4343480582895154,0.09155413138023505,-1.1291676203554744
1658790032471542,0.213626306553806,-0.7629510948347615,-1.3733119707026162
1658790032487542,2.4719615472647547,-0.3967345693140487,-0.45777065690094787
1658790032503542,1.4343480582895154,0.7629510948347615,-0.09155413138023505
1658790032519541,-1.6174563210497581,0.5798428320745188,-1.9226367589837992
1658790032535522,-1.3733119707026162,0.03051804379333589,-2.7771419851987957
1658790032551522,3.0823224231326094,0.213626306553806,-2.288853284504512
1658790032567522,4.242008087281647,0.5188067444876197,-0.8850232700083325
1658790032583521,0.6408789196611906,0.45777065690094787,-1.0070954451819034
1658790032599521,-1.9226367589837992,0.15259021896690683,-2.04470893415737
1658790032615521,0.33569848172737693,0.09155413138023505,-2.105745021744042
1658790032631521,2.7161058976118966,0.2746623941404778,-1.4343480582895154
1658790032647521,2.288853284504512,0.5188067444876197,-1.739528496223329
1658790032663520,-0.45777065690094787,0.33569848172737693,-2.4719615472647547
1658790032679520,-1.4343480582895154,0.5188067444876197,-2.8381780727854675
1658790032695520,0.5798428320745188,0.213626306553806,-2.227817196917613
1658790032711520,3.1433585107195086,0.2746623941404778,-1.0681315327688026
1658790032727520,1.739528496223329,0.33569848172737693,-0.5188067444876197
1658790032743519,0.45777065690094787,-0.09155413138023505,-1.6784924086366573
1658790032759519,-0.03051804379333589,-0.09155413138023505,-1.8616006713969
1658790032775519,0.6408789196611906,-0.33569848172737693,-1.5564202334630863
1658790032791519,2.8381780727854675,0.45777065690094787,-0.7629510948347615
1658790032807519,2.04470893415737,0.9460593575952316,-0.6408789196611906
1658790032823518,0.3967345693140487,0.213626306553806,-1.8616006713969
1658790032839518,1.2512397955290453,0.15259021896690683,-1.4953841458761872
1658790032855529,1.5564202334630863,-0.03051804379333589,-0.09155413138023505
1658790032871529,0.5798428320745188,0.9460593575952316,0.6408789196611906
1658790032887529,-1.5564202334630863,0.9460593575952316,-0.3967345693140487
1658790032903529,-3.4485389486533222,0.7629510948347615,-0.9460593575952316
1658790032919529,-0.3967345693140487,0.2746623941404778,-0.7019150072480898
1658790032935528,3.4485389486533222,0.5188067444876197,0.5188067444876197
1658790032951528,2.8992141603723667,0.45777065690094787,0.03051804379333589
1658790032967528,-0.6408789196611906,-0.09155413138023505,-1.4953841458761872
1658790032983528,-2.166781109330941,-0.33569848172737693,-2.3498893720911838
1658790032999528,1.4343480582895154,-0.33569848172737693,-1.1902037079423735
1658790033015527,2.7161058976118966,0.5188067444876197,0.09155413138023505
1658790033031527,1.2512397955290453,0.33569848172737693,-0.33569848172737693
1658790033047527,-1.983672846570471,-0.2746623941404778,-1.983672846570471
1658790033063527,-1.6174563210497581,-0.2746623941404778,-1.983672846570471
1658790033079527,0.8239871824216607,0.8239871824216607,-1.0070954451819034
1658790033095526,1.0070954451819034,0.8239871824216607,-1.4343480582895154
1658790033111526,-0.03051804379333589,0.5188067444876197,-1.6174563210497581
1658790033127526,-1.6174563210497581,0.33569848172737693,-1.5564202334630863
1658790033143526,-0.45777065690094787,0.45777065690094787,-1.1291676203554744
1658790033159525,1.0681315327688026,0.5798428320745188,-0.7629510948347615
1658790033175506,1.1902037079423735,0.2746623941404778,-0.7019150072480898
1658790033191506,0.33569848172737693,0.33569848172737693,-0.7019150072480898
1658790033207506,1.2512397955290453,0.8850232700083325,-0.2746623941404778
1658790033223506,0.33569848172737693,1.0070954451819034,-0.6408789196611906
1658790033239505,-0.15259021896690683,0.8850232700083325,-1.4343480582895154
1658790033255505,0.3967345693140487,0.7629510948347615,-1.1291676203554744
1658790033271505,1.1291676203554744,0.5798428320745188,-0.33569848172737693
1658790033287505,0.45777065690094787,1.1291676203554744,-0.15259021896690683
1658790033303505,-0.5798428320745188,0.9460593575952316,-0.9460593575952316
1658790033319504,-1.4953841458761872,0.5188067444876197,-1.4953841458761872
1658790033335504,-1.0681315327688026,0.15259021896690683,-0.9460593575952316
1658790033351504,0.8850232700083325,0.9460593575952316,-0.6408789196611906
1658790033367504,0.8239871824216607,1.0681315327688026,-0.5188067444876197
1658790033383504,-0.15259021896690683,0.5798428320745188,-1.1291676203554744
1658790033399503,0.8850232700083325,0.213626306553806,-1.2512397955290453
1658790033415503,1.6784924086366573,0.3967345693140487,-0.7019150072480898
1658790033431503,1.8616006713969,0.7019150072480898,-0.3967345693140487
1658790033447503,-0.03051804379333589,1.0681315327688026,-0.8239871824216607
1658790033463503,-1.8616006713969,1.1291676203554744,-1.2512397955290453
1658790033479502,-0.45777065690094787,1.1291676203554744,-0.8850232700083325
1658790033495514,1.3122758831159445,0.8239871824216607,-0.33569848172737693
1658790033511513,2.166781109330941,0.5798428320745188,-0.9460593575952316
1658790033527513,0.33569848172737693,1.1291676203554744,-0.45777065690094787
1658790033543513,-2.288853284504512,1.2512397955290453,-0.2746623941404778
1658790033559513,0.09155413138023505,0.6408789196611906,-0.45777065690094787
1658790033575513,3.570611123826893,0.7019150072480898,0.5188067444876197
1658790033591512,2.288853284504512,0.213626306553806,0.5798428320745188
1658790033607512,-1.1902037079423735,0.45777065690094787,-0.03051804379333589
1658790033623512,-3.5095750362402214,0.5188067444876197,0.6408789196611906
1658790033639512,-1.3122758831159445,0.8239871824216607,1.4343480582895154
1658790033655511,0.8239871824216607,1.739528496223329,2.532997634851654
1658790033671511,-3.5095750362402214,1.8616006713969,2.3498893720911838
1658790033687511,-5.76791027695117,0.6408789196611906,0.9460593575952316
1658790033703511,-0.8850232700083325,0.9460593575952316,1.3733119707026162
1658790033719511,1.4953841458761872,1.3733119707026162,3.0212863355459376
1658790033735510,0.6408789196611906,2.105745021744042,3.570611123826893
1658790033751510,-2.532997634851654,2.4719615472647547,3.3875028610666504
1658790033767510,-2.7771419851987957,1.8005645838102282,3.2654306858930795
1658790033783510,0.09155413138023505,1.3122758831159445,4.42511635004189
1658790033799510,1.739528496223329,1.3122758831159445,6.256198977645454
1658790033815521,-1.0070954451819034,2.4719615472647547,7.476920729381163
1658790033831521,-6.561379415579495,2.5940337224383256,7.904173342488775
1658790033847520,-6.378271152819025,1.739528496223329,7.721065079728305
1658790033863520,0.45777065690094787,1.983672846570471,9.246967269398056
1658790033879520,3.1433585107195086,3.2043945983061803,10.162508583199724
1658790033895520,0.7629510948347615,3.0212863355459376,10.345616845960194
1658790033911520,-0.33569848172737693,2.410925459678083,10.833905546654478
1658790033927519,0.7019150072480898,3.2654306858930795,11.932555123216616
1658790033943519,1.1291676203554744,4.180971999694748,12.909132524605184
1658790033959519,0.213626306553806,3.997863736934505,13.031204699778755
1658790033975519,0.2746623941404778,3.5095750362402214,13.824673838406852
1658790033991519,1.6174563210497581,3.997863736934505,15.655756466010416
1658790034007518,1.8616006713969,4.42511635004189,16.876478217746126
1658790034023518,0.09155413138023505,5.0354772259097444,17.914091706721592
1658790034039518,-0.45777065690094787,4.42511635004189,18.341344319828977
1658790034055518,2.532997634851654,4.242008087281647,19.501029983978015
1658790034071518,1.6784924086366573,4.669260700389032,20.477607385366582
1658790034087517,-0.7629510948347615,5.279621576256886,20.477607385366582
1658790034103517,0.09155413138023505,6.195162890058782,21.33211261158158
1658790034119517,2.5940337224383256,7.11070420386045,21.820401312275862
1658790034135498,2.4719615472647547,7.17174029144735,22.186617837796575
1658790034151497,-1.8616006713969,7.782101167315204,22.8580148012511
1658790034167497,-5.3406576638437855,9.246967269398056,22.919050888838
1658790034183497,-5.157549401083315,10.101472495613052,23.346303501945386
1658790034199497,-1.6174563210497581,9.613183794918768,24.628061341267994
1658790034215497,-1.4343480582895154,10.223544670786623,26.6422522316318
1658790034231496,-6.012054627298312,10.284580758373295,27.98504615854108
1658790034247496,-6.256198977645454,9.73525597009234,28.778515297169406
1658790034263496,-2.166781109330941,9.613183794918768,29.999237048905115
1658790034279496,-0.3967345693140487,9.979400320439481,31.64721141374821
1658790034295496,-5.523765926604028,9.85732814526591,32.99000534065749
1658790034311495,-9.73525597009234,9.185931181811156,33.05104142824439
1658790034327495,-6.012054627298312,9.491111619745197,34.63797970550081
1658790034343495,-2.7771419851987957,10.833905546654478,35.73662928206295
1658790034359495,-4.730296787975931,11.383230334935433,35.61455710688938
1658790034375495,-5.2185854886702145,11.505302510109004,35.85870145723652
1658790034391494,-4.42511635004189,11.688410772869474,35.98077363241009
1658790034407494,-4.058899824521177,12.359807736324,36.346990157930804
1658790034423494,-5.76791027695117,13.336385137712568,36.89631494621176
1658790034439494,-5.95101853971164,12.909132524605184,37.9949645227739
1658790034455505,-2.7161058976118966,12.054627298390187,38.727397573815324
1658790034471505,-0.3967345693140487,13.58052948805971,40.80262455176603
1658790034487505,-4.9134050507361735,15.167467765316132,42.877851529716736
1658790034503504,-8.6366063935302,14.312962539101136,42.26749065384888
1658790034519504,-8.209353780422589,13.397421225299468,42.57267109178292
1658790034535504,-4.974441138323073,12.726024261844714,45.380331120775054
1658790034551504,-2.3498893720911838,13.45845731288614,47.57763027389933
1658790034567504,-7.049668116273779,13.885709925993751,47.82177462424647
1658790034583503,-9.430075532158298,13.336385137712568,47.638666361486
1658790034599503,-5.157549401083315,12.23773556115043,48.67627985046147
1658790034615503,1.2512397955290453,12.359807736324,51.36186770428003
1658790034631503,-2.8992141603723667,13.45845731288614,52.46051728084194
1658790034647503,-13.76363775082018,11.871519035629717,51.36186770428003
1658790034663502,-13.58052948805971,8.941786831464015,50.56839856565193
1658790034679502,-4.974441138323073,9.063859006637585,53.55916685740431
1658790034695502,-4.791332875562603,11.566338597695903,54.90196078431336
1658790034711502,-8.6366063935302,13.092240787365427,53.62020294499098
1658790034727501,-8.819714656290444,11.383230334935433,49.591821164263365
1658790034743501,-7.721065079728305,10.650797283894008,49.53078507667624
1658790034759501,-10.040436408026153,13.397421225299468,52.39948119325527
1658790034775482,-10.467689021133765,14.557106889448278,51.5449759670405
1658790034791482,-6.012054627298312,12.970168612191856,48.31006332494053
1658790034807481,-1.1902037079423735,10.589761196307336,47.39452201113886
1658790034823481,-5.828946364538069,11.01701380941472,48.92042420080861
1658790034839481,-12.298771648737329,12.603952086671143,49.65285725185004
1658790034855481,-13.336385137712568,11.505302510109004,49.16456855115575
1658790034871481,-9.430075532158298,8.758678568703772,48.371099412527656
1658790034887480,-7.660028992141633,8.209353780422589,47.02830548561815
1658790034903480,-11.383230334935433,10.040436408026153,46.11276417181648
1658790034919480,-16.754406042572555,11.932555123216616,46.845197222857905
1658790034935480,-9.308003356984727,10.955977721828049,45.319295033188155
1658790034951480,3.2043945983061803,9.85732814526591,45.502403295948625
1658790034967479,-1.6784924086366573,13.397421225299468,46.17380025940315
1658790034983479,-13.64156557564661,15.10643167772946,41.22987716487364
1658790034999479,-18.463416495002548,13.45845731288614,38.971541924162466
1658790035015479,-10.101472495613052,11.627374685282575,41.535057602807456
1658790035031479,-1.0070954451819034,13.153276874952326,44.58686198214673
1658790035047478,-6.500343327992596,12.23773556115043,44.7699702449072
1658790035063478,-14.80125123979542,8.819714656290444,43.18303196765078
1658790035079478,-11.20012207217519,7.660028992141633,43.8544289311053
1658790035095489,-1.2512397955290453,7.843137254901876,46.47898069733719
1658790035111489,-0.2746623941404778,9.613183794918768,48.43213550011433
1658790035127489,-5.645838101777599,10.955977721828049,45.380331120775054
1658790035143489,-16.02197299153113,10.162508583199724,40.43640802624532
1658790035159488,-11.688410772869474,8.209353780422589,36.77424277103819
1658790035175488,-1.1902037079423735,7.2938124666209205,37.9949645227739
1658790035191488,1.0070954451819034,11.749446860456146,41.290913252460314
1658790035207488,-3.0823224231326094,15.10643167772946,39.82604715037746
1658790035223487,-6.561379415579495,15.10643167772946,33.05104142824439
1658790035239487,-2.3498893720911838,13.214312962538997,29.51094834821083
1658790035255487,-3.2654306858930795,12.970168612191856,32.440680552376534
1658790035271487,-5.3406576638437855,14.92332341496899,35.126268406195095
1658790035287487,-10.406652933546866,16.26611734187827,34.76005188067438
1658790035303486,-15.411612115663274,15.228503852903032,30.54856183718607
1658790035319486,-11.810482948043045,12.4208438239109,26.52018005645823
1658790035335486,-2.655069810025225,12.787060349431613,28.351262684061794
1658790035351486,1.6174563210497581,16.937514305333025,34.2107270923932
1658790035367486,-1.1902037079423735,19.9282825970854,35.248340581368666
1658790035383485,-3.0823224231326094,15.472648203250174,30.121309224078686
1658790035399485,-1.2512397955290453,11.139085984588291,25.726710917830133
1658790035415496,0.33569848172737693,11.993591210803288,27.435721370260126
1658790035431496,-4.180971999694748,15.655756466010416,32.19653620202939
1658790035447496,-4.486152437628789,17.24269474326684,33.53933012893867
1658790035463496,0.33569848172737693,14.679179064621849,32.13550011444249
1658790035479496,-3.1433585107195086,11.139085984588291,31.036850537880355
1658790035495495,-7.537956816968062,10.101472495613052,32.562752727550105
1658790035511495,-13.275349050125897,12.909132524605184,35.43144884412891
1658790035527495,-14.80125123979542,10.833905546654478,34.08865491721963
1658790035543495,-12.603952086671143,6.378271152819025,31.158922713053926
1658790035559495,-7.476920729381163,4.119935912108076,30.73167009994654
1658790035575494,-7.782101167315204,3.5095750362402214,33.905546654459386
1658790035591494,-6.805523765926637,6.317235065232353,36.77424277103819
1658790035607494,-4.486152437628789,7.476920729381163,34.943160143434625
1658790035623494,-6.256198977645454,6.561379415579495,31.158922713053926
1658790035639494,-12.054627298390187,4.669260700389032,28.107118333714652
1658790035655493,-16.876478217746126,3.7537193865873633,27.069504844739413
1658790035671493,-17.36476691844041,4.974441138323073,28.107118333714652
1658790035687493,-12.848096437018285,7.17174029144735,28.778515297169406
1658790035703493,-9.918364232852582,6.012054627298312,27.130540932326085
1658790035719493,-2.4719615472647547,4.42511635004189,26.39810788128466
1658790035735473,-2.8381780727854675,5.584802014190927,27.86297398336751
1658790035751473,-9.55214770733187,7.904173342488775,27.98504615854108
1658790035767473,-13.153276874952326,7.537956816968062,24.383916990920852
1658790035783473,-6.439307240405924,7.049668116273779,22.8580148012511
1658790035799472,-2.4719615472647547,7.476920729381163,25.543602655069662
1658790035815472,-5.645838101777599,9.124895094224485,28.778515297169406
1658790035831472,-7.782101167315204,8.148317692835917,29.20576791027679
1658790035847472,-2.166781109330941,6.805523765926637,28.900587472342977
1658790035863472,-1.5564202334630863,6.073090714885211,31.219958800640825
1658790035879471,-4.60822461280236,5.279621576256886,30.914778362706784
1658790035895471,-6.134126802471883,3.875791561760934,28.351262684061794
1658790035911471,-5.3406576638437855,2.4719615472647547,27.61882963302037
1658790035927471,-9.002822919050914,3.4485389486533222,28.656443121995835
1658790035943471,-10.955977721828049,5.706874189364498,28.351262684061794
1658790035959470,-9.85732814526591,6.195162890058782,26.6422522316318
1658790035975470,-7.232776379034021,6.561379415579495,25.909819180590375
1658790035991470,-7.049668116273779,6.805523765926637,26.58121614404513
1658790036007470,-10.162508583199724,7.11070420386045,27.130540932326085
1658790036023470,-9.246967269398056,6.622415503166167,26.214999618524416
1658790036039469,-4.119935912108076,5.889982452124741,25.116350041962278
1658790036055481,-2.04470893415737,6.805523765926637,25.05531395437538
1658790036071480,-2.3498893720911838,7.11070420386045,25.726710917830133
1658790036087480,-1.983672846570471,7.537956816968062,27.679865720607268
1658790036103480,-3.2654306858930795,7.049668116273779,27.008468757152514
1658790036119480,-4.42511635004189,5.706874189364498,24.750133516441565
1658790036135480,-2.532997634851654,6.622415503166167,24.383916990920852
1658790036151479,-1.6784924086366573,8.026245517662346,26.214999618524416
1658790036167479,-3.997863736934505,7.904173342488775,25.60463874265656
1658790036183479,-6.744487678339738,7.17174029144735,22.67490653849086
1658790036199479,-8.941786831464015,7.476920729381163,20.294499122606112
1658790036215479,-10.89494163424115,8.270389868009488,19.9282825970854
1658790036231478,-6.8665598535133086,10.162508583199724,21.820401312275862
1658790036247478,-0.8850232700083325,12.298771648737329,23.468375677118956
1658790036263478,3.1433585107195086,12.726024261844714,22.430762188143717
1658790036279478,0.5188067444876197,10.284580758373295,19.1348134584573
1658790036295477,-2.227817196917613,9.124895094224485,17.24269474326684
1658790036311477,-2.166781109330941,8.6366063935302,17.975127794308264
1658790036327477,-0.5188067444876197,10.467689021133765,20.416571297779683
1658790036343477,0.8850232700083325,12.542915999084471,21.39314869916825
1658790036359477,5.828946364538069,11.688410772869474,20.416571297779683
1658790036375457,10.467689021133765,10.833905546654478,20.23346303501944
1658790036391457,4.60822461280236,11.139085984588291,19.867246509498727
1658790036407457,-5.95101853971164,10.89494163424115,19.1348134584573
1658790036423457,-8.087281605249018,9.67421988250544,19.195849546043974
1658790036439457,-6.744487678339738,9.73525597009234,19.073777370870403
1658790036455456,-4.119935912108076,10.162508583199724,16.754406042572555
1658790036471456,1.8616006713969,9.85732814526591,15.350576028076603
1658790036487456,4.669260700389032,10.101472495613052,16.815442130159454
1658790036503456,3.6316472114137923,10.650797283894008,16.876478217746126
1658790036519456,3.1433585107195086,11.261158159761862,14.98435950255589
1658790036535455,4.180971999694748,12.359807736324,13.275349050125897
1658790036551455,8.51453421835663,13.031204699778755,13.092240787365427
1658790036567455,8.33142595559616,12.603952086671143,13.397421225299468
1658790036583455,4.364080262455218,10.955977721828049,12.848096437018285
1658790036599455,-1.983672846570471,9.918364232852582,13.275349050125897
1658790036615454,-6.378271152819025,10.223544670786623,13.64156557564661
1658790036631454,-7.537956816968062,9.002822919050914,13.275349050125897
1658790036647454,-8.880750743877343,6.256198977645454,11.871519035629717
1658790036663454,-11.688410772869474,3.936827649347606,9.55214770733187
1658790036679453,-14.068818188753994,1.8005645838102282,7.11070420386045
1658790036695465,-16.876478217746126,0.33569848172737693,4.303044174868319
1658790036711465,-16.2050812542916,-0.5188067444876197,1.9226367589837992
1658790036727464,-10.406652933546866,-0.8850232700083325,0.8850232700083325
1658790036743464,-2.4719615472647547,-1.0070954451819034,-0.09155413138023505
1658790036759464,4.180971999694748,-2.04470893415737,-1.6784924086366573
1658790036775464,7.11070420386045,-2.7161058976118966,-4.669260700389032
1658790036791463,7.4158846417944915,-3.936827649347606,-8.697642481116873
1658790036807463,8.575570305943302,-4.730296787975931,-11.383230334935433
1658790036823463,7.537956816968062,-4.730296787975931,-12.176699473563758
1658790036839463,4.730296787975931,-4.547188525215461,-12.909132524605184
1658790036855463,1.739528496223329,-4.119935912108076,-14.007782101167322
1658790036871462,2.9602502479590385,-4.242008087281647,-16.02197299153113
1658790036887462,2.410925459678083,-4.974441138323073,-16.876478217746126
1658790036903462,-1.4953841458761872,-5.462729839017356,-17.79201953154802
1658790036919462,-3.3875028610666504,-5.2185854886702145,-18.82963302052326
1658790036935462,3.1433585107195086,-4.669260700389032,-19.439993896391115
1658790036951461,10.040436408026153,-5.157549401083315,-19.9893186846723
1658790036967461,8.575570305943302,-6.012054627298312,-21.27107652399468
1658790036983461,6.378271152819025,-6.500343327992596,-22.61387045090396
1658790036999461,8.392462043183059,-6.744487678339738,-22.919050888838
1658790037015442,13.397421225299468,-6.8665598535133086,-23.163195239185143
1658790037031441,13.64156557564661,-7.843137254901876,-23.468375677118956
1658790037047441,9.369039444571627,-9.246967269398056,-24.933241779201808
1658790037063441,8.148317692835917,-9.85732814526591,-26.82536049439227
1658790037079441,11.749446860456146,-10.284580758373295,-28.229190508888223
1658790037095440,13.153276874952326,-11.566338597695903,-29.14473182269012
1658790037111440,13.214312962538997,-13.092240787365427,-30.243381399252257
1658790037127440,13.824673838406852,-13.275349050125897,-31.403067063401295
1658790037143440,17.24269474326684,-13.824673838406852,-32.56275272755033
1658790037159440,20.35553521019301,-15.777828641183987,-34.21072709239343
1658790037175439,19.501029983978015,-17.853055619134693,-36.10284580758389
1658790037191439,16.08300907911803,-18.89066910811016,-37.933928435187454
1658790037207439,11.261158159761862,-19.745174334325156,-39.520866712443876
1658790037223439,9.002822919050914,-20.35553521019301,-41.41298542763411
1658790037239439,14.435034714274707,-20.294499122606112,-42.02334630350197
1658790037255438,19.317921721217544,-19.195849546043974,-41.59609369039458
1658790037271438,12.176699473563758,-19.9282825970854,-42.57267109178315
1658790037287438,6.744487678339738,-19.9282825970854,-44.70893415732053
1658790037303438,8.087281605249018,-19.439993896391115,-47.089341573205274
1658790037319438,9.73525597009234,-18.219272144655406,-47.63866636148623
1658790037335449,8.819714656290444,-17.120622568093268,-46.41794460975052
1658790037351449,10.467689021133765,-15.533684290836845,-46.41794460975052
1658790037367448,14.92332341496899,-15.10643167772946,-46.84519722285813
1658790037383448,12.23773556115043,-16.754406042572555,-46.906233310444804
1658790037399448,7.354848554207592,-16.815442130159454,-47.211413748378845
1658790037415448,13.031204699778755,-15.655756466010416,-46.78416113527123
1658790037431448,16.02197299153113,-15.838864728770886,-45.07515068284124
1658790037447447,12.298771648737329,-16.32715342946517,-45.19722285801481
1658790037463447,7.476920729381163,-15.655756466010416,-45.44136720836195
1658790037479447,12.176699473563758,-15.533684290836845,-44.95307850766767
1658790037495447,16.937514305333025,-14.251926451514464,-42.57267109178315
1658790037511447,16.2050812542916,-9.85732814526591,-40.741588464179586
1658790037527446,12.176699473563758,-9.002822919050914,-42.38956282902268
1658790037543446,11.444266422522333,-10.345616845960194,-42.69474326695672
1658790037559446,10.589761196307336,-10.345616845960194,-40.2532997634853
1658790037575446,9.613183794918768,-8.45349813076973,-38.23910887312127
1658790037591446,10.589761196307336,-8.392462043183059,-37.68978408484031
1658790037607445,13.885709925993751,-9.002822919050914,-37.3235675593196
1658790037623445,13.946746013580423,-11.139085984588291,-35.79766536964985
1658790037639445,12.542915999084471,-11.566338597695903,-32.928969253071045
1658790037655456,10.589761196307336,-11.20012207217519,-32.25757228961629
1658790037671456,7.17174029144735,-11.932555123216616,-35.187304493781994
1658790037687456,7.660028992141633,-12.970168612191856,-36.28595407034413
1658790037703456,10.101472495613052,-12.115663385976859,-33.966582742046285
1658790037719455,10.406652933546866,-8.51453421835663,-30.4875257495994
1658790037735455,6.744487678339738,-7.2938124666209205,-30.73167009994654
1658790037751455,3.1433585107195086,-9.918364232852582,-34.88212405584818
1658790037767455,7.476920729381163,-11.261158159761862,-35.67559319447628
1658790037783455,10.345616845960194,-8.758678568703772,-32.37964446478986
1658790037799454,6.805523765926637,-7.17174029144735,-31.219958800640825
1658790037815454,7.17174029144735,-8.392462043183059,-32.44068055237676
1658790037831454,9.918364232852582,-8.758678568703772,-31.464103150988194
1658790037847454,5.279621576256886,-7.2938124666209205,-30.792706187533213
1658790037863453,1.6784924086366573,-7.598992904554734,-32.56275272755033
1658790037879453,5.279621576256886,-7.537956816968062,-31.769283588922008
1658790037895453,9.124895094224485,-5.279621576256886,-27.80193789578084
1658790037911453,5.889982452124741,-4.9134050507361735,-26.764324406805372
1658790037927453,-1.3733119707026162,-6.134126802471883,-28.778515297169406
1658790037943452,-2.410925459678083,-7.904173342488775,-30.54856183718607
1658790037959452,5.523765926604028,-8.270389868009488,-28.96162355992965
1658790037975433,10.772869459067579,-6.683451590753066,-24.505989166094423
1658790037991433,8.270389868009488,-5.279621576256886,-23.407339589532285
1658790038007433,1.6174563210497581,-6.561379415579495,-26.6422522316318
1658790038023432,1.5564202334630863,-8.575570305943302,-28.900587472342977
1658790038039432,5.523765926604028,-8.51453421835663,-27.191577019912984
1658790038055432,5.2185854886702145,-7.354848554207592,-24.200808728160382
1658790038071432,2.9602502479590385,-7.11070420386045,-24.444953078507524
1658790038087432,3.4485389486533222,-8.087281605249018,-26.459143968871558
1658790038103431,6.439307240405924,-9.430075532158298,-27.008468757152514
1658790038119431,6.744487678339738,-8.270389868009488,-25.909819180590375
1658790038135431,1.3733119707026162,-7.11070420386045,-26.031891355763946
1658790038151431,0.213626306553806,-7.476920729381163,-27.557793545433697
1658790038167431,4.058899824521177,-8.270389868009488,-28.04608224612798
1658790038183430,6.012054627298312,-7.660028992141633,-26.39810788128466
1658790038199430,5.462729839017356,-6.378271152819025,-24.872205691615136
1658790038215430,0.8239871824216607,-6.195162890058782,-24.933241779201808
1658790038231430,-0.8239871824216607,-7.11070420386045,-26.82536049439227
1658790038247429,2.7771419851987957,-7.782101167315204,-27.130540932326085
1658790038263429,3.936827649347606,-7.354848554207592,-25.60463874265656
1658790038279429,6.8665598535133086,-7.232776379034021,-22.980086976424673
1658790038295440,9.491111619745197,-6.744487678339738,-20.11139085984587
1658790038311440,6.378271152819025,-7.721065079728305,-21.942473487449433
1658790038327440,0.7629510948347615,-9.85732814526591,-25.17738612954895
1658790038343440,4.119935912108076,-9.979400320439481,-25.48256656748299
1658790038359439,9.55214770733187,-8.33142595559616,-22.247653925383247
1658790038375439,11.07804989700162,-6.683451590753066,-20.35553521019301
1658790038391439,7.598992904554734,-7.354848554207592,-22.003509575036105
1658790038407439,1.9226367589837992,-9.308003356984727,-24.322880903333953
1658790038423439,2.105745021744042,-9.185931181811156,-24.811169604028237
1658790038439438,4.791332875562603,-7.11070420386045,-22.369726100556818
1658790038455438,6.500343327992596,-5.889982452124741,-20.477607385366582
1658790038471438,4.60822461280236,-7.11070420386045,-22.61387045090396
1658790038487438,2.04470893415737,-8.209353780422589,-24.567025253681095
1658790038503438,5.828946364538069,-8.819714656290444,-24.26184481574728
1658790038519437,8.819714656290444,-8.026245517662346,-22.125581750209676
1658790038535437,9.73525597009234,-6.561379415579495,-20.904859998473967
1658790038551437,4.9134050507361735,-6.439307240405924,-22.186617837796575
1658790038567437,1.1902037079423735,-7.049668116273779,-23.95666437781324
1658790038583437,3.0823224231326094,-7.904173342488775,-23.83459220263967
1658790038599436,6.622415503166167,-7.232776379034021,-22.125581750209676
1658790038615448,6.561379415579495,-6.744487678339738,-20.660715648126825
1658790038631447,6.744487678339738,-7.11070420386045,-20.721751735713724
1658790038647447,4.058899824521177,-8.758678568703772,-22.79697871366443
1658790038663447,1.9226367589837992,-9.73525597009234,-24.383916990920852
1658790038679447,4.9134050507361735,-9.491111619745197,-23.163195239185143
1658790038695447,9.85732814526591,-8.209353780422589,-20.294499122606112
1658790038711446,11.261158159761862,-7.476920729381163,-20.294499122606112
1658790038727446,3.3875028610666504,-7.843137254901876,-23.590447852292527
1658790038743446,-1.739528496223329,-8.6366063935302,-25.36049439230942
1658790038759446,3.936827649347606,-7.17174029144735,-23.773556115052997
1658790038775446,9.613183794918768,-4.974441138323073,-22.369726100556818
1658790038791445,7.537956816968062,-5.401693751430457,-23.102159151598244
1658790038807445,1.739528496223329,-6.134126802471883,-23.83459220263967
1658790038823445,0.7019150072480898,-6.9886320286868795,-24.383916990920852
1658790038839445,3.2043945983061803,-6.378271152819025,-23.163195239185143
1658790038855445,4.486152437628789,-4.852368963149502,-22.67490653849086
1658790038871444,2.9602502479590385,-5.096513313496644,-24.26184481574728
1658790038887444,6.561379415579495,-6.744487678339738,-25.23842221713585
1658790038903444,9.185931181811156,-6.9886320286868795,-22.980086976424673
1658790038919444,9.246967269398056,-5.279621576256886,-21.45418478675515
1658790038935424,4.791332875562603,-6.134126802471883,-22.919050888838
1658790038951424,5.3406576638437855,-6.8665598535133086,-24.444953078507524
1658790038967424,10.528725108720437,-5.889982452124741,-23.590447852292527
1658790038983424,9.73525597009234,-4.547188525215461,-23.224231326771815
1658790038999424,3.570611123826893,-5.523765926604028,-24.872205691615136
1658790039015423,3.5095750362402214,-6.195162890058782,-25.970855268177274
1658790039031423,9.308003356984727,-6.317235065232353,-24.505989166094423
1658790039047423,12.542915999084471,-4.974441138323073,-21.759365224688963
1658790039063423,9.85732814526591,-5.2185854886702145,-22.125581750209676
1658790039079423,4.242008087281647,-6.195162890058782,-23.95666437781324
1658790039095422,4.60822461280236,-6.195162890058782,-23.529411764705856
1658790039111422,6.439307240405924,-4.9134050507361735,-22.552834363317288
1658790039127422,4.730296787975931,-4.486152437628789,-22.61387045090396
1658790039143422,2.410925459678083,-5.279621576256886,-23.773556115052997
1658790039159422,7.537956816968062,-5.584802014190927,-23.773556115052997
1658790039175421,10.101472495613052,-5.584802014190927,-20.965896086060866
1658790039191421,9.491111619745197,-4.791332875562603,-19.195849546043974
1658790039207421,5.889982452124741,-5.706874189364498,-20.35553521019301
1658790039223421,6.195162890058782,-6.8665598535133086,-20.965896086060866
1658790039239421,10.101472495613052,-7.232776379034021,-20.05035477225897
1658790039255432,8.941786831464015,-6.439307240405924,-18.280308232242305
1658790039271432,3.0823224231326094,-6.8665598535133086,-18.036163881895163
1658790039287431,0.2746623941404778,-7.660028992141633,-18.463416495002548
1658790039303431,2.105745021744042,-7.232776379034021,-18.341344319828977
1658790039319431,4.364080262455218,-6.805523765926637,-17.79201953154802
1658790039335431,4.669260700389032,-6.622415503166167,-17.24269474326684
1658790039351431,2.288853284504512,-7.049668116273779,-18.95170519569683
1658790039367430,4.9134050507361735,-8.270389868009488,-19.9893186846723
1658790039383430,10.101472495613052,-8.148317692835917,-18.95170519569683
1658790039399430,9.73525597009234,-7.660028992141633,-18.402380407415876
1658790039415430,4.180971999694748,-6.805523765926637,-18.70756084534969
1658790039431429,-1.0681315327688026,-7.11070420386045,-21.39314869916825
1658790039447429,0.5798428320745188,-6.622415503166167,-22.49179827573039
1658790039463429,4.791332875562603,-5.706874189364498,-20.416571297779683
1658790039479429,3.0823224231326094,-4.669260700389032,-18.70756084534969
1658790039495429,-1.0681315327688026,-5.096513313496644,-20.11139085984587
1658790039511428,-1.6784924086366573,-5.706874189364498,-20.721751735713724
1658790039527428,2.4719615472647547,-6.683451590753066,-20.477607385366582
1658790039543428,6.134126802471883,-6.744487678339738,-19.623102159151586
1658790039559428,4.058899824521177,-6.134126802471883,-19.256885633630873
1658790039575409,2.288853284504512,-5.889982452124741,-19.867246509498727
1658790039591408,5.645838101777599,-6.073090714885211,-19.9893186846723
1658790039607408,11.505302510109004,-5.3406576638437855,-19.1348134584573
1658790039623408,9.308003356984727,-5.401693751430457,-18.402380407415876
1658790039639408,5.645838101777599,-6.195162890058782,-17.975127794308264
1658790039655408,4.669260700389032,-6.012054627298312,-17.42580300602731
1658790039671407,6.073090714885211,-6.622415503166167,-19.1348134584573
1658790039687407,6.9886320286868795,-7.4158846417944915,-20.23346303501944
1658790039703407,5.157549401083315,-6.073090714885211,-19.073777370870403
1658790039719407,2.4719615472647547,-5.157549401083315,-18.58548867017612
1658790039735407,0.8850232700083325,-5.401693751430457,-20.477607385366582
1658790039751406,2.655069810025225,-6.378271152819025,-23.224231326771815
1658790039767406,6.378271152819025,-6.073090714885211,-22.919050888838
1658790039783406,6.561379415579495,-4.42511635004189,-21.33211261158158
1658790039799406,5.2185854886702145,-3.997863736934505,-20.721751735713724
1658790039815405,3.1433585107195086,-3.875791561760934,-22.125581750209676
1658790039831405,3.814755474174035,-4.242008087281647,-22.49179827573039
1658790039847405,5.462729839017356,-3.997863736934505,-21.210040436408008
1658790039863405,5.096513313496644,-3.1433585107195086,-19.9282825970854
1658790039879405,1.9226367589837992,-2.655069810025225,-19.501029983978015
1658790039895416,1.4343480582895154,-3.2043945983061803,-20.599679560540153
1658790039911416,4.9134050507361735,-3.814755474174035,-20.35553521019301
1658790039927415,7.2938124666209205,-3.2043945983061803,-18.89066910811016
1658790039943415,5.401693751430457,-2.9602502479590385,-18.280308232242305
1658790039959415,4.119935912108076,-2.8992141603723667,-18.280308232242305
1658790039975415,4.547188525215461,-2.7161058976118966,-17.79201953154802
1658790039991415,4.60822461280236,-3.0823224231326094,-17.54787518120088
1658790040007414,3.3264667734797513,-2.3498893720911838,-17.303730830853738
1658790040023414,0.9460593575952316,-2.105745021744042,-18.097199969481835
1658790040039414,2.7771419851987957,-2.166781109330941,-18.76859693293659
1658790040055414,4.974441138323073,-2.8992141603723667,-17.975127794308264
1658790040071414,1.4953841458761872,-3.0823224231326094,-17.42580300602731
1658790040087413,0.213626306553806,-3.6316472114137923,-17.853055619134693
1658790040103413,-0.33569848172737693,-3.1433585107195086,-17.48683909361398
1658790040119413,0.15259021896690683,-3.5095750362402214,-17.66994735637445
1658790040135413,0.15259021896690683,-3.6316472114137923,-17.66994735637445
1658790040151413,0.7019150072480898,-3.0212863355459376,-17.60891126878755
1658790040167412,0.6408789196611906,-2.5940337224383256,-18.219272144655406
1658790040183412,3.2654306858930795,-2.8381780727854675,-18.95170519569683
1658790040199412,5.95101853971164,-2.8381780727854675,-18.58548867017612
1658790040215423,3.936827649347606,-2.04470893415737,-16.998550392919697
1658790040231423,0.8239871824216607,-0.9460593575952316,-16.510261692225413
1658790040247423,4.547188525215461,-0.3967345693140487,-15.716792553597315
1658790040263423,9.55214770733187,-0.213626306553806,-13.885709925993751
1658790040279422,3.692683299000464,0.8850232700083325,-12.176699473563758
1658790040295422,-5.645838101777599,1.5564202334630863,-11.322194247348762
1658790040311422,-3.936827649347606,2.5940337224383256,-9.67421988250544
1658790040327422,4.669260700389032,4.547188525215461,-5.279621576256886
1658790040343422,8.209353780422589,6.134126802471883,-1.3733119707026162
1658790040359421,3.3875028610666504,5.706874189364498,0.3967345693140487
1658790040375421,-3.5095750362402214,6.256198977645454,3.997863736934505
1658790040391421,-4.974441138323073,7.354848554207592,8.51453421835663
1658790040407421,-0.5188067444876197,7.17174029144735,12.23773556115043
1658790040423421,-1.0070954451819034,6.256198977645454,17.059586480506596
1658790040439420,-7.17174029144735,6.378271152819025,21.087968261234437
1658790040455420,-12.481879911497572,6.317235065232353,24.07873655298681
1658790040471420,-11.139085984588291,6.622415503166167,27.679865720607268
1658790040487420,-7.782101167315204,6.378271152819025,30.36545357442583
1658790040503420,-9.308003356984727,6.317235065232353,32.86793316548392
1658790040519419,-8.270389868009488,6.683451590753066,34.821087968261054
1658790040535431,-5.0354772259097444,7.476920729381163,37.2014953841458
1658790040551430,-6.134126802471883,8.209353780422589,39.154650186922936
1658790040567430,-8.697642481116873,8.270389868009488,39.58190280003032
1658790040583430,-9.613183794918768,8.209353780422589,40.1312275883115
1658790040599430,-6.195162890058782,9.308003356984727,43.18303196765078
1658790040615430,-7.660028992141633,10.772869459067579,44.52582589456006
1658790040631429,-11.749446860456146,11.322194247348762,43.976501106278874
1658790040647429,-10.528725108720437,11.322194247348762,44.281681544212915
1658790040663429,-3.997863736934505,11.383230334935433,45.92965590905601
1658790040679429,-1.8005645838102282,12.603952086671143,47.57763027389933
1658790040695428,-6.805523765926637,12.909132524605184,47.39452201113886
1658790040711428,-11.07804989700162,12.603952086671143,47.638666361486
1658790040727428,-10.589761196307336,12.23773556115043,48.6152437628748
1658790040743428,-9.979400320439481,12.298771648737329,49.77492942702338
1658790040759428,-11.810482948043045,12.542915999084471,50.75150682841195
1658790040775427,-11.810482948043045,12.603952086671143,50.629434653238604
1658790040791427,-6.744487678339738,13.092240787365427,50.812542915999074
1658790040807427,-1.3122758831159445,14.740215152208748,51.850156404974314
1658790040823427,-3.814755474174035,15.655756466010416,52.3384451056686
1658790040839427,-9.918364232852582,15.350576028076603,51.850156404974314
1658790040855438,-9.67421988250544,15.289539940489703,51.30083161669336
1658790040871438,-7.782101167315204,15.350576028076603,52.15533684290813
1658790040887437,-11.01701380941472,15.10643167772946,52.033264667734784
1658790040903437,-17.059586480506596,14.98435950255589,50.93461509117242
1658790040919437,-13.824673838406852,14.92332341496899,50.01907377737052
1658790040935437,-8.575570305943302,15.838864728770886,51.4229037918667
1658790040951437,-7.904173342488775,16.815442130159454,52.39948119325527
1658790040967436,-10.162508583199724,16.510261692225413,50.99565117875909
1658790040983436,-8.148317692835917,16.388189517051842,50.01907377737052
1658790040999436,-6.561379415579495,15.777828641183987,48.67627985046147
1658790041015436,-10.345616845960194,15.411612115663274,47.6997024490729
1658790041031436,-14.251926451514464,16.754406042572555,47.82177462424647
1658790041047435,-12.909132524605184,16.876478217746126,48.31006332494053
1658790041063435,-8.6366063935302,16.1440451667047,48.004882887006715
1658790041079435,-6.927595941100208,15.960936903944457,47.57763027389933
1658790041095435,-10.772869459067579,15.655756466010416,47.51659418631243
1658790041111435,-15.777828641183987,15.350576028076603,46.23483634699005
1658790041127434,-17.181658655680167,14.618142977035177,45.624475471122196
1658790041143434,-12.787060349431613,14.373998626688035,46.47898069733719
1658790041159434,-3.692683299000464,14.618142977035177,46.17380025940315
1658790041175415,-5.096513313496644,15.045395590142562,45.92965590905601
1658790041191414,-18.402380407415876,14.373998626688035,44.281681544212915
1658790041207414,-22.369726100556818,13.397421225299468,42.32852674143578
1658790041223414,-10.772869459067579,14.190890363927565,41.8402380407415
1658790041239414,-2.7771419851987957,16.510261692225413,41.65712977798103
1658790041255414,-10.650797283894008,17.36476691844041,39.82604715037746
1658790041271413,-18.036163881895163,16.510261692225413,36.163881895170334
1658790041287413,-14.373998626688035,15.838864728770886,35.37041275654224
1658790041303413,-5.584802014190927,16.571297779812312,36.71320668345152
1658790041319413,-8.087281605249018,17.60891126878755,37.628747997253186
1658790041335413,-12.054627298390187,17.059586480506596,36.591134508277946
1658790041351412,-9.918364232852582,15.167467765316132,35.67559319447605
1658790041367412,-9.124895094224485,13.58052948805971,35.67559319447605
1658790041383412,-10.284580758373295,12.481879911497572,36.591134508277946
1658790041399412,-13.45845731288614,12.359807736324,38.30014496070794
1658790041415412,-11.749446860456146,11.688410772869474,38.36118104829461
1658790041431411,-8.819714656290444,10.89494163424115,36.65217059586462
1658790041447411,-7.476920729381163,9.796292057679011,34.821087968261054
1658790041463411,-11.810482948043045,9.796292057679011,34.2717631799801
1658790041479411,-14.007782101167322,11.20012207217519,33.17311360341796
1658790041495422,-11.749446860456146,12.970168612191856,32.379644464789635
1658790041511422,-4.486152437628789,12.664988174258042,30.30441748683893
1658790041527422,-1.2512397955290453,12.603952086671143,29.022659647516548
1658790041543421,-4.730296787975931,14.740215152208748,29.32784008545036
1658790041559421,-9.55214770733187,14.129854276340893,28.351262684061794
1658790041575421,-5.096513313496644,12.909132524605184,27.008468757152514
1658790041591421,-0.15259021896690683,13.824673838406852,27.61882963302037
1658790041607421,-1.1291676203554744,14.80125123979542,27.80193789578084
1658790041623420,-4.791332875562603,14.618142977035177,27.61882963302037
1658790041639420,-5.0354772259097444,14.007782101167322,28.717479209582507
1658790041655420,-5.462729839017356,12.787060349431613,29.999237048905115
1658790041671420,-8.148317692835917,11.566338597695903,28.96162355992965
1658790041687420,-10.162508583199724,11.627374685282575,28.839551384756078
1658790041703419,-7.965209430075447,11.810482948043045,29.999237048905115
1658790041719419,-6.744487678339738,11.749446860456146,31.76928358892178
1658790041735419,-8.148317692835917,10.711833371480907,31.76928358892178
1658790041751419,-6.744487678339738,9.308003356984727,31.403067063401068
1658790041767418,-4.180971999694748,9.85732814526591,32.257572289616064
1658790041783418,-4.242008087281647,10.772869459067579,32.74586099031035
1658790041799418,-5.95101853971164,10.101472495613052,32.501716639963206
1658790041815429,-7.782101167315204,8.697642481116873,32.01342793926892
1658790041831429,-8.697642481116873,6.561379415579495,31.097886625467254
1658790041847429,-12.909132524605184,6.500343327992596,31.158922713053926
1658790041863429,-11.261158159761862,7.904173342488775,31.76928358892178
1658790041879428,-6.195162890058782,9.369039444571627,31.83031967650868
1658790041895428,-2.7771419851987957,9.85732814526591,29.755092698557974
1658790041911428,-4.974441138323073,9.85732814526591,26.52018005645823
1658790041927428,-12.970168612191856,8.45349813076973,23.224231326771815
1658790041943428,-23.590447852292527,8.087281605249018,22.980086976424673
1658790041959427,-22.247653925383247,9.491111619745197,25.543602655069662
1658790041975427,-9.369039444571627,11.871519035629717,30.30441748683893
1658790041991427,3.0823224231326094,12.4208438239109,31.70824750133511
1658790042007427,2.227817196917613,10.89494163424115,28.656443121995835
1658790042023427,-16.08300907911803,6.744487678339738,25.17738612954895
1658790042039426,-27.496757457846797,3.2654306858930795,23.7125200274661
1658790042055426,-18.463416495002548,4.364080262455218,26.459143968871558
1658790042071426,0.15259021896690683,8.941786831464015,29.38887617303726
1658790042087426,6.683451590753066,10.528725108720437,28.16815442130155
1658790042103426,-0.03051804379333589,8.209353780422589,23.651483939879427
1658790042119425,-13.946746013580423,6.561379415579495,22.186617837796575
1658790042135406,-17.60891126878755,8.087281605249018,23.651483939879427
1658790042151406,-8.819714656290444,10.833905546654478,25.970855268177274
1658790042167406,0.5188067444876197,11.688410772869474,26.031891355763946
1658790042183406,-2.227817196917613,9.124895094224485,24.628061341267994
1658790042199405,-13.275349050125897,7.11070420386045,22.552834363317288
1658790042215405,-15.472648203250174,6.195162890058782,22.064545662623004
1658790042231405,-3.3875028610666504,7.537956816968062,24.26184481574728
1658790042247405,2.4719615472647547,8.575570305943302,24.872205691615136
1658790042263404,1.1902037079423735,7.965209430075447,23.041123064011572
1658790042279404,-3.3264667734797513,7.354848554207592,21.087968261234437
1658790042295404,-5.0354772259097444,8.392462043183059,20.599679560540153
1658790042311404,-3.6316472114137923,8.880750743877343,20.904859998473967
1658790042327404,-1.2512397955290453,8.819714656290444,21.33211261158158
1658790042343403,-5.401693751430457,8.392462043183059,21.026932173647538
1658790042359403,-10.345616845960194,8.51453421835663,19.01274128328373
1658790042375403,-13.64156557564661,6.439307240405924,15.777828641183987
1658790042391403,-11.07804989700162,5.096513313496644,15.045395590142562
1658790042407403,-5.462729839017356,6.317235065232353,17.303730830853738
1658790042423402,-3.0212863355459376,7.598992904554734,18.402380407415876
1658790042439402,-1.9226367589837992,7.11070420386045,17.059586480506596
1658790042455413,0.5798428320745188,5.523765926604028,15.960936903944457
1658790042471413,1.9226367589837992,4.42511635004189,16.937514305333025
1658790042487413,-2.3498893720911838,3.7537193865873633,17.48683909361398
1658790042503413,-8.087281605249018,3.5095750362402214,17.36476691844041
1658790042519413,-9.491111619745197,4.852368963149502,17.66994735637445
1658790042535412,-4.60822461280236,6.073090714885211,17.730983443961122
1658790042551412,-3.5095750362402214,5.2185854886702145,17.059586480506596
1658790042567412,-4.669260700389032,4.42511635004189,16.2050812542916
1658790042583412,-6.134126802471883,3.692683299000464,16.571297779812312
1658790042599412,-8.270389868009488,2.9602502479590385,16.693369954985883
1658790042615411,-7.17174029144735,2.8992141603723667,15.716792553597315
1658790042631411,-3.692683299000464,2.3498893720911838,15.533684290836845
1658790042647411,-1.5564202334630863,2.5940337224383256,16.388189517051842
1658790042663411,-1.739528496223329,3.4485389486533222,16.693369954985883
1658790042679411,-1.4343480582895154,4.486152437628789,15.777828641183987
1658790042695410,-1.0070954451819034,4.60822461280236,14.068818188753994
1658790042711410,0.03051804379333589,3.7537193865873633,12.909132524605184
1658790042727410,0.3967345693140487,4.486152437628789,14.190890363927565
1658790042743410,0.3967345693140487,6.8665598535133086,16.08300907911803
1658790042759410,0.03051804379333589,7.721065079728305,16.754406042572555
1658790042775390,1.983672846570471,8.026245517662346,17.181658655680167
1658790042791390,-0.09155413138023505,7.537956816968062,16.754406042572555
1658790042807390,-4.730296787975931,5.279621576256886,16.632333867398984
1658790042823390,-5.76791027695117,4.547188525215461,18.219272144655406
1658790042839389,-6.012054627298312,4.852368963149502,19.80621042191183
1658790042855389,-5.0354772259097444,5.523765926604028,19.439993896391115
1658790042871389,-4.60822461280236,5.462729839017356,18.463416495002548
1658790042887389,-5.096513313496644,3.7537193865873633,16.510261692225413
1658790042903389,-2.7771419851987957,2.7771419851987957,15.716792553597315
1658790042919388,-2.3498893720911838,2.4719615472647547,15.960936903944457
1658790042935388,-4.974441138323073,1.4343480582895154,15.10643167772946
1658790042951388,-3.875791561760934,0.8239871824216607,14.190890363927565
1658790042967388,-0.6408789196611906,0.8239871824216607,14.373998626688035
1658790042983388,-1.1902037079423735,0.9460593575952316,12.970168612191856
1658790042999387,-3.3264667734797513,0.5188067444876197,9.918364232852582
1658790043015387,-3.936827649347606,-1.6174563210497581,6.683451590753066
1658790043031387,-6.073090714885211,-3.5095750362402214,3.3264667734797513
1658790043047387,-7.4158846417944915,-3.5095750362402214,0.213626306553806
1658790043063387,-6.073090714885211,-3.3264667734797513,-1.1291676203554744
1658790043079386,-1.8005645838102282,-3.570611123826893,-1.5564202334630863
1658790043095398,-0.213626306553806,-2.7161058976118966,-3.4485389486533222
1658790043111397,2.3498893720911838,-2.410925459678083,-6.744487678339738
1658790043127397,3.3264667734797513,-4.180971999694748,-9.796292057679011
1658790043143397,0.6408789196611906,-4.852368963149502,-12.054627298390187
1658790043159397,-3.692683299000464,-5.279621576256886,-14.007782101167322
1658790043175397,-1.3122758831159445,-5.3406576638437855,-15.228503852903032
1658790043191396,4.669260700389032,-5.2185854886702145,-15.350576028076603
1658790043207396,4.669260700389032,-5.157549401083315,-16.876478217746126
1658790043223396,1.4343480582895154,-6.805523765926637,-19.684138246738257
1658790043239396,-0.45777065690094787,-7.2938124666209205,-21.39314869916825
1658790043255396,5.279621576256886,-5.706874189364498,-21.637293049515392
1658790043271395,7.782101167315204,-4.852368963149502,-21.51522087434182
1658790043287395,7.843137254901876,-6.195162890058782,-22.73594262607753
1658790043303395,5.157549401083315,-8.209353780422589,-23.773556115052997
1658790043319395,2.5940337224383256,-9.796292057679011,-24.628061341267994
1658790043335394,2.655069810025225,-10.101472495613052,-25.48256656748299
1658790043351394,5.95101853971164,-8.941786831464015,-26.214999618524416
1658790043367394,6.195162890058782,-7.965209430075447,-27.069504844739413
1658790043383394,7.17174029144735,-7.782101167315204,-28.412298771648693
1658790043399394,9.430075532158298,-8.45349813076973,-29.14473182269012
1658790043415405,10.833905546654478,-9.246967269398056,-29.877164873731545
1658790043431405,11.01701380941472,-9.67421988250544,-31.097886625467254
1658790043447404,11.627374685282575,-10.162508583199724,-32.745860990310575
1658790043463404,11.505302510109004,-10.406652933546866,-33.23414969100486
1658790043479404,8.941786831464015,-10.406652933546866,-34.088654917219856
1658790043495404,7.721065079728305,-9.85732814526591,-35.431448844129136
1658790043511404,10.223544670786623,-9.063859006637585,-36.713206683451745
1658790043527403,8.45349813076973,-9.979400320439481,-38.54428931105531
1658790043543403,7.537956816968062,-10.284580758373295,-40.1922636758984
1658790043559403,14.190890363927565,-9.55214770733187,-39.15465018692316
1658790043575403,16.510261692225413,-8.026245517662346,-37.81185626001388
1658790043591403,13.885709925993751,-8.392462043183059,-38.48325322346841
1658790043607402,8.026245517662346,-9.185931181811156,-40.741588464179586
1658790043623402,10.162508583199724,-9.918364232852582,-42.20645456626244
1658790043639402,11.261158159761862,-9.85732814526591,-41.779201953154825
1658790043655402,11.810482948043045,-9.55214770733187,-40.680552376592686
1658790043671402,7.049668116273779,-9.491111619745197,-38.72739757381555
1658790043687401,5.889982452124741,-9.67421988250544,-37.81185626001388
1658790043703401,7.965209430075447,-10.711833371480907,-39.03257801174959
1658790043719401,11.01701380941472,-11.566338597695903,-39.398794537270305
1658790043735382,11.932555123216616,-12.298771648737329,-38.30014496070817
1658790043751381,14.740215152208748,-12.054627298390187,-35.98077363241032
1658790043767381,12.298771648737329,-11.871519035629717,-35.370412756542464
1658790043783381,6.9886320286868795,-13.153276874952326,-38.056000610361025
1658790043799381,7.17174029144735,-13.45845731288614,-39.276722362096734
1658790043815381,9.918364232852582,-12.23773556115043,-38.1170366979477
1658790043831380,9.124895094224485,-10.772869459067579,-38.36118104829484
1658790043847380,8.209353780422589,-10.040436408026153,-39.45983062485698
1658790043863380,9.613183794918768,-9.55214770733187,-38.60532539864198
1658790043879380,13.275349050125897,-9.796292057679011,-37.01838712138556
1658790043895380,14.98435950255589,-10.040436408026153,-35.492484931716035
1658790043911379,10.528725108720437,-10.223544670786623,-35.67559319447628
1658790043927379,3.7537193865873633,-10.650797283894008,-38.30014496070817
1658790043943379,6.012054627298312,-11.993591210803288,-40.558480201419115
1658790043959379,12.23773556115043,-11.871519035629717,-39.276722362096734
1658790043975379,12.848096437018285,-9.979400320439481,-36.10284580758389
1658790043991378,5.889982452124741,-8.45349813076973,-35.187304493781994
1658790044007378,5.2185854886702145,-8.209353780422589,-37.994964522774126
1658790044023378,9.124895094224485,-9.613183794918768,-39.70397497520412
1658790044039378,12.23773556115043,-9.246967269398056,-38.54428931105531
1658790044055389,5.279621576256886,-6.9886320286868795,-36.835278858625315
1658790044071389,3.570611123826893,-6.256198977645454,-38.72739757381555
1658790044087389,9.491111619745197,-5.401693751430457,-38.84946974898912
1658790044103388,16.876478217746126,-5.462729839017356,-37.81185626001388
1658790044119388,16.08300907911803,-4.730296787975931,-34.69901579308771
1658790044135388,10.955977721828049,-4.42511635004189,-32.50171663996343
1658790044151388,9.369039444571627,-5.706874189364498,-32.867933165484146
1658790044167388,8.392462043183059,-7.11070420386045,-32.6848249027239
1658790044183387,6.561379415579495,-7.598992904554734,-32.01342793926915
1658790044199387,5.401693751430457,-6.317235065232353,-29.877164873731545
1658790044215387,4.364080262455218,-6.378271152819025,-30.30441748683893
1658790044231387,3.6316472114137923,-6.8665598535133086,-31.525139238574866
1658790044247387,5.828946364538069,-6.744487678339738,-31.769283588922008
1658790044263386,8.026245517662346,-4.058899824521177,-30.30441748683893
1658790044279386,8.33142595559616,-3.7537193865873633,-30.792706187533213
1658790044295386,6.8665598535133086,-5.95101853971164,-32.25757228961629
1658790044311386,7.598992904554734,-8.087281605249018,-31.280994888227724
1658790044327386,9.002822919050914,-6.9886320286868795,-29.633020523384403
1658790044343385,9.369039444571627,-5.95101853971164,-29.694056610971074
1658790044359385,5.2185854886702145,-6.073090714885211,-30.121309224078686
1658790044375366,1.3122758831159445,-7.782101167315204,-30.243381399252257
1658790044391366,2.166781109330941,-8.270389868009488,-29.14473182269012
1658790044407365,4.9134050507361735,-8.6366063935302,-28.473334859235365
1658790044423365,3.692683299000464,-9.185931181811156,-28.96162355992965
1658790044439365,4.364080262455218,-9.185931181811156,-29.14473182269012
1658790044455365,3.3875028610666504,-9.613183794918768,-29.633020523384403
1658790044471365,3.875791561760934,-9.185931181811156,-30.73167009994654
1658790044487364,4.242008087281647,-9.185931181811156,-32.56275272755033
1658790044503364,7.4158846417944915,-9.85732814526591,-33.051041428244616
1658790044519364,9.796292057679011,-9.124895094224485,-31.525139238574866
1658790044535364,7.904173342488775,-8.087281605249018,-32.19653620202962
1658790044551364,3.570611123826893,-8.209353780422589,-34.027618829633184
1658790044567363,4.364080262455218,-8.941786831464015,-34.51590753032747
1658790044583363,10.040436408026153,-8.819714656290444,-32.25757228961629
1658790044599363,11.688410772869474,-8.026245517662346,-30.4875257495994
1658790044615363,5.279621576256886,-8.51453421835663,-32.07446402685605
1658790044631363,-0.15259021896690683,-9.73525597009234,-33.11207751583129
1658790044647362,4.730296787975931,-9.246967269398056,-31.830319676508907
1658790044663362,12.481879911497572,-7.354848554207592,-28.107118333714652
1658790044679362,11.749446860456146,-7.904173342488775,-28.351262684061794
1658790044695373,2.7771419851987957,-9.002822919050914,-30.975814450293683
1658790044711373,0.15259021896690683,-10.040436408026153,-32.37964446478986
1658790044727373,8.148317692835917,-8.819714656290444,-29.999237048905115
1658790044743373,13.519493400473038,-6.9886320286868795,-27.557793545433697
1658790044759372,7.476920729381163,-7.4158846417944915,-29.571984435797503
1658790044775372,0.45777065690094787,-8.45349813076973,-32.44068055237676
1658790044791372,4.119935912108076,-8.33142595559616,-32.44068055237676
1658790044807372,12.23773556115043,-6.744487678339738,-29.51094834821083
1658790044823372,10.772869459067579,-6.317235065232353,-29.51094834821083
1658790044839371,4.058899824521177,-6.317235065232353,-31.403067063401295
1658790044855371,5.828946364538069,-7.2938124666209205,-31.952391851682478
1658790044871371,13.214312962538997,-6.561379415579495,-29.14473182269012
1658790044887371,14.92332341496899,-5.279621576256886,-26.886396581978943
1658790044903370,6.500343327992596,-6.622415503166167,-29.51094834821083
1658790044919370,3.2043945983061803,-6.683451590753066,-31.525139238574866
1658790044935370,5.0354772259097444,-5.889982452124741,-29.694056610971074
1658790044951370,7.660028992141633,-3.936827649347606,-26.7032883192187
1658790044967370,3.5095750362402214,-3.997863736934505,-27.252613107499656
1658790044983369,2.410925459678083,-5.3406576638437855,-29.32784008545036
1658790044999369,5.3406576638437855,-5.76791027695117,-27.92401007095441
1658790045015380,7.4158846417944915,-5.3406576638437855,-25.970855268177274
1658790045031380,9.491111619745197,-5.0354772259097444,-24.13977264057371
1658790045047380,7.721065079728305,-4.669260700389032,-24.322880903333953
1658790045063380,3.814755474174035,-5.76791027695117,-26.764324406805372
1658790045079380,5.828946364538069,-6.195162890058782,-26.947432669565842
1658790045095379,7.965209430075447,-5.0354772259097444,-24.567025253681095
1658790045111379,5.462729839017356,-4.303044174868319,-24.26184481574728
1658790045127379,2.227817196917613,-4.60822461280236,-25.543602655069662
1658790045143379,2.9602502479590385,-5.706874189364498,-25.970855268177274
1658790045159379,7.598992904554734,-6.256198977645454,-24.750133516441565
1658790045175378,9.308003356984727,-5.523765926604028,-22.247653925383247
1658790045191378,4.730296787975931,-5.889982452124741,-22.186617837796575
1658790045207378,1.9226367589837992,-6.500343327992596,-23.407339589532285
1658790045223378,2.8992141603723667,-7.049668116273779,-23.407339589532285
1658790045239378,5.3406576638437855,-6.927595941100208,-22.73594262607753
1658790045255377,1.8616006713969,-6.500343327992596,-21.881437399862534
1658790045271377,-3.2654306858930795,-6.622415503166167,-24.322880903333953
1658790045287377,0.9460593575952316,-5.096513313496644,-26.214999618524416
1658790045303377,10.711833371480907,-3.936827649347606,-25.36049439230942
1658790045319377,11.993591210803288,-2.7771419851987957,-24.444953078507524
1658790045335357,4.791332875562603,-2.8381780727854675,-25.909819180590375
1658790045351357,-0.8239871824216607,-2.8992141603723667,-27.92401007095441
1658790045367357,3.4485389486533222,-2.288853284504512,-27.496757457846797
1658790045383357,9.85732814526591,-1.9226367589837992,-25.05531395437538
1658790045399356,6.9886320286868795,-1.983672846570471,-22.369726100556818
1658790045415356,-0.7629510948347615,-3.5095750362402214,-23.224231326771815
1658790045431356,-1.0681315327688026,-4.791332875562603,-24.811169604028237
1658790045447356,7.476920729381163,-4.42511635004189,-23.102159151598244
1658790045463356,11.383230334935433,-3.2654306858930795,-20.599679560540153
1658790045479355,7.476920729381163,-4.119935912108076,-21.759365224688963
1658790045495355,1.739528496223329,-4.303044174868319,-23.224231326771815
1658790045511355,1.1902037079423735,-3.4485389486533222,-23.7125200274661
1658790045527355,6.439307240405924,-2.288853284504512,-22.980086976424673
1658790045543355,7.598992904554734,-1.739528496223329,-21.57625696192872
1658790045559354,1.9226367589837992,-2.7771419851987957,-22.247653925383247
1658790045575354,-2.4719615472647547,-4.242008087281647,-24.628061341267994
1658790045591354,0.15259021896690683,-5.0354772259097444,-24.933241779201808
1658790045607354,7.4158846417944915,-4.42511635004189,-23.590447852292527
1658790045623354,10.772869459067579,-3.5095750362402214,-24.01770046540014
1658790045639353,7.660028992141633,-4.119935912108076,-25.665674830243233
1658790045655365,4.791332875562603,-4.303044174868319,-27.252613107499656
1658790045671364,9.246967269398056,-3.3264667734797513,-27.679865720607268
1658790045687364,12.359807736324,-2.166781109330941,-27.61882963302037
1658790045703364,10.345616845960194,-1.3122758831159445,-27.679865720607268
1658790045719364,4.547188525215461,-1.4343480582895154,-27.191577019912984
1658790045735364,3.570611123826893,-1.983672846570471,-25.42153047989609
1658790045751363,2.3498893720911838,-2.410925459678083,-23.651483939879427
1658790045767363,2.166781109330941,-3.2654306858930795,-23.468375677118956
1658790045783363,3.2654306858930795,-4.303044174868319,-23.89562829022657
1658790045799363,6.012054627298312,-4.242008087281647,-22.369726100556818
1658790045815363,7.598992904554734,-3.6316472114137923,-20.477607385366582
1658790045831362,6.8665598535133086,-3.1433585107195086,-20.538643472953254
1658790045847362,7.660028992141633,-1.739528496223329,-21.637293049515392
1658790045863362,11.993591210803288,-1.6784924086366573,-21.637293049515392
1658790045879362,16.2050812542916,-1.0070954451819034,-19.501029983978015
1658790045895362,12.23773556115043,-1.4343480582895154,-17.914091706721592
1658790045911361,4.242008087281647,-2.8381780727854675,-18.036163881895163
1658790045927361,0.03051804379333589,-4.730296787975931,-18.341344319828977
1658790045943361,5.889982452124741,-6.805523765926637,-17.79201953154802
1658790045959361,13.275349050125897,-7.476920729381163,-16.571297779812312
1658790045975341,12.787060349431613,-6.9886320286868795,-16.937514305333025
1658790045991341,3.6316472114137923,-6.622415503166167,-19.195849546043974
1658790046007341,-0.5188067444876197,-6.317235065232353,-22.125581750209676
1658790046023341,3.7537193865873633,-5.2185854886702145,-22.552834363317288
1658790046039341,12.603952086671143,-4.058899824521177,-21.087968261234437
1658790046055340,10.711833371480907,-2.8381780727854675,-20.416571297779683
1658790046071340,0.2746623941404778,-2.9602502479590385,-22.003509575036105
1658790046087340,-6.073090714885211,-3.692683299000464,-23.83459220263967
1658790046103340,3.0823224231326094,-2.166781109330941,-21.881437399862534
1658790046119340,13.58052948805971,-1.2512397955290453,-18.463416495002548
1658790046135339,13.519493400473038,-2.4719615472647547,-18.463416495002548
1658790046151339,3.3875028610666504,-2.532997634851654,-19.01274128328373
1658790046167339,-2.227817196917613,-2.04470893415737,-17.975127794308264
1658790046183339,3.814755474174035,-0.5798428320745188,-15.350576028076603
1658790046199339,10.89494163424115,0.2746623941404778,-13.092240787365427
1658790046215338,7.049668116273779,0.03051804379333589,-10.955977721828049
1658790046231338,-5.584802014190927,0.8850232700083325,-8.51453421835663
1658790046247338,-12.176699473563758,1.8005645838102282,-5.76791027695117
1658790046263338,-6.195162890058782,2.227817196917613,-2.166781109330941
1658790046279338,3.0212863355459376,2.166781109330941,1.3733119707026162
1658790046295349,0.09155413138023505,1.983672846570471,4.364080262455218
1658790046311349,-6.622415503166167,1.4343480582895154,6.317235065232353
1658790046327348,-4.242008087281647,2.8381780727854675,8.270389868009488
1658790046343348,0.3967345693140487,4.669260700389032,11.688410772869474
1658790046359348,-0.7629510948347615,4.791332875562603,13.702601663233281
1658790046375348,-8.209353780422589,4.9134050507361735,15.411612115663274
1658790046391348,-13.153276874952326,5.279621576256886,17.66994735637445
1658790046407347,-13.031204699778755,6.073090714885211,20.11139085984587
1658790046423347,-9.491111619745197,5.645838101777599,22.61387045090396
1658790046439347,-8.33142595559616,4.669260700389032,24.872205691615136
1658790046455347,-11.322194247348762,4.058899824521177,26.947432669565842
1658790046471346,-10.711833371480907,3.875791561760934,28.778515297169406
1658790046487346,-7.660028992141633,4.852368963149502,30.4875257495994
1658790046503346,-7.2938124666209205,4.791332875562603,31.097886625467254
1658790046519346,-8.209353780422589,4.303044174868319,31.76928358892178
1658790046535346,-8.45349813076973,4.9134050507361735,32.501716639963206
1658790046551345,-10.345616845960194,6.256198977645454,33.11207751583106
1658790046567345,-10.589761196307336,6.012054627298312,32.07446402685582
1658790046583345,-6.622415503166167,6.500343327992596,32.07446402685582
1658790046599345,-4.486152437628789,7.354848554207592,34.02761882963296
1658790046615356,-6.439307240405924,8.270389868009488,35.065232318608196
1658790046631356,-10.162508583199724,8.45349813076973,35.67559319447605
1658790046647356,-10.711833371480907,7.782101167315204,35.85870145723652
1658790046663355,-8.148317692835917,7.598992904554734,37.628747997253186
1658790046679355,-7.4158846417944915,7.4158846417944915,38.78843366140222
1658790046695355,-9.613183794918768,6.927595941100208,37.87289234760033
1658790046711355,-9.491111619745197,7.354848554207592,37.811856260013656
1658790046727355,-6.073090714885211,7.598992904554734,38.0560006103608
1658790046743354,-2.3498893720911838,8.392462043183059,38.78843366140222
1658790046759354,-4.242008087281647,7.782101167315204,38.42221713588151
1658790046775354,-9.124895094224485,7.4158846417944915,37.9949645227739
1658790046791354,-13.275349050125897,8.697642481116873,38.23910887312104
1658790046807354,-12.542915999084471,9.308003356984727,38.17807278553437
1658790046823353,-6.683451590753066,9.063859006637585,38.910505836575794
1658790046839353,-5.2185854886702145,9.185931181811156,39.88708323796436
1658790046855353,-9.308003356984727,9.002822919050914,39.032578011749365
1658790046871353,-10.772869459067579,9.491111619745197,38.36118104829461
1658790046887353,-6.622415503166167,9.613183794918768,38.48325322346818
1658790046903352,-3.0823224231326094,9.918364232852582,39.70397497520389
1658790046919352,-6.744487678339738,9.491111619745197,39.88708323796436
1658790046935333,-13.519493400473038,9.002822919050914,39.21568627450961
1658790046951333,-11.932555123216616,8.758678568703772,38.971541924162466
1658790046967332,-5.157549401083315,10.101472495613052,41.10780498970007
1658790046983332,-5.2185854886702145,11.20012207217519,42.816815442130064
1658790046999332,-10.406652933546866,9.613183794918768,42.20645456626221
1658790047015332,-10.406652933546866,8.209353780422589,41.596093690394355
1658790047031332,-6.134126802471883,7.843137254901876,42.51163500419602
1658790047047331,-6.8665598535133086,8.51453421835663,43.67132066834506
1658790047063331,-10.284580758373295,8.45349813076973,42.755779354543165
1658790047079331,-9.67421988250544,8.758678568703772,42.99992370489031
1658790047095331,-7.354848554207592,10.650797283894008,44.46478980697316
1658790047111331,-6.439307240405924,10.711833371480907,43.73235675593173
1658790047127330,-6.317235065232353,9.85732814526591,43.976501106278874
1658790047143330,-7.354848554207592,9.063859006637585,45.86861982146934
1658790047159330,-10.284580758373295,8.33142595559616,46.35690852216362
1658790047175330,-16.08300907911803,7.843137254901876,45.86861982146934
1658790047191330,-17.914091706721592,7.843137254901876,46.17380025940315
1658790047207329,-10.650797283894008,8.6366063935302,46.540016784923864
1658790047223329,-3.5095750362402214,9.124895094224485,46.23483634699005
1658790047239329,-6.134126802471883,8.819714656290444,44.89204242008077
1658790047255340,-11.139085984588291,8.392462043183059,42.99992370489031
1658790047271340,-8.026245517662346,9.002822919050914,43.12199588006388
1658790047287340,-3.3875028610666504,9.85732814526591,43.54924849317149
1658790047303340,-4.42511635004189,9.918364232852582,42.755779354543165
1658790047319339,-9.979400320439481,9.613183794918768,40.070191500724604
1658790047335339,-15.533684290836845,9.185931181811156,38.910505836575794
1658790047351339,-14.129854276340893,9.185931181811156,40.43640802624532
1658790047367339,-6.8665598535133086,8.270389868009488,41.65712977798103
1658790047383339,-1.1291676203554744,6.561379415579495,41.8402380407415
1658790047399338,-3.875791561760934,5.828946364538069,40.9246967269396
1658790047415338,-12.054627298390187,5.584802014190927,40.1312275883115
1658790047431338,-12.359807736324,7.598992904554734,39.64293888761722
1658790047447338,-7.537956816968062,9.67421988250544,36.95735103379866
1658790047463338,-7.782101167315204,9.185931181811156,31.464103150987967
1658790047479337,-13.214312962538997,11.383230334935433,29.51094834821083
1658790047495337,-13.519493400473038,12.909132524605184,31.464103150987967
1658790047511337,-4.180971999694748,13.45845731288614,34.63797970550081
1658790047527337,9.979400320439481,13.824673838406852,35.43144884412891
1658790047543336,9.308003356984727,11.444266422522333,34.2717631799801
1658790047559336,-6.622415503166167,7.4158846417944915,31.70824750133511
1658790047575348,-12.481879911497572,5.0354772259097444,30.4875257495994
1658790047591347,-5.096513313496644,4.669260700389032,30.670634012359642
1658790047607347,2.8992141603723667,5.157549401083315,30.60959792477297
1658790047623347,0.7629510948347615,7.598992904554734,31.036850537880355
1658790047639347,-7.843137254901876,10.101472495613052,29.38887617303726
1658790047655346,-9.063859006637585,10.528725108720437,26.031891355763946
1658790047671346,-1.983672846570471,11.01701380941472,24.383916990920852
1658790047687346,0.03051804379333589,11.993591210803288,24.07873655298681
1658790047703346,-4.60822461280236,13.275349050125897,23.407339589532285
1658790047719346,-8.45349813076973,13.702601663233281,22.919050888838
1658790047735345,-3.692683299000464,12.054627298390187,24.26184481574728
1658790047751345,2.8381780727854675,10.955977721828049,26.7032883192187
1658790047767345,0.7629510948347615,10.772869459067579,27.008468757152514
1658790047783345,-6.012054627298312,9.918364232852582,24.994277866788707
1658790047799345,-11.20012207217519,9.73525597009234,23.590447852292527
1658790047815344,-5.401693751430457,9.246967269398056,23.407339589532285
1658790047831344,1.5564202334630863,11.01701380941472,26.82536049439227
1658790047847344,2.655069810025225,13.397421225299468,27.86297398336751
1658790047863344,-6.195162890058782,12.603952086671143,24.200808728160382
1658790047879344,-7.049668116273779,11.688410772869474,18.82963302052326
1658790047895324,-3.3264667734797513,12.481879911497572,18.76859693293659
1658790047911324,-2.7771419851987957,13.031204699778755,21.33211261158158
1658790047927324,-2.8381780727854675,13.336385137712568,24.933241779201808
1658790047943324,-2.5940337224383256,12.176699473563758,25.36049439230942
1658790047959324,1.3122758831159445,10.467689021133765,23.83459220263967
1658790047975323,0.3967345693140487,9.613183794918768,24.872205691615136
1658790047991323,-3.3875028610666504,9.063859006637585,25.726710917830133
1658790048007323,-7.660028992141633,9.369039444571627,26.337071793697987
1658790048023323,-9.613183794918768,9.246967269398056,24.811169604028237
1658790048039322,-6.622415503166167,8.392462043183059,22.61387045090396
1658790048055322,-4.242008087281647,8.941786831464015,23.224231326771815
1658790048071322,-6.561379415579495,9.67421988250544,26.459143968871558
1658790048087322,-9.918364232852582,10.040436408026153,27.557793545433697
1658790048103322,-6.561379415579495,8.575570305943302,25.543602655069662
1658790048119321,0.7019150072480898,7.721065079728305,24.01770046540014
1658790048135321,-2.410925459678083,8.026245517662346,23.83459220263967
1658790048151321,-8.941786831464015,7.4158846417944915,25.05531395437538
1658790048167321,-11.20012207217519,7.904173342488775,27.435721370260126
1658790048183321,-6.744487678339738,7.476920729381163,28.107118333714652
1658790048199320,-4.730296787975931,6.378271152819025,25.116350041962278
1658790048215332,-10.467689021133765,4.180971999694748,21.759365224688963
1658790048231331,-18.341344319828977,3.4485389486533222,22.064545662623004
1658790048247331,-13.76363775082018,5.096513313496644,23.529411764705856
1658790048263331,0.2746623941404778,7.660028992141633,27.679865720607268
1658790048279331,6.805523765926637,8.880750743877343,27.61882963302037
1658790048295331,2.532997634851654,6.500343327992596,22.49179827573039
1658790048311330,-10.406652933546866,4.242008087281647,20.782787823300396
1658790048327330,-16.510261692225413,3.4485389486533222,21.942473487449433
1658790048343330,-10.89494163424115,4.303044174868319,24.505989166094423
1658790048359330,-5.279621576256886,5.401693751430457,25.787747005416804
1658790048375330,-6.195162890058782,4.119935912108076,23.346303501945386
1658790048391329,-8.51453421835663,2.105745021744042,20.721751735713724
1658790048407329,-10.406652933546866,0.8239871824216607,20.599679560540153
1658790048423329,-9.124895094224485,0.213626306553806,21.33211261158158
1658790048439329,-7.660028992141633,1.2512397955290453,20.843823910887295
1658790048455329,-8.941786831464015,0.45777065690094787,18.646524757763018
1658790048471328,-6.256198977645454,-0.213626306553806,16.876478217746126
1658790048487328,-0.213626306553806,1.983672846570471,16.1440451667047
1658790048503328,-0.7629510948347615,3.814755474174035,16.815442130159454
1658790048519328,-1.5564202334630863,4.242008087281647,17.730983443961122
1658790048535308,-1.4343480582895154,4.303044174868319,17.54787518120088
1658790048551308,-1.3733119707026162,2.655069810025225,15.716792553597315
1658790048567308,-1.1291676203554744,1.8005645838102282,15.655756466010416
1658790048583308,-2.8992141603723667,2.105745021744042,17.24269474326684
1658790048599308,-5.828946364538069,0.7019150072480898,17.914091706721592
1658790048615307,-7.232776379034021,-0.45777065690094787,16.815442130159454
1658790048631307,-6.500343327992596,-1.0681315327688026,15.655756466010416
1658790048647307,-3.5095750362402214,-0.33569848172737693,16.26611734187827
1658790048663307,-2.655069810025225,1.0070954451819034,16.876478217746126
1658790048679307,-2.4719615472647547,1.2512397955290453,15.960936903944457
1658790048695306,-3.814755474174035,-0.09155413138023505,13.64156557564661
1658790048711306,-1.739528496223329,0.2746623941404778,11.932555123216616
1658790048727306,1.3733119707026162,2.7771419851987957,12.054627298390187
1658790048743306,5.584802014190927,5.2185854886702145,13.275349050125897
1658790048759306,4.974441138323073,6.500343327992596,14.80125123979542
1658790048775305,-1.4343480582895154,5.645838101777599,14.740215152208748
1658790048791305,-8.51453421835663,4.669260700389032,12.909132524605184
1658790048807305,-8.026245517662346,4.364080262455218,11.993591210803288
1658790048823305,-5.645838101777599,5.584802014190927,13.946746013580423
1658790048839305,-4.119935912108076,6.012054627298312,15.716792553597315
1658790048855316,0.213626306553806,5.462729839017356,16.510261692225413
1658790048871316,5.584802014190927,5.096513313496644,16.02197299153113
1658790048887315,4.791332875562603,5.096513313496644,14.98435950255589
1658790048903315,1.3122758831159445,5.76791027695117,15.655756466010416
1658790048919315,-0.45777065690094787,5.95101853971164,17.059586480506596
1658790048935315,2.7161058976118966,6.683451590753066,18.280308232242305
1658790048951315,2.105745021744042,7.049668116273779,18.036163881895163
1658790048967314,-1.1902037079423735,7.2938124666209205,15.411612115663274
1658790048983314,-1.983672846570471,7.904173342488775,14.618142977035177
1658790048999314,0.5798428320745188,8.758678568703772,15.838864728770886
1658790049015314,0.9460593575952316,7.782101167315204,17.60891126878755
1658790049031314,-1.739528496223329,6.134126802471883,18.402380407415876
1658790049047313,-3.692683299000464,5.523765926604028,18.219272144655406
1658790049063313,-3.1433585107195086,5.279621576256886,17.54787518120088
1658790049079313,-5.2185854886702145,3.2654306858930795,16.08300907911803
1658790049095313,-6.073090714885211,2.532997634851654,15.411612115663274
1658790049111312,-5.157549401083315,3.0212863355459376,15.594720378423744
1658790049127312,-1.6174563210497581,4.60822461280236,15.228503852903032
1658790049143312,4.852368963149502,6.012054627298312,13.397421225299468
1658790049159312,7.2938124666209205,5.096513313496644,11.627374685282575
1658790049175323,7.537956816968062,4.486152437628789,10.589761196307336
1658790049191323,7.904173342488775,4.730296787975931,10.406652933546866
1658790049207323,6.8665598535133086,5.462729839017356,11.505302510109004
1658790049223322,6.073090714885211,5.828946364538069,11.993591210803288
1658790049239322,2.227817196917613,5.706874189364498,10.955977721828049
1658790049255322,0.45777065690094787,5.828946364538069,9.55214770733187
1658790049271322,-5.3406576638437855,4.852368963149502,7.4158846417944915
1658790049287322,-14.068818188753994,3.5095750362402214,4.303044174868319
1658790049303321,-19.195849546043974,1.9226367589837992,0.8850232700083325
1658790049319321,-15.167467765316132,1.1291676203554744,-1.2512397955290453
1658790049335321,-6.927595941100208,0.33569848172737693,-2.410925459678083
1658790049351321,0.09155413138023505,0.7629510948347615,-4.364080262455218
1658790049367321,3.4485389486533222,0.15259021896690683,-5.76791027695117
1658790049383320,5.096513313496644,-1.0681315327688026,-6.9886320286868795
1658790049399320,7.782101167315204,-2.4719615472647547,-8.941786831464015
1658790049415320,7.904173342488775,-3.692683299000464,-10.772869459067579
1658790049431320,2.288853284504512,-4.303044174868319,-12.909132524605184
1658790049447320,-0.33569848172737693,-4.242008087281647,-15.167467765316132
1658790049463319,1.739528496223329,-4.486152437628789,-15.716792553597315
1658790049479319,7.4158846417944915,-4.730296787975931,-16.1440451667047
1658790049495300,9.063859006637585,-5.706874189364498,-16.876478217746126
1658790049511300,5.523765926604028,-6.378271152819025,-18.70756084534969
1658790049527300,3.2043945983061803,-7.17174029144735,-21.637293049515392
1658790049543299,6.134126802471883,-7.354848554207592,-23.285267414358714
1658790049559299,8.392462043183059,-8.148317692835917,-24.505989166094423
1658790049575299,8.819714656290444,-8.087281605249018,-25.23842221713585
1658790049591299,8.45349813076973,-7.049668116273779,-26.58121614404513
1658790049607298,6.9886320286868795,-6.9886320286868795,-28.656443121995835
1658790049623298,6.256198977645454,-7.782101167315204,-30.60959792477297
1658790049639298,3.875791561760934,-8.45349813076973,-31.647211413748437
1658790049655298,5.95101853971164,-8.819714656290444,-31.89135576409558
1658790049671298,7.721065079728305,-8.880750743877343,-31.342030975814623
1658790049687297,6.561379415579495,-10.467689021133765,-32.44068055237676
1658790049703297,5.462729839017356,-11.383230334935433,-33.90554665445961
1658790049719297,5.096513313496644,-10.650797283894008,-33.966582742046285
1658790049735297,5.462729839017356,-10.528725108720437,-33.66140230411247
1658790049751297,5.0354772259097444,-10.955977721828049,-34.82108796826128
1658790049767296,7.2938124666209205,-11.627374685282575,-36.34699015793103
1658790049783296,9.063859006637585,-11.627374685282575,-36.713206683451745
1658790049799296,8.392462043183059,-12.054627298390187,-36.713206683451745
1658790049815307,7.660028992141633,-12.23773556115043,-36.22491798275746
1658790049831307,9.613183794918768,-12.176699473563758,-35.98077363241032
1658790049847307,9.67421988250544,-12.909132524605184,-36.713206683451745
1658790049863307,8.148317692835917,-13.64156557564661,-38.48325322346841
1658790049879306,7.476920729381163,-13.336385137712568,-39.276722362096734
1658790049895306,5.523765926604028,-12.298771648737329,-39.64293888761745
1658790049911306,1.3122758831159445,-11.688410772869474,-40.436408026245545
1658790049927306,0.8239871824216607,-12.298771648737329,-42.45059891660958
1658790049943306,9.918364232852582,-12.481879911497572,-42.084382391088866
1658790049959305,14.98435950255589,-10.467689021133765,-40.86366063935316
1658790049975305,11.444266422522333,-9.246967269398056,-40.558480201419115
1658790049991305,3.2043945983061803,-10.162508583199724,-42.32852674143601
1658790050007305,2.9602502479590385,-11.261158159761862,-44.342717631799815
1658790050023305,11.505302510109004,-11.07804989700162,-42.69474326695672
1658790050039304,19.01274128328373,-9.308003356984727,-38.1170366979477
1658790050055304,11.322194247348762,-9.430075532158298,-35.91973754482342
1658790050071304,0.6408789196611906,-11.871519035629717,-38.84946974898912
1658790050087304,5.95101853971164,-12.359807736324,-40.07019150072483
1658790050103304,15.228503852903032,-10.589761196307336,-35.91973754482342
1658790050119303,12.664988174258042,-10.467689021133765,-33.5393301289389
1658790050135284,4.9134050507361735,-9.002822919050914,-34.69901579308771
1658790050151284,-0.15259021896690683,-8.758678568703772,-37.20149538414603
1658790050167284,2.655069810025225,-8.087281605249018,-36.713206683451745
1658790050183283,7.965209430075447,-6.439307240405924,-32.44068055237676
1658790050199283,9.73525597009234,-6.012054627298312,-29.449912260623933
1658790050215283,5.2185854886702145,-6.805523765926637,-28.04608224612798
1658790050231283,-1.0681315327688026,-8.026245517662346,-29.08369573510322
1658790050247283,1.2512397955290453,-7.721065079728305,-30.36545357442583
1658790050263282,3.4485389486533222,-6.927595941100208,-30.182345311665358
1658790050279282,2.9602502479590385,-6.012054627298312,-29.877164873731545
1658790050295282,3.570611123826893,-6.012054627298312,-29.20576791027679
1658790050311282,8.026245517662346,-6.134126802471883,-28.473334859235365
1658790050327282,13.336385137712568,-5.401693751430457,-27.98504615854108
1658790050343281,13.031204699778755,-4.486152437628789,-27.679865720607268
1658790050359281,5.828946364538069,-4.180971999694748,-27.61882963302037
1658790050375281,-1.0681315327688026,-4.9134050507361735,-28.96162355992965
1658790050391281,0.2746623941404778,-5.401693751430457,-28.96162355992965
1658790050407281,8.697642481116873,-5.584802014190927,-26.52018005645823
1658790050423280,11.566338597695903,-4.730296787975931,-23.7125200274661
1658790050439280,2.227817196917613,-4.974441138323073,-25.60463874265656
1658790050455291,-2.227817196917613,-4.730296787975931,-29.51094834821083
1658790050471291,6.317235065232353,-3.936827649347606,-29.14473182269012
1658790050487291,12.298771648737329,-2.227817196917613,-26.52018005645823
1658790050503291,10.467689021133765,-1.983672846570471,-26.52018005645823
1658790050519291,3.936827649347606,-2.288853284504512,-26.947432669565842
1658790050535290,3.875791561760934,-2.4719615472647547,-26.214999618524416
1658790050551290,9.369039444571627,-1.6784924086366573,-24.444953078507524
1658790050567290,10.711833371480907,-1.6784924086366573,-22.980086976424673
1658790050583290,0.6408789196611906,-3.0823224231326094,-23.7125200274661
1658790050599290,-4.791332875562603,-4.669260700389032,-26.092927443350845
1658790050615289,3.5095750362402214,-4.791332875562603,-24.444953078507524
1658790050631289,14.190890363927565,-2.166781109330941,-20.11139085984587
1658790050647289,12.115663385976859,-0.8850232700083325,-19.80621042191183
1658790050663289,4.119935912108076,-2.7771419851987957,-22.125581750209676
1658790050679288,1.8005645838102282,-5.157549401083315,-23.285267414358714
1658790050695288,5.157549401083315,-5.95101853971164,-21.637293049515392
1658790050711288,7.2938124666209205,-3.875791561760934,-19.1348134584573
1658790050727288,2.7771419851987957,-3.6316472114137923,-20.782787823300396
1658790050743288,1.3733119707026162,-4.119935912108076,-23.346303501945386
1658790050759287,5.157549401083315,-5.279621576256886,-23.773556115052997
1658790050775299,7.843137254901876,-5.462729839017356,-22.49179827573039
1658790050791298,7.354848554207592,-4.60822461280236,-21.637293049515392
1658790050807298,3.5095750362402214,-5.279621576256886,-23.83459220263967
1658790050823298,4.791332875562603,-5.95101853971164,-25.36049439230942
1658790050839298,8.45349813076973,-5.95101853971164,-24.567025253681095
1658790050855298,8.51453421835663,-4.486152437628789,-23.041123064011572
1658790050871297,4.730296787975931,-3.814755474174035,-24.567025253681095
1658790050887297,4.364080262455218,-4.364080262455218,-26.092927443350845
1658790050903297,5.584802014190927,-5.157549401083315,-24.750133516441565
1658790050919297,5.645838101777599,-6.134126802471883,-23.89562829022657
1658790050935297,5.157549401083315,-6.561379415579495,-24.200808728160382
1658790050951296,3.2654306858930795,-6.927595941100208,-25.665674830243233
1658790050967296,4.730296787975931,-6.8665598535133086,-26.031891355763946
1658790050983296,5.584802014190927,-6.378271152819025,-25.787747005416804
1658790050999296,6.439307240405924,-6.500343327992596,-25.665674830243233
1658790051015296,6.9886320286868795,-6.561379415579495,-25.543602655069662
1658790051031295,7.904173342488775,-5.523765926604028,-24.811169604028237
1658790051047295,7.843137254901876,-4.119935912108076,-25.116350041962278
1658790051063295,4.669260700389032,-4.486152437628789,-26.886396581978943
1658790051079295,3.936827649347606,-5.401693751430457,-27.80193789578084
1658790051095276,4.60822461280236,-5.706874189364498,-25.909819180590375
1658790051111275,5.523765926604028,-3.875791561760934,-23.163195239185143
1658790051127275,6.073090714885211,-3.4485389486533222,-23.95666437781324
1658790051143275,7.721065079728305,-4.364080262455218,-26.153963530937517
1658790051159275,8.758678568703772,-4.9134050507361735,-26.214999618524416
1658790051175274,7.904173342488775,-5.279621576256886,-23.773556115052997
1658790051191274,4.974441138323073,-5.706874189364498,-23.346303501945386
1658790051207274,1.6174563210497581,-6.378271152819025,-26.6422522316318
1658790051223274,7.476920729381163,-5.889982452124741,-28.04608224612798
1658790051239274,14.312962539101136,-4.242008087281647,-26.031891355763946
1658790051255273,12.481879911497572,-2.288853284504512,-24.750133516441565
1658790051271273,2.166781109330941,-3.692683299000464,-28.290226596475122
1658790051287273,-2.105745021744042,-5.096513313496644,-31.097886625467254
1658790051303273,8.392462043183059,-4.486152437628789,-29.816128786144645
1658790051319273,16.02197299153113,-2.5940337224383256,-26.39810788128466
1658790051335272,11.688410772869474,-1.6784924086366573,-26.276035706111088
1658790051351272,2.166781109330941,-2.9602502479590385,-29.26680399786369
1658790051367272,3.4485389486533222,-4.242008087281647,-29.999237048905115
1658790051383272,11.261158159761862,-3.0212863355459376,-27.069504844739413
1658790051399272,10.284580758373295,-1.5564202334630863,-26.764324406805372
1658790051415283,2.9602502479590385,-1.8005645838102282,-29.26680399786369
1658790051431283,2.655069810025225,-2.166781109330941,-29.755092698557974
1658790051447282,10.345616845960194,-2.655069810025225,-27.252613107499656
1658790051463282,12.970168612191856,-2.532997634851654,-24.505989166094423
1658790051479282,6.683451590753066,-4.058899824521177,-26.276035706111088
1658790051495282,4.364080262455218,-4.974441138323073,-28.351262684061794
1658790051511282,9.308003356984727,-4.486152437628789,-27.61882963302037
1658790051527281,11.688410772869474,-2.5940337224383256,-25.848783093003703
1658790051543281,6.622415503166167,-3.0823224231326094,-27.069504844739413
1658790051559281,3.3264667734797513,-4.058899824521177,-28.534370946822264
1658790051575281,3.6316472114137923,-3.936827649347606,-28.04608224612798
1658790051591281,6.134126802471883,-2.166781109330941,-26.82536049439227
1658790051607280,4.852368963149502,-1.6784924086366573,-27.435721370260126
1658790051623280,2.8381780727854675,-1.8005645838102282,-28.595407034408936
1658790051639280,5.706874189364498,-2.5940337224383256,-27.86297398336751
1658790051655280,7.476920729381163,-2.7771419851987957,-25.36049439230942
1658790051671280,6.805523765926637,-3.3875028610666504,-25.60463874265656
