Timestamp (microseconds),Gyro X (°/s),Gyro Y (°/s),Gyro Z (°/s)
1658790112313934,2.4719615472647547,-2.532997634851654,-1.4953841458761872
1658790112329931,-0.8239871824216607,-2.8381780727854675,-0.3967345693140487
1658790112345928,-1.6174563210497581,-2.532997634851654,0.5188067444876197
1658790112361925,0.9460593575952316,-0.45777065690094787,0.7629510948347615
1658790112377922,1.3733119707026162,0.7629510948347615,-0.09155413138023505
1658790112393919,1.2512397955290453,-0.45777065690094787,-0.45777065690094787
1658790112409916,1.3733119707026162,-0.5798428320745188,-0.5188067444876197
1658790112425912,1.4953841458761872,0.45777065690094787,-1.4343480582895154
1658790112441909,1.4343480582895154,-0.03051804379333589,-1.9226367589837992
1658790112457906,3.3264667734797513,-1.3122758831159445,-1.8616006713969
1658790112473903,3.3875028610666504,-0.2746623941404778,-2.227817196917613
1658790112489900,0.9460593575952316,0.09155413138023505,-2.532997634851654
1658790112505897,1.6784924086366573,0.9460593575952316,-1.2512397955290453
1658790112521894,1.6784924086366573,1.0681315327688026,0.213626306553806
1658790112537891,0.8850232700083325,0.5798428320745188,-0.2746623941404778
1658790112553888,-2.3498893720911838,0.03051804379333589,-0.5188067444876197
1658790112569885,-3.6316472114137923,0.33569848172737693,-0.33569848172737693
1658790112585882,1.1291676203554744,0.7629510948347615,-0.5798428320745188
1658790112601879,5.95101853971164,0.09155413138023505,-1.1291676203554744
1658790112617876,4.119935912108076,-0.15259021896690683,-1.3733119707026162
1658790112633880,1.3122758831159445,0.2746623941404778,-0.9460593575952316
1658790112649877,1.1291676203554744,-0.33569848172737693,-0.2746623941404778
1658790112665874,3.0212863355459376,-0.2746623941404778,0.2746623941404778
1658790112681871,1.5564202334630863,-0.3967345693140487,-0.5798428320745188
1658790112697868,-1.0681315327688026,-0.8239871824216607,-0.8239871824216607
1658790112713865,-3.814755474174035,-0.6408789196611906,-0.15259021896690683
1658790112729862,-2.9602502479590385,-0.15259021896690683,-0.45777065690094787
1658790112745859,0.8239871824216607,-0.7629510948347615,-1.1291676203554744
1658790112761856,3.3875028610666504,-1.2512397955290453,-0.8850232700083325
1658790112777853,3.6316472114137923,-0.5798428320745188,-0.6408789196611906
1658790112793850,3.814755474174035,0.2746623941404778,-0.7019150072480898
1658790112809847,4.852368963149502,-0.09155413138023505,-0.15259021896690683
1658790112825843,6.927595941100208,-2.166781109330941,0.2746623941404778
1658790112841840,6.683451590753066,-3.6316472114137923,0.45777065690094787
1658790112857837,3.936827649347606,-2.9602502479590385,0.33569848172737693
1658790112873834,3.0212863355459376,-2.532997634851654,0.7629510948347615
1658790112889831,2.3498893720911838,-4.119935912108076,0.8850232700083325
1658790112905828,3.0823224231326094,-3.3875028610666504,0.7019150072480898
1658790112921825,2.3498893720911838,-2.7771419851987957,0.15259021896690683
1658790112937822,2.04470893415737,-1.739528496223329,-1.4343480582895154
1658790112953796,3.570611123826893,-1.5564202334630863,-1.983672846570471
1658790112969793,4.9134050507361735,-2.655069810025225,-1.6174563210497581
1658790112985790,2.8992141603723667,-2.7161058976118966,-1.6174563210497581
1658790113001787,-0.8850232700083325,-1.6784924086366573,-1.1902037079423735
1658790113017784,-2.227817196917613,-2.04470893415737,-0.7019150072480898
1658790113033781,0.8850232700083325,-2.3498893720911838,-0.33569848172737693
1658790113049778,3.875791561760934,-2.532997634851654,-0.03051804379333589
1658790113065775,2.4719615472647547,-1.983672846570471,0.5188067444876197
1658790113081771,-0.09155413138023505,-0.5188067444876197,1.0070954451819034
1658790113097768,0.3967345693140487,-0.5798428320745188,1.3733119707026162
1658790113113765,2.410925459678083,-1.3733119707026162,1.1902037079423735
1658790113129762,1.4343480582895154,-1.6174563210497581,0.45777065690094787
1658790113145759,-0.5188067444876197,-1.0070954451819034,-0.03051804379333589
1658790113161756,-2.166781109330941,-0.8239871824216607,-0.5798428320745188
1658790113177753,-0.45777065690094787,-0.45777065690094787,-0.09155413138023505
1658790113193750,0.7629510948347615,-0.2746623941404778,0.6408789196611906
1658790113209747,0.03051804379333589,0.33569848172737693,1.0681315327688026
1658790113225744,-1.2512397955290453,-0.09155413138023505,1.3122758831159445
1658790113241741,-0.9460593575952316,-0.6408789196611906,1.9226367589837992
1658790113257738,0.15259021896690683,-0.9460593575952316,2.04470893415737
1658790113273681,2.105745021744042,-1.0681315327688026,1.9226367589837992
1658790113289678,0.9460593575952316,-0.8239871824216607,1.739528496223329
1658790113305674,-0.33569848172737693,0.09155413138023505,1.5564202334630863
1658790113321671,-0.7019150072480898,0.09155413138023505,1.3733119707026162
1658790113337667,-0.03051804379333589,-0.03051804379333589,0.45777065690094787
1658790113353664,-2.3498893720911838,-0.33569848172737693,0.8850232700083325
1658790113369660,-0.6408789196611906,-0.9460593575952316,1.3733119707026162
1658790113385656,1.8005645838102282,-0.09155413138023505,0.45777065690094787
1658790113401653,3.0212863355459376,-0.3967345693140487,-0.6408789196611906
1658790113417649,3.2654306858930795,-1.3122758831159445,-0.7629510948347615
1658790113433646,2.105745021744042,-1.3122758831159445,-0.3967345693140487
1658790113449642,1.8005645838102282,-0.6408789196611906,-0.5188067444876197
1658790113465639,-0.45777065690094787,-0.8239871824216607,-1.0681315327688026
1658790113481635,-2.3498893720911838,-1.2512397955290453,-1.8616006713969
1658790113497632,-0.8239871824216607,-1.739528496223329,-2.105745021744042
1658790113513628,-0.09155413138023505,-1.1902037079423735,-2.288853284504512
1658790113529625,-0.2746623941404778,-0.7629510948347615,-2.3498893720911838
1658790113545621,0.5188067444876197,-1.1902037079423735,-2.3498893720911838
1658790113561617,2.105745021744042,-2.105745021744042,-1.983672846570471
1658790113577614,1.983672846570471,-1.9226367589837992,-2.4719615472647547
1658790113593414,3.2043945983061803,-0.9460593575952316,-2.7161058976118966
1658790113609410,4.180971999694748,-0.7629510948347615,-2.532997634851654
1658790113625406,-0.09155413138023505,-2.105745021744042,-1.9226367589837992
1658790113641402,0.03051804379333589,-1.6174563210497581,-1.1291676203554744
1658790113657398,-0.45777065690094787,-0.7019150072480898,-1.1902037079423735
1658790113673394,1.8005645838102282,0.03051804379333589,-2.410925459678083
1658790113689390,3.936827649347606,0.03051804379333589,-2.4719615472647547
1658790113705386,4.669260700389032,-1.0070954451819034,-1.8616006713969
1658790113721382,2.7771419851987957,-1.3733119707026162,-1.3733119707026162
1658790113737378,0.33569848172737693,-0.5188067444876197,-0.9460593575952316
1658790113753374,-0.5798428320745188,0.5188067444876197,-0.7019150072480898
1658790113769370,1.2512397955290453,0.7019150072480898,-1.0070954451819034
1658790113785366,2.166781109330941,0.7629510948347615,-1.6784924086366573
1658790113801362,-0.213626306553806,0.33569848172737693,-1.8616006713969
1658790113817358,-1.4343480582895154,0.9460593575952316,-1.5564202334630863
1658790113833354,-1.2512397955290453,0.8850232700083325,-1.4953841458761872
1658790113849350,0.7019150072480898,-0.213626306553806,-1.739528496223329
1658790113865346,2.166781109330941,-0.5188067444876197,-1.8616006713969
1658790113881342,0.9460593575952316,-0.03051804379333589,-1.4953841458761872
1658790113897338,-1.3122758831159445,0.3967345693140487,-0.6408789196611906
1658790113913177,0.03051804379333589,0.09155413138023505,-0.3967345693140487
1658790113929172,0.6408789196611906,0.2746623941404778,-1.4343480582895154
1658790113945167,-0.7629510948347615,0.6408789196611906,-1.8005645838102282
1658790113961162,-2.227817196917613,0.8239871824216607,-1.2512397955290453
1658790113977157,-3.0212863355459376,0.9460593575952316,-0.7019150072480898
1658790113993152,1.1902037079423735,1.1291676203554744,-0.5188067444876197
1658790114009147,1.8616006713969,0.09155413138023505,-0.3967345693140487
1658790114025142,-0.3967345693140487,-0.2746623941404778,-0.213626306553806
1658790114041137,-2.7161058976118966,0.45777065690094787,-0.15259021896690683
1658790114057132,-2.3498893720911838,3.1433585107195086,-0.2746623941404778
1658790114073127,6.256198977645454,8.819714656290444,-0.6408789196611906
1658790114089122,6.317235065232353,8.758678568703772,-0.8850232700083325
1658790114105117,6.439307240405924,7.660028992141633,-1.6784924086366573
1658790114121112,4.242008087281647,5.95101853971164,-2.8992141603723667
1658790114137107,2.410925459678083,3.814755474174035,-3.2043945983061803
1658790114153102,1.1291676203554744,2.3498893720911838,-2.410925459678083
1658790114169098,-0.03051804379333589,0.33569848172737693,-1.6784924086366573
1658790114185093,-0.15259021896690683,-1.9226367589837992,-0.9460593575952316
1658790114201088,0.2746623941404778,-2.5940337224383256,0.03051804379333589
1658790114217083,1.8005645838102282,-1.983672846570471,0.33569848172737693
1658790114232940,2.8381780727854675,-2.532997634851654,0.8850232700083325
1658790114248935,1.2512397955290453,-2.410925459678083,1.8616006713969
1658790114264929,-0.15259021896690683,-0.3967345693140487,1.6174563210497581
1658790114280924,-1.1902037079423735,-1.2512397955290453,0.213626306553806
1658790114296918,0.5188067444876197,-1.1902037079423735,-0.7019150072480898
1658790114312913,0.33569848172737693,-0.5798428320745188,-0.3967345693140487
1658790114328908,1.1902037079423735,-0.15259021896690683,-0.2746623941404778
1658790114344902,3.2654306858930795,-1.3122758831159445,-0.5798428320745188
1658790114360897,4.303044174868319,-2.655069810025225,-0.7629510948347615
1658790114376891,0.9460593575952316,-2.288853284504512,-0.45777065690094787
1658790114392886,-1.2512397955290453,-2.227817196917613,-0.09155413138023505
1658790114408880,0.09155413138023505,-1.8616006713969,0.8239871824216607
1658790114424875,1.8616006713969,-1.6784924086366573,1.6784924086366573
1658790114440869,-0.7629510948347615,-1.983672846570471,0.7629510948347615
1658790114456864,-4.119935912108076,-1.3122758831159445,-0.15259021896690683
1658790114472859,-1.8616006713969,-0.7019150072480898,-0.7019150072480898
1658790114488853,3.2043945983061803,-0.7019150072480898,-1.6174563210497581
1658790114504848,6.073090714885211,-0.9460593575952316,-2.04470893415737
1658790114520842,1.5564202334630863,-2.410925459678083,-2.288853284504512
1658790114536837,-2.227817196917613,-2.410925459678083,-1.3122758831159445
1658790114552703,-1.1902037079423735,-1.0070954451819034,-0.09155413138023505
1658790114568698,1.0681315327688026,-0.45777065690094787,-0.15259021896690683
1658790114584692,3.875791561760934,-0.45777065690094787,-0.8239871824216607
1658790114600686,1.3122758831159445,-1.3122758831159445,-0.9460593575952316
1658790114616680,0.33569848172737693,-0.45777065690094787,-1.1291676203554744
1658790114632674,1.739528496223329,0.15259021896690683,-1.4343480582895154
1658790114648668,2.4719615472647547,-0.9460593575952316,-1.2512397955290453
1658790114664662,1.8005645838102282,-1.2512397955290453,-1.2512397955290453
1658790114680656,-0.15259021896690683,-0.8239871824216607,-1.2512397955290453
1658790114696650,0.15259021896690683,-1.2512397955290453,-1.4343480582895154
1658790114712644,2.288853284504512,-0.9460593575952316,-1.1291676203554744
1658790114728638,2.5940337224383256,-0.7629510948347615,-0.213626306553806
1658790114744632,1.0070954451819034,-0.3967345693140487,-0.213626306553806
1658790114760626,-2.8992141603723667,-0.7629510948347615,0.213626306553806
1658790114776620,-1.6784924086366573,-0.7629510948347615,-0.6408789196611906
1658790114792615,1.1902037079423735,-0.3967345693140487,-1.5564202334630863
1658790114808609,2.5940337224383256,-0.7019150072480898,-2.166781109330941
1658790114824603,-0.15259021896690683,-0.7629510948347615,-1.6174563210497581
1658790114840597,-1.1291676203554744,-1.1902037079423735,-1.0681315327688026
1658790114856591,-0.2746623941404778,-0.6408789196611906,-1.0681315327688026
1658790114872467,1.3733119707026162,-0.33569848172737693,-0.9460593575952316
1658790114888460,1.6784924086366573,-0.8239871824216607,-0.9460593575952316
1658790114904454,1.1291676203554744,-0.8239871824216607,-1.3122758831159445
1658790114920447,0.45777065690094787,-0.8239871824216607,-0.8850232700083325
1658790114936441,1.3733119707026162,-0.8850232700083325,-0.09155413138023505
1658790114952435,1.5564202334630863,-0.33569848172737693,-0.8239871824216607
1658790114968428,1.3733119707026162,-0.2746623941404778,-1.0070954451819034
1658790114984422,1.6784924086366573,-0.2746623941404778,-0.7019150072480898
1658790115000415,0.8239871824216607,-0.09155413138023505,-0.09155413138023505
1658790115016409,0.09155413138023505,-0.45777065690094787,1.0681315327688026
1658790115032403,-0.2746623941404778,-0.03051804379333589,1.4343480582895154
1658790115048396,-1.3733119707026162,-0.09155413138023505,1.1902037079423735
1658790115064390,-0.7019150072480898,-0.5188067444876197,0.8239871824216607
1658790115080383,0.6408789196611906,-0.5798428320745188,0.15259021896690683
1658790115096377,1.2512397955290453,-0.33569848172737693,0.15259021896690683
1658790115112371,0.213626306553806,-0.213626306553806,0.213626306553806
1658790115128364,-2.105745021744042,0.15259021896690683,0.213626306553806
1658790115144358,-1.5564202334630863,0.7019150072480898,-0.45777065690094787
1658790115160351,-0.09155413138023505,0.7019150072480898,-0.9460593575952316
1658790115176345,1.1291676203554744,-0.09155413138023505,-0.8850232700083325
1658790115192230,0.3967345693140487,-0.33569848172737693,-0.6408789196611906
1658790115208223,-0.15259021896690683,0.5188067444876197,-0.7019150072480898
1658790115224216,1.5564202334630863,0.5798428320745188,-1.4953841458761872
1658790115240209,1.9226367589837992,0.5798428320745188,-1.8005645838102282
1658790115256202,0.09155413138023505,-0.15259021896690683,-1.3122758831159445
1658790115272195,-1.739528496223329,-0.45777065690094787,-1.2512397955290453
1658790115288189,-0.5798428320745188,0.15259021896690683,-1.6174563210497581
1658790115304182,1.1291676203554744,0.5188067444876197,-1.5564202334630863
1658790115320175,1.1902037079423735,-0.213626306553806,-1.2512397955290453
1658790115336168,0.5188067444876197,-0.03051804379333589,-1.0681315327688026
1658790115352161,1.8616006713969,-0.09155413138023505,-0.8850232700083325
1658790115368154,2.8381780727854675,-0.6408789196611906,-1.3733119707026162
1658790115384147,2.5940337224383256,-0.7019150072480898,-1.739528496223329
1658790115400140,1.5564202334630863,-0.8239871824216607,-1.1902037079423735
1658790115416134,0.3967345693140487,-0.33569848172737693,-0.6408789196611906
1658790115432127,-0.09155413138023505,-0.213626306553806,0.213626306553806
1658790115448120,-0.3967345693140487,-0.8239871824216607,0.2746623941404778
1658790115464113,2.655069810025225,1.1291676203554744,-0.33569848172737693
1658790115480106,3.2043945983061803,1.4343480582895154,-0.5188067444876197
1658790115496099,0.9460593575952316,-0.7019150072480898,-0.8239871824216607
1658790115511993,1.983672846570471,-0.15259021896690683,-0.7019150072480898
1658790115527986,1.9226367589837992,-0.3967345693140487,-0.33569848172737693
1658790115543978,1.3122758831159445,-0.33569848172737693,-0.7019150072480898
1658790115559971,-1.5564202334630863,-1.0070954451819034,-0.8850232700083325
1658790115575964,-2.288853284504512,-2.166781109330941,-0.7629510948347615
1658790115591956,-1.739528496223329,-1.8005645838102282,-0.5798428320745188
1658790115607949,-0.7629510948347615,-0.9460593575952316,-0.6408789196611906
1658790115623942,1.4953841458761872,-0.7019150072480898,-1.4953841458761872
1658790115639934,0.15259021896690683,-1.4343480582895154,-1.4953841458761872
1658790115655927,0.5798428320745188,-1.6174563210497581,-1.739528496223329
1658790115671919,2.105745021744042,-0.3967345693140487,-1.983672846570471
1658790115687912,3.0823224231326094,-0.3967345693140487,-1.6784924086366573
1658790115703905,0.45777065690094787,-1.4953841458761872,-1.3733119707026162
1658790115719897,-2.105745021744042,-1.1291676203554744,-0.9460593575952316
1658790115735890,-1.6784924086366573,-0.7629510948347615,-0.3967345693140487
1658790115751883,1.1902037079423735,-0.5798428320745188,-0.03051804379333589
1658790115767875,2.655069810025225,-0.09155413138023505,0.2746623941404778
1658790115783868,2.3498893720911838,-0.7019150072480898,0.09155413138023505
1658790115799861,1.1902037079423735,-0.213626306553806,0.3967345693140487
1658790115815853,1.9226367589837992,0.2746623941404778,0.5798428320745188
1658790115831726,1.2512397955290453,-0.213626306553806,0.3967345693140487
1658790115847718,2.227817196917613,-0.45777065690094787,-0.33569848172737693
1658790115863710,0.09155413138023505,-0.8850232700083325,-0.213626306553806
1658790115879702,-1.0681315327688026,-1.0681315327688026,-0.03051804379333589
1658790115895694,-0.7629510948347615,-0.33569848172737693,0.15259021896690683
1658790115911687,1.3733119707026162,-0.3967345693140487,-0.15259021896690683
1658790115927679,1.4953841458761872,-0.2746623941404778,-0.09155413138023505
1658790115943671,-0.33569848172737693,-0.7019150072480898,-0.9460593575952316
1658790115959663,-0.7019150072480898,-1.0070954451819034,-1.3122758831159445
1658790115975655,-0.03051804379333589,-1.0070954451819034,-1.2512397955290453
1658790115991647,0.8850232700083325,-0.8850232700083325,-1.0681315327688026
1658790116007640,0.5798428320745188,-1.1902037079423735,-0.5188067444876197
1658790116023632,0.33569848172737693,-0.8239871824216607,-0.7629510948347615
1658790116039624,-0.45777065690094787,-0.5798428320745188,-1.1291676203554744
1658790116055616,0.7629510948347615,-0.45777065690094787,-1.2512397955290453
1658790116071608,1.4343480582895154,-0.213626306553806,-1.1902037079423735
1658790116087600,0.8850232700083325,-0.2746623941404778,-1.0070954451819034
1658790116103592,-0.09155413138023505,-0.03051804379333589,-1.8616006713969
1658790116119585,-1.4953841458761872,-0.45777065690094787,-2.5940337224383256
1658790116135577,-1.3733119707026162,-0.213626306553806,-2.532997634851654
1658790116151489,-0.8239871824216607,0.33569848172737693,-1.739528496223329
1658790116167481,0.09155413138023505,1.4953841458761872,-1.0070954451819034
1658790116183473,1.739528496223329,1.4953841458761872,-0.15259021896690683
1658790116199465,2.7771419851987957,0.8239871824216607,0.09155413138023505
1658790116215458,2.7771419851987957,0.7629510948347615,-0.213626306553806
1658790116231450,1.4343480582895154,0.9460593575952316,0.2746623941404778
1658790116247442,0.3967345693140487,0.7019150072480898,0.8239871824216607
1658790116263434,-0.33569848172737693,0.2746623941404778,0.7019150072480898
1658790116279426,-0.2746623941404778,-0.15259021896690683,0.33569848172737693
1658790116295418,-1.6174563210497581,-0.213626306553806,-0.5188067444876197
1658790116311411,-1.0681315327688026,-0.8239871824216607,-0.8239871824216607
1658790116327403,-0.33569848172737693,-0.6408789196611906,-0.7629510948347615
1658790116343395,-1.739528496223329,0.09155413138023505,-0.3967345693140487
1658790116359387,-1.9226367589837992,-0.5188067444876197,0.3967345693140487
1658790116375379,-0.8239871824216607,-0.8239871824216607,0.6408789196611906
1658790116391371,0.03051804379333589,-0.7629510948347615,-0.03051804379333589
1658790116407364,2.227817196917613,-0.7019150072480898,-1.1291676203554744
1658790116423356,3.997863736934505,-0.8239871824216607,-1.9226367589837992
1658790116439348,0.8239871824216607,-1.4343480582895154,-1.3122758831159445
1658790116455340,-2.227817196917613,-1.2512397955290453,-0.6408789196611906
1658790116471252,-3.0823224231326094,0.213626306553806,-0.5188067444876197
1658790116487244,-2.5940337224383256,-0.09155413138023505,-1.3122758831159445
1658790116503235,2.8381780727854675,-0.6408789196611906,-1.983672846570471
1658790116519227,4.242008087281647,-0.7629510948347615,-1.3733119707026162
1658790116535219,1.9226367589837992,-0.7629510948347615,-0.3967345693140487
1658790116551211,0.03051804379333589,-0.5188067444876197,-0.15259021896690683
1658790116567202,0.33569848172737693,-0.5188067444876197,-0.5798428320745188
1658790116583194,1.8616006713969,-0.8239871824216607,-0.7019150072480898
1658790116599186,2.04470893415737,-0.8239871824216607,-1.3122758831159445
1658790116615177,0.8239871824216607,-1.0070954451819034,-1.6174563210497581
1658790116631169,0.09155413138023505,-1.6174563210497581,-1.2512397955290453
1658790116647161,0.2746623941404778,-1.5564202334630863,-0.7019150072480898
1658790116663152,0.7019150072480898,-1.2512397955290453,-0.5798428320745188
1658790116679144,0.03051804379333589,-1.1902037079423735,-0.3967345693140487
1658790116695136,1.5564202334630863,-1.1902037079423735,-0.9460593575952316
1658790116711127,2.3498893720911838,-1.3733119707026162,-0.7629510948347615
1658790116727119,1.0681315327688026,-1.1291676203554744,-0.5188067444876197
1658790116743111,1.0070954451819034,-0.5798428320745188,-0.3967345693140487
1658790116759102,1.3122758831159445,-0.9460593575952316,-0.5798428320745188
1658790116775094,0.5188067444876197,-1.1902037079423735,-1.0070954451819034
1658790116791015,-0.15259021896690683,-1.5564202334630863,-1.3733119707026162
1658790116807006,0.2746623941404778,-1.5564202334630863,-1.3122758831159445
1658790116822998,1.9226367589837992,-1.1902037079423735,-0.6408789196611906
1658790116838989,0.9460593575952316,-1.0681315327688026,0.2746623941404778
1658790116854980,0.15259021896690683,-1.0070954451819034,0.45777065690094787
1658790116870971,-0.8850232700083325,-1.739528496223329,-0.3967345693140487
1658790116886963,-0.03051804379333589,-2.105745021744042,-0.9460593575952316
1658790116902954,0.3967345693140487,-0.8850232700083325,-0.8239871824216607
1658790116918945,0.8850232700083325,-0.33569848172737693,-0.2746623941404778
1658790116934936,1.1902037079423735,0.03051804379333589,0.7019150072480898
1658790116950927,-0.3967345693140487,-0.5188067444876197,1.3122758831159445
1658790116966919,0.6408789196611906,-0.5798428320745188,0.8850232700083325
1658790116982910,3.2043945983061803,0.03051804379333589,0.7629510948347615
1658790116998901,3.814755474174035,0.7019150072480898,1.1902037079423735
1658790117014892,0.33569848172737693,0.45777065690094787,2.227817196917613
1658790117030883,-0.8850232700083325,-0.09155413138023505,2.410925459678083
1658790117046875,-1.8005645838102282,-0.09155413138023505,1.8005645838102282
1658790117062866,-0.15259021896690683,-0.213626306553806,1.1902037079423735
1658790117078857,1.3733119707026162,-0.5188067444876197,1.0070954451819034
1658790117094848,0.3967345693140487,-0.7019150072480898,1.1291676203554744
1658790117110778,-0.09155413138023505,-0.8850232700083325,1.3733119707026162
1658790117126770,-1.3733119707026162,-0.9460593575952316,1.6784924086366573
1658790117142761,-3.1433585107195086,-0.5188067444876197,1.1291676203554744
1658790117158752,-0.213626306553806,-0.3967345693140487,0.33569848172737693
1658790117174743,2.227817196917613,-0.6408789196611906,-0.213626306553806
1658790117190734,1.983672846570471,-0.7629510948347615,-0.2746623941404778
1658790117206726,-0.09155413138023505,-0.5798428320745188,-0.03051804379333589
1658790117222717,-1.8005645838102282,-0.9460593575952316,0.09155413138023505
1658790117238708,-0.8239871824216607,-1.4343480582895154,-0.3967345693140487
1658790117254699,1.9226367589837992,-0.8239871824216607,-0.8850232700083325
1658790117270691,1.8616006713969,-0.6408789196611906,-0.7019150072480898
1658790117286682,1.2512397955290453,-0.7019150072480898,-0.33569848172737693
1658790117302673,0.7629510948347615,-0.5188067444876197,-0.3967345693140487
1658790117318664,0.45777065690094787,-0.8850232700083325,-0.9460593575952316
1658790117334655,0.9460593575952316,-0.03051804379333589,-1.2512397955290453
1658790117350647,0.7019150072480898,-0.45777065690094787,-1.1902037079423735
1658790117366638,-0.9460593575952316,-1.1902037079423735,-0.8850232700083325
1658790117382629,-0.45777065690094787,-0.6408789196611906,-0.8850232700083325
1658790117398620,0.03051804379333589,-0.6408789196611906,-1.3122758831159445
1658790117414611,1.4953841458761872,-0.9460593575952316,-1.4343480582895154
1658790117430511,1.739528496223329,-0.5188067444876197,-1.5564202334630863
1658790117446502,0.8850232700083325,-0.6408789196611906,-1.5564202334630863
1658790117462493,1.0681315327688026,-0.5798428320745188,-1.2512397955290453
1658790117478483,1.0681315327688026,-0.45777065690094787,-1.0681315327688026
1658790117494474,0.15259021896690683,-0.5798428320745188,-1.0681315327688026
1658790117510465,-0.5188067444876197,-0.3967345693140487,-0.9460593575952316
1658790117526456,0.3967345693140487,-0.09155413138023505,-1.0681315327688026
1658790117542446,1.983672846570471,-0.33569848172737693,-1.3733119707026162
1658790117558437,3.2654306858930795,-0.8850232700083325,-1.0681315327688026
1658790117574428,1.8616006713969,-1.0070954451819034,-0.2746623941404778
1658790117590418,-1.1291676203554744,-0.9460593575952316,-0.15259021896690683
1658790117606409,0.213626306553806,-0.8850232700083325,-0.09155413138023505
1658790117622400,1.6174563210497581,-1.0681315327688026,-0.5798428320745188
1658790117638391,2.105745021744042,-1.0681315327688026,-0.6408789196611906
1658790117654381,1.0681315327688026,-0.7019150072480898,0.15259021896690683
1658790117670372,0.8239871824216607,-0.7019150072480898,0.6408789196611906
1658790117686363,1.0070954451819034,-0.9460593575952316,0.213626306553806
1658790117702354,0.8850232700083325,-1.1291676203554744,-0.33569848172737693
1658790117718344,-0.09155413138023505,-1.3733119707026162,-0.7629510948347615
1658790117734335,1.2512397955290453,-0.15259021896690683,0.09155413138023505
1658790117750244,2.105745021744042,-0.15259021896690683,0.8239871824216607
1658790117766234,1.5564202334630863,-0.3967345693140487,0.2746623941404778
1658790117782225,-0.45777065690094787,-1.0681315327688026,-0.5188067444876197
1658790117798216,-0.7629510948347615,-1.739528496223329,-1.1902037079423735
1658790117814207,0.3967345693140487,-1.6174563210497581,-0.9460593575952316
1658790117830197,0.8850232700083325,-0.8850232700083325,-0.5798428320745188
1658790117846188,1.8616006713969,-0.15259021896690683,0.03051804379333589
1658790117862179,0.8239871824216607,-0.7019150072480898,0.3967345693140487
1658790117878170,-0.15259021896690683,-0.9460593575952316,-0.7629510948347615
1658790117894160,1.3122758831159445,-0.7629510948347615,-1.4343480582895154
1658790117910151,1.6174563210497581,-0.3967345693140487,-0.9460593575952316
1658790117926142,2.227817196917613,0.33569848172737693,-1.3733119707026162
1658790117942133,1.4343480582895154,-0.2746623941404778,-1.0681315327688026
1658790117958123,-0.5798428320745188,-1.1291676203554744,-0.8850232700083325
1658790117974114,-1.3122758831159445,-0.45777065690094787,-1.0070954451819034
1658790117990105,-0.3967345693140487,-0.15259021896690683,-1.1291676203554744
1658790118006096,1.6784924086366573,0.213626306553806,-1.0070954451819034
1658790118022086,1.2512397955290453,0.03051804379333589,-0.213626306553806
1658790118038077,-0.03051804379333589,-0.2746623941404778,0.15259021896690683
1658790118054068,-0.33569848172737693,0.5188067444876197,-0.15259021896690683
1658790118070037,2.3498893720911838,0.213626306553806,-1.1291676203554744
1658790118086028,4.974441138323073,-0.09155413138023505,-2.04470893415737
1658790118102018,2.655069810025225,-0.213626306553806,-1.8005645838102282
1658790118118008,-1.6784924086366573,-0.09155413138023505,-0.5798428320745188
1658790118133998,-2.4719615472647547,0.5798428320745188,0.2746623941404778
1658790118149989,-0.8850232700083325,0.45777065690094787,-0.15259021896690683
1658790118165979,1.6174563210497581,-0.15259021896690683,-0.8850232700083325
1658790118181969,3.570611123826893,-0.03051804379333589,-0.7019150072480898
1658790118197960,1.5564202334630863,0.5188067444876197,-0.2746623941404778
1658790118213950,-1.1902037079423735,0.15259021896690683,-0.03051804379333589
1658790118229940,-2.288853284504512,-0.8850232700083325,0.03051804379333589
1658790118245930,-1.0070954451819034,-0.6408789196611906,-0.45777065690094787
1658790118261921,0.5798428320745188,-0.2746623941404778,-0.6408789196611906
1658790118277911,0.3967345693140487,-0.33569848172737693,-0.8239871824216607
1658790118293901,-0.15259021896690683,-0.5188067444876197,-0.33569848172737693
1658790118309891,1.1291676203554744,-0.6408789196611906,0.33569848172737693
1658790118325882,0.7019150072480898,-0.8850232700083325,0.09155413138023505
1658790118341872,1.0070954451819034,-0.5798428320745188,-1.0681315327688026
1658790118357862,0.2746623941404778,-1.3733119707026162,-1.3733119707026162
1658790118373852,0.2746623941404778,-1.4953841458761872,-1.2512397955290453
1658790118389770,0.45777065690094787,-0.3967345693140487,-0.8850232700083325
1658790118405760,1.0681315327688026,0.213626306553806,-0.33569848172737693
1658790118421751,0.9460593575952316,-0.03051804379333589,-0.213626306553806
1658790118437741,0.5798428320745188,-0.7019150072480898,-0.5188067444876197
1658790118453731,1.4953841458761872,-1.6174563210497581,-1.4343480582895154
1658790118469721,2.532997634851654,-1.1902037079423735,-1.3733119707026162
1658790118485712,2.105745021744042,-0.45777065690094787,-1.2512397955290453
1658790118501702,0.8850232700083325,-1.1291676203554744,-0.5798428320745188
1658790118517692,-0.5798428320745188,-1.5564202334630863,-0.6408789196611906
1658790118533682,-1.6174563210497581,-1.0070954451819034,-0.9460593575952316
1658790118549673,-0.45777065690094787,-0.45777065690094787,-1.2512397955290453
1658790118565663,2.7771419851987957,-0.6408789196611906,-1.2512397955290453
1658790118581653,3.3264667734797513,-1.6784924086366573,-0.7019150072480898
1658790118597643,0.45777065690094787,-1.5564202334630863,-0.8239871824216607
1658790118613634,0.15259021896690683,-1.4953841458761872,-1.3122758831159445
1658790118629624,1.8005645838102282,-1.6784924086366573,-1.4343480582895154
1658790118645614,2.5940337224383256,-1.2512397955290453,-1.1291676203554744
1658790118661605,-0.03051804379333589,-0.8239871824216607,-0.5188067444876197
1658790118677595,-1.9226367589837992,-0.7629510948347615,0.15259021896690683
1658790118693585,-1.1291676203554744,-0.45777065690094787,0.09155413138023505
1658790118709533,-0.09155413138023505,-0.45777065690094787,-0.09155413138023505
1658790118725523,2.166781109330941,-0.8850232700083325,-0.213626306553806
1658790118741513,1.0681315327688026,-1.1291676203554744,-0.5798428320745188
1658790118757503,1.983672846570471,-0.5188067444876197,-0.5798428320745188
1658790118773492,1.8616006713969,-0.5798428320745188,0.03051804379333589
1658790118789482,0.15259021896690683,-0.8850232700083325,0.45777065690094787
1658790118805472,-1.4343480582895154,-0.5798428320745188,0.8239871824216607
1658790118821462,-1.8005645838102282,-0.45777065690094787,0.7629510948347615
1658790118837452,-0.9460593575952316,-0.8239871824216607,0.6408789196611906
1658790118853441,-0.33569848172737693,-1.3122758831159445,0.5798428320745188
1658790118869431,-0.6408789196611906,-1.983672846570471,0.8239871824216607
1658790118885421,-1.3122758831159445,-2.04470893415737,0.5798428320745188
1658790118901411,-0.09155413138023505,-1.6784924086366573,-0.213626306553806
1658790118917400,1.5564202334630863,-1.6174563210497581,-0.5188067444876197
1658790118933390,1.3733119707026162,-0.9460593575952316,-0.8850232700083325
1658790118949380,-0.03051804379333589,-0.09155413138023505,-1.3122758831159445
1658790118965370,0.2746623941404778,0.03051804379333589,-1.6784924086366573
1658790118981360,2.410925459678083,-0.213626306553806,-2.3498893720911838
1658790118997349,2.288853284504512,-0.15259021896690683,-2.3498893720911838
1658790119013339,1.1291676203554744,-0.6408789196611906,-2.3498893720911838
1658790119029266,-0.9460593575952316,-0.7629510948347615,-1.8005645838102282
1658790119045256,-1.4343480582895154,-0.9460593575952316,-1.6174563210497581
1658790119061246,0.7629510948347615,-0.213626306553806,-1.9226367589837992
1658790119077235,2.7161058976118966,-0.09155413138023505,-1.739528496223329
1658790119093225,3.2043945983061803,0.213626306553806,-1.2512397955290453
1658790119109215,1.4953841458761872,0.33569848172737693,-1.0070954451819034
1658790119125205,-0.8850232700083325,0.03051804379333589,-1.4953841458761872
1658790119141194,-0.8850232700083325,-0.3967345693140487,-2.105745021744042
1658790119157184,1.8616006713969,-0.03051804379333589,-1.983672846570471
1658790119173174,3.7537193865873633,0.6408789196611906,-1.1902037079423735
1658790119189164,3.4485389486533222,1.3122758831159445,-0.5188067444876197
1658790119205154,1.6784924086366573,0.5188067444876197,-0.2746623941404778
1658790119221143,0.5188067444876197,0.09155413138023505,-0.5188067444876197
1658790119237133,-0.3967345693140487,0.3967345693140487,-0.33569848172737693
1658790119253123,-0.6408789196611906,1.1902037079423735,-0.03051804379333589
1658790119269113,-1.6174563210497581,0.7629510948347615,-0.09155413138023505
1658790119285102,-2.288853284504512,0.213626306553806,-0.3967345693140487
1658790119301092,-3.1433585107195086,-0.213626306553806,0.03051804379333589
1658790119317082,-3.936827649347606,-0.09155413138023505,0.15259021896690683
1658790119333072,-2.288853284504512,0.7019150072480898,-0.3967345693140487
1658790119349029,0.7629510948347615,0.33569848172737693,-0.6408789196611906
1658790119365018,2.105745021744042,-0.6408789196611906,-0.45777065690094787
1658790119381008,-0.03051804379333589,-1.3122758831159445,-0.09155413138023505
1658790119396997,-2.4719615472647547,-0.15259021896690683,0.03051804379333589
1658790119412986,-1.1291676203554744,-0.45777065690094787,-0.5188067444876197
1658790119428976,3.936827649347606,-0.5798428320745188,-1.0681315327688026
1658790119444965,5.889982452124741,-0.33569848172737693,-1.3122758831159445
1658790119460954,2.410925459678083,0.3967345693140487,-1.0070954451819034
1658790119476944,-2.166781109330941,0.09155413138023505,-0.09155413138023505
1658790119492933,-3.7537193865873633,-1.0681315327688026,-0.09155413138023505
1658790119508922,-1.739528496223329,-1.1291676203554744,-0.5188067444876197
1658790119524912,2.166781109330941,-0.5798428320745188,-1.0681315327688026
1658790119540901,3.0823224231326094,-0.3967345693140487,-1.1291676203554744
1658790119556890,2.04470893415737,-1.0070954451819034,-0.45777065690094787
1658790119572879,-0.7019150072480898,-1.6174563210497581,-0.213626306553806
1658790119588869,-1.9226367589837992,-1.2512397955290453,-0.5798428320745188
1658790119604858,0.8850232700083325,-0.6408789196611906,-0.3967345693140487
1658790119620847,2.8992141603723667,-0.33569848172737693,-0.03051804379333589
1658790119636837,1.8005645838102282,-0.45777065690094787,-0.09155413138023505
1658790119652826,0.5798428320745188,-0.33569848172737693,0.33569848172737693
1658790119668792,0.5188067444876197,-0.15259021896690683,1.0070954451819034
1658790119684782,1.983672846570471,-0.5798428320745188,0.7019150072480898
1658790119700771,2.288853284504512,-1.0070954451819034,0.2746623941404778
1658790119716760,0.8239871824216607,-1.1902037079423735,0.2746623941404778
1658790119732750,-1.2512397955290453,-0.3967345693140487,1.1291676203554744
1658790119748739,-2.227817196917613,-0.5188067444876197,1.3733119707026162
1658790119764728,0.09155413138023505,-0.8850232700083325,1.0070954451819034
1658790119780717,1.0070954451819034,-0.8850232700083325,0.45777065690094787
1658790119796707,0.45777065690094787,-0.9460593575952316,-0.03051804379333589
1658790119812696,0.45777065690094787,-0.33569848172737693,-0.3967345693140487
1658790119828685,0.45777065690094787,-0.3967345693140487,-0.2746623941404778
1658790119844675,0.213626306553806,-0.7629510948347615,-0.15259021896690683
1658790119860664,-0.7019150072480898,-0.5798428320745188,0.09155413138023505
1658790119876653,-0.03051804379333589,-0.7629510948347615,-0.5798428320745188
1658790119892643,1.1291676203554744,-0.3967345693140487,-1.0070954451819034
1658790119908632,0.8850232700083325,0.15259021896690683,-1.4343480582895154
1658790119924621,-0.213626306553806,0.5188067444876197,-1.0070954451819034
1658790119940611,0.3967345693140487,0.03051804379333589,-0.8239871824216607
1658790119956600,-0.3967345693140487,-0.6408789196611906,-0.5798428320745188
1658790119972589,0.3967345693140487,0.15259021896690683,-0.8239871824216607
1658790119988525,0.8239871824216607,0.15259021896690683,-1.4343480582895154
1658790120004514,1.739528496223329,-0.7629510948347615,-1.6784924086366573
1658790120020504,0.5188067444876197,-1.2512397955290453,-1.6174563210497581
1658790120036493,-0.7019150072480898,-0.8850232700083325,-1.1291676203554744
1658790120052482,-2.04470893415737,-0.45777065690094787,-0.5188067444876197
1658790120068472,-0.8239871824216607,0.09155413138023505,-0.213626306553806
1658790120084461,1.6174563210497581,-0.09155413138023505,-0.8239871824216607
1658790120100450,3.936827649347606,0.33569848172737693,-1.6174563210497581
1658790120116439,2.9602502479590385,0.15259021896690683,-1.6784924086366573
1658790120132429,1.9226367589837992,0.33569848172737693,-1.2512397955290453
1658790120148418,-0.8239871824216607,0.213626306553806,-0.15259021896690683
1658790120164407,-1.9226367589837992,0.213626306553806,0.3967345693140487
1658790120180397,-1.0070954451819034,0.6408789196611906,0.3967345693140487
1658790120196386,1.0070954451819034,1.0070954451819034,-0.15259021896690683
1658790120212375,2.4719615472647547,0.6408789196611906,-0.3967345693140487
1658790120228365,2.288853284504512,-0.15259021896690683,-0.09155413138023505
1658790120244354,0.09155413138023505,-0.33569848172737693,0.03051804379333589
1658790120260343,-0.213626306553806,-0.33569848172737693,-0.03051804379333589
1658790120276332,0.45777065690094787,-1.1902037079423735,-0.3967345693140487
1658790120292322,2.8381780727854675,-1.4953841458761872,-0.9460593575952316
1658790120308288,1.9226367589837992,-1.4343480582895154,-0.3967345693140487
1658790120324278,0.2746623941404778,-0.7629510948347615,0.45777065690094787
1658790120340267,-1.0070954451819034,-0.5188067444876197,0.7019150072480898
1658790120356256,-0.8850232700083325,-1.0070954451819034,0.09155413138023505
1658790120372245,0.9460593575952316,-1.1291676203554744,-0.213626306553806
1658790120388235,0.8239871824216607,-0.6408789196611906,-0.5798428320745188
1658790120404224,0.09155413138023505,-0.6408789196611906,-0.45777065690094787
1658790120420213,1.5564202334630863,-1.3733119707026162,0.03051804379333589
1658790120436203,2.8381780727854675,-1.4343480582895154,0.3967345693140487
1658790120452192,-0.213626306553806,-1.9226367589837992,0.3967345693140487
1658790120468181,-5.462729839017356,-2.8992141603723667,-0.09155413138023505
1658790120484171,-5.2185854886702145,-2.8992141603723667,-0.09155413138023505
1658790120500160,-1.6174563210497581,-2.7161058976118966,-0.09155413138023505
1658790120516149,1.3733119707026162,-1.8616006713969,-0.15259021896690683
1658790120532138,1.0681315327688026,-1.4953841458761872,-0.213626306553806
1658790120548128,1.4953841458761872,-1.5564202334630863,-0.5798428320745188
1658790120564117,1.3122758831159445,-1.6784924086366573,-0.7019150072480898
1658790120580106,2.532997634851654,-1.4343480582895154,-0.45777065690094787
1658790120596096,2.3498893720911838,-1.3733119707026162,-0.15259021896690683
1658790120612085,0.2746623941404778,-1.1902037079423735,0.2746623941404778
1658790120628051,0.33569848172737693,-0.6408789196611906,0.2746623941404778
1658790120644040,1.9226367589837992,-0.213626306553806,-0.45777065690094787
1658790120660029,4.119935912108076,0.3967345693140487,-0.6408789196611906
1658790120676018,3.3264667734797513,0.8239871824216607,0.45777065690094787
1658790120692007,2.7161058976118966,0.33569848172737693,1.8005645838102282
1658790120707996,2.8381780727854675,0.213626306553806,1.983672846570471
1658790120723984,3.2043945983061803,-0.5798428320745188,2.105745021744042
1658790120739973,2.5940337224383256,-1.9226367589837992,2.410925459678083
1658790120755962,1.1291676203554744,-1.3122758831159445,2.9602502479590385
1658790120771951,-1.4343480582895154,0.09155413138023505,3.692683299000464
1658790120787940,-2.7161058976118966,0.9460593575952316,3.5095750362402214
1658790120803928,-1.4953841458761872,0.8239871824216607,2.7771419851987957
1658790120819917,-0.03051804379333589,0.03051804379333589,1.9226367589837992
1658790120835906,-1.3733119707026162,-0.5188067444876197,1.0070954451819034
1658790120851895,-3.2654306858930795,0.3967345693140487,0.7629510948347615
1658790120867884,0.03051804379333589,1.8616006713969,0.8239871824216607
1658790120883873,3.4485389486533222,0.7629510948347615,0.8239871824216607
1658790120899861,2.288853284504512,-0.3967345693140487,0.5798428320745188
1658790120915850,-1.2512397955290453,0.213626306553806,0.9460593575952316
1658790120931839,-3.875791561760934,-0.15259021896690683,0.9460593575952316
1658790120947815,-1.8005645838102282,-0.03051804379333589,0.5798428320745188
1658790120963803,-0.03051804379333589,-0.15259021896690683,0.7019150072480898
1658790120979792,0.5188067444876197,-0.33569848172737693,-0.213626306553806
1658790120995781,-1.2512397955290453,-0.7629510948347615,-1.0681315327688026
1658790121011770,-3.2043945983061803,-1.0681315327688026,-0.3967345693140487
1658790121027759,-1.1902037079423735,-1.1902037079423735,0.2746623941404778
1658790121043748,2.288853284504512,-0.7019150072480898,0.213626306553806
1658790121059736,2.8381780727854675,-0.8239871824216607,-0.3967345693140487
1658790121075725,4.119935912108076,-0.09155413138023505,-1.0681315327688026
1658790121091714,3.1433585107195086,-0.33569848172737693,-1.0681315327688026
1658790121107703,0.213626306553806,-0.8239871824216607,-0.2746623941404778
1658790121123692,-1.5564202334630863,-1.983672846570471,-0.03051804379333589
1658790121139680,0.8850232700083325,-2.288853284504512,-0.09155413138023505
1658790121155669,1.5564202334630863,-1.739528496223329,-0.6408789196611906
1658790121171658,2.04470893415737,-1.8616006713969,-1.8616006713969
1658790121187647,1.6174563210497581,-2.105745021744042,-2.410925459678083
1658790121203636,2.655069810025225,-1.6784924086366573,-1.6174563210497581
1658790121219625,1.5564202334630863,-2.288853284504512,-1.1902037079423735
1658790121235613,1.2512397955290453,-2.5940337224383256,-1.4953841458761872
1658790121251602,0.7019150072480898,-2.410925459678083,-0.6408789196611906
1658790121267578,1.0681315327688026,-2.04470893415737,-0.8239871824216607
1658790121283567,2.5940337224383256,-1.8616006713969,-1.2512397955290453
1658790121299555,1.0681315327688026,-2.9602502479590385,-1.5564202334630863
1658790121315544,1.9226367589837992,-2.410925459678083,-1.2512397955290453
1658790121331533,1.1291676203554744,-2.288853284504512,-1.1902037079423735
1658790121347522,0.09155413138023505,-1.983672846570471,-2.105745021744042
1658790121363511,1.5564202334630863,-1.4343480582895154,-1.0681315327688026
1658790121379500,0.33569848172737693,-2.288853284504512,-0.8239871824216607
1658790121395488,-0.8239871824216607,-1.6784924086366573,-1.0070954451819034
1658790121411477,0.03051804379333589,-1.1902037079423735,-0.45777065690094787
1658790121427466,1.983672846570471,-1.5564202334630863,-0.7629510948347615
1658790121443455,1.0070954451819034,-1.9226367589837992,-1.2512397955290453
1658790121459444,0.8239871824216607,-1.8005645838102282,-1.1902037079423735
1658790121475432,1.8616006713969,-1.0070954451819034,-0.5798428320745188
1658790121491421,0.8239871824216607,-0.03051804379333589,0.5188067444876197
1658790121507410,-0.213626306553806,0.213626306553806,1.0070954451819034
1658790121523399,-0.213626306553806,0.6408789196611906,0.7629510948347615
1658790121539388,-0.33569848172737693,0.9460593575952316,1.0681315327688026
1658790121555377,2.227817196917613,1.1291676203554744,1.2512397955290453
1658790121571365,3.0212863355459376,1.2512397955290453,2.227817196917613
1658790121587310,3.3264667734797513,0.5798428320745188,2.8992141603723667
1658790121603299,2.8381780727854675,0.45777065690094787,3.2043945983061803
1658790121619287,1.1902037079423735,0.6408789196611906,3.1433585107195086
1658790121635275,1.4953841458761872,0.7019150072480898,2.166781109330941
1658790121651264,0.33569848172737693,0.8239871824216607,2.227817196917613
1658790121667252,-0.7019150072480898,1.8616006713969,2.8381780727854675
1658790121683241,-2.227817196917613,1.0070954451819034,3.0212863355459376
1658790121699229,-0.5188067444876197,0.7019150072480898,2.227817196917613
1658790121715217,-0.9460593575952316,-1.0070954451819034,1.6174563210497581
1658790121731206,1.4953841458761872,-0.33569848172737693,1.5564202334630863
1658790121747194,1.5564202334630863,-0.09155413138023505,1.4953841458761872
1658790121763182,0.5798428320745188,-1.0070954451819034,0.7629510948347615
1658790121779171,0.09155413138023505,-0.7629510948347615,0.7629510948347615
1658790121795159,-1.4953841458761872,-0.6408789196611906,0.5188067444876197
1658790121811147,-0.15259021896690683,-0.09155413138023505,-0.2746623941404778
1658790121827136,2.8381780727854675,0.7019150072480898,-0.33569848172737693
1658790121843124,2.166781109330941,-0.45777065690094787,-1.2512397955290453
1658790121859112,2.8992141603723667,-0.8850232700083325,-1.2512397955290453
1658790121875101,6.134126802471883,-1.4343480582895154,-0.15259021896690683
1658790121891089,8.33142595559616,-1.9226367589837992,0.7019150072480898
1658790121907074,7.843137254901876,-3.5095750362402214,0.9460593575952316
1658790121923062,6.378271152819025,-5.096513313496644,0.6408789196611906
1658790121939050,6.378271152819025,-5.401693751430457,0.2746623941404778
1658790121955039,4.791332875562603,-3.3875028610666504,0.2746623941404778
1658790121971027,2.8381780727854675,-2.7771419851987957,0.15259021896690683
1658790121987015,0.213626306553806,-2.7771419851987957,-0.2746623941404778
1658790122003004,-1.1291676203554744,-2.532997634851654,-0.6408789196611906
1658790122018992,-0.5188067444876197,-2.3498893720911838,-0.5188067444876197
1658790122034980,2.532997634851654,-1.4343480582895154,-0.3967345693140487
1658790122050969,4.669260700389032,-1.9226367589837992,0.15259021896690683
1658790122066957,2.9602502479590385,-3.2654306858930795,0.6408789196611906
1658790122082945,1.3733119707026162,-3.0212863355459376,1.1902037079423735
1658790122098934,2.655069810025225,-2.410925459678083,1.0681315327688026
1658790122114922,5.2185854886702145,-1.0681315327688026,1.1291676203554744
1658790122130910,5.523765926604028,-1.3733119707026162,1.983672846570471
1658790122146899,1.8005645838102282,-1.6174563210497581,2.04470893415737
1658790122162887,-0.7629510948347615,-0.8239871824216607,1.6784924086366573
1658790122178876,1.8616006713969,0.33569848172737693,1.9226367589837992
1658790122194864,3.692683299000464,-0.33569848172737693,1.9226367589837992
1658790122210852,3.3875028610666504,-1.1291676203554744,1.0681315327688026
1658790122226806,0.2746623941404778,-1.1902037079423735,0.5798428320745188
1658790122242795,-3.692683299000464,-2.04470893415737,0.33569848172737693
1658790122258783,-1.0070954451819034,-0.15259021896690683,0.15259021896690683
1658790122274771,-0.8239871824216607,0.33569848172737693,0.5798428320745188
1658790122290760,-1.4343480582895154,0.5188067444876197,0.15259021896690683
1658790122306748,-1.8005645838102282,0.7019150072480898,-0.45777065690094787
1658790122322736,-1.1291676203554744,1.3733119707026162,-0.2746623941404778
1658790122338725,0.3967345693140487,1.983672846570471,0.213626306553806
1658790122354713,0.6408789196611906,1.4343480582895154,-0.7019150072480898
1658790122370701,-0.7629510948347615,1.2512397955290453,-1.5564202334630863
1658790122386690,-2.04470893415737,1.0070954451819034,-0.7019150072480898
1658790122402678,-0.213626306553806,1.6174563210497581,-0.2746623941404778
1658790122418666,0.7019150072480898,2.410925459678083,-0.7629510948347615
1658790122434655,-0.5188067444876197,1.3733119707026162,-1.1291676203554744
1658790122450643,0.33569848172737693,-0.03051804379333589,-1.2512397955290453
1658790122466632,-1.3733119707026162,-0.33569848172737693,-1.0070954451819034
1658790122482620,-3.0823224231326094,0.213626306553806,-0.7019150072480898
1658790122498608,-2.7161058976118966,1.739528496223329,-0.213626306553806
1658790122514597,0.3967345693140487,1.6174563210497581,0.09155413138023505
1658790122530585,4.730296787975931,1.0681315327688026,0.09155413138023505
1658790122546569,4.180971999694748,1.739528496223329,-0.3967345693140487
1658790122562558,0.5798428320745188,2.04470893415737,-0.9460593575952316
1658790122578546,-0.03051804379333589,1.3122758831159445,-0.7019150072480898
1658790122594534,0.8239871824216607,-0.213626306553806,-0.213626306553806
1658790122610523,0.8850232700083325,-0.9460593575952316,-0.2746623941404778
1658790122626511,1.5564202334630863,-0.09155413138023505,-0.9460593575952316
1658790122642500,-0.3967345693140487,0.33569848172737693,-1.0681315327688026
1658790122658488,0.5188067444876197,0.33569848172737693,-0.33569848172737693
1658790122674476,0.03051804379333589,-0.6408789196611906,-0.15259021896690683
1658790122690465,1.0070954451819034,0.15259021896690683,-0.33569848172737693
1658790122706453,1.739528496223329,0.33569848172737693,0.15259021896690683
1658790122722441,2.227817196917613,-0.5798428320745188,-0.5798428320745188
1658790122738430,3.7537193865873633,-1.739528496223329,-1.5564202334630863
1658790122754418,3.2654306858930795,-2.532997634851654,-0.9460593575952316
1658790122770406,2.105745021744042,-1.9226367589837992,-0.213626306553806
1658790122786395,-0.15259021896690683,-1.2512397955290453,-0.213626306553806
1658790122802383,0.03051804379333589,-1.983672846570471,-0.2746623941404778
1658790122818371,1.983672846570471,-1.983672846570471,-0.5798428320745188
1658790122834360,2.227817196917613,-1.2512397955290453,-0.7019150072480898
1658790122850348,2.3498893720911838,0.213626306553806,-0.6408789196611906
1658790122866333,2.3498893720911838,0.2746623941404778,0.09155413138023505
1658790122882321,2.7161058976118966,-1.4343480582895154,-0.15259021896690683
1658790122898309,4.791332875562603,-1.8616006713969,-1.0070954451819034
1658790122914298,2.4719615472647547,-1.4953841458761872,-1.0070954451819034
1658790122930286,1.1291676203554744,-0.5188067444876197,-0.5188067444876197
1658790122946274,0.9460593575952316,-0.5798428320745188,-0.09155413138023505
1658790122962263,1.4343480582895154,-1.0070954451819034,-0.15259021896690683
1658790122978251,-0.45777065690094787,-1.4953841458761872,-0.3967345693140487
1658790122994239,-1.1902037079423735,-1.6174563210497581,-1.0681315327688026
1658790123010228,-0.09155413138023505,-1.8005645838102282,-1.739528496223329
1658790123026216,1.5564202334630863,-1.1902037079423735,-1.739528496223329
1658790123042204,0.7629510948347615,-0.9460593575952316,-1.3733119707026162
1658790123058193,-0.213626306553806,-0.5188067444876197,-1.4343480582895154
1658790123074181,2.166781109330941,-0.33569848172737693,-1.739528496223329
1658790123090170,2.7771419851987957,-1.5564202334630863,-1.9226367589837992
1658790123106158,2.227817196917613,-1.8005645838102282,-2.227817196917613
1658790123122146,2.7771419851987957,-0.5188067444876197,-2.288853284504512
1658790123138135,2.288853284504512,-0.33569848172737693,-1.8616006713969
1658790123154123,1.8005645838102282,-1.0070954451819034,-1.0681315327688026
1658790123170111,0.8850232700083325,-1.6784924086366573,-0.45777065690094787
1658790123186065,0.33569848172737693,-0.8239871824216607,-0.33569848172737693
1658790123202054,1.1291676203554744,0.09155413138023505,-0.7019150072480898
1658790123218042,2.5940337224383256,0.09155413138023505,-1.3122758831159445
1658790123234030,2.227817196917613,-0.3967345693140487,-0.8850232700083325
1658790123250019,0.8850232700083325,-0.7629510948347615,-0.09155413138023505
1658790123266007,0.8850232700083325,-0.213626306553806,0.33569848172737693
1658790123281995,-0.7629510948347615,0.213626306553806,0.15259021896690683
1658790123297984,-0.2746623941404778,-0.33569848172737693,0.03051804379333589
1658790123313972,1.6784924086366573,-0.03051804379333589,0.213626306553806
1658790123329960,1.0070954451819034,0.7629510948347615,0.3967345693140487
1658790123345949,-1.0070954451819034,0.6408789196611906,0.2746623941404778
1658790123361937,-0.9460593575952316,-0.45777065690094787,-0.45777065690094787
1658790123377925,0.7019150072480898,-1.0681315327688026,-0.8850232700083325
1658790123393914,0.6408789196611906,-1.3733119707026162,-0.9460593575952316
1658790123409902,-0.03051804379333589,-0.5798428320745188,-0.7019150072480898
1658790123425891,-0.45777065690094787,-0.09155413138023505,-0.09155413138023505
1658790123441879,0.213626306553806,-0.7019150072480898,0.09155413138023505
1658790123457867,1.1902037079423735,-0.5798428320745188,-0.09155413138023505
1658790123473856,1.3733119707026162,-0.213626306553806,-0.45777065690094787
1658790123489844,0.3967345693140487,-0.03051804379333589,-0.5188067444876197
1658790123505828,-0.03051804379333589,-0.33569848172737693,-0.2746623941404778
1658790123521817,1.739528496223329,-0.9460593575952316,-0.09155413138023505
1658790123537805,1.739528496223329,-1.5564202334630863,-0.7629510948347615
1658790123553794,0.7019150072480898,-0.8239871824216607,-1.3733119707026162
1658790123569782,0.45777065690094787,-0.3967345693140487,-0.8850232700083325
1658790123585770,1.983672846570471,-1.0681315327688026,-0.33569848172737693
1658790123601759,3.5095750362402214,-1.0070954451819034,-0.15259021896690683
1658790123617747,1.2512397955290453,-1.4343480582895154,-0.3967345693140487
1658790123633735,-2.3498893720911838,-1.4343480582895154,-0.2746623941404778
1658790123649724,-1.2512397955290453,-1.2512397955290453,-0.45777065690094787
1658790123665712,2.227817196917613,-0.8239871824216607,-0.45777065690094787
1658790123681700,3.1433585107195086,-0.7019150072480898,0.09155413138023505
1658790123697689,1.0681315327688026,-0.7629510948347615,-0.45777065690094787
1658790123713677,-0.3967345693140487,-0.03051804379333589,-0.7019150072480898
1658790123729665,-0.5188067444876197,-0.7629510948347615,-0.7629510948347615
1658790123745654,1.983672846570471,-0.3967345693140487,-0.7629510948347615
1658790123761642,1.8005645838102282,-0.7019150072480898,-0.2746623941404778
1658790123777630,1.9226367589837992,-0.15259021896690683,-0.33569848172737693
1658790123793619,0.6408789196611906,0.2746623941404778,-0.5188067444876197
1658790123809607,0.33569848172737693,-0.3967345693140487,-0.8239871824216607
1658790123825561,2.4719615472647547,-0.2746623941404778,-1.0681315327688026
1658790123841549,1.1902037079423735,-0.45777065690094787,-1.4343480582895154
1658790123857537,-1.0681315327688026,-0.33569848172737693,-1.8005645838102282
1658790123873525,-2.105745021744042,-0.5188067444876197,-1.2512397955290453
1658790123889513,-0.5798428320745188,-0.09155413138023505,-1.1291676203554744
1658790123905501,0.5798428320745188,0.33569848172737693,-1.0681315327688026
1658790123921488,0.9460593575952316,0.213626306553806,-2.105745021744042
1658790123937476,1.6174563210497581,-0.03051804379333589,-2.532997634851654
1658790123953464,0.8850232700083325,-0.3967345693140487,-1.8616006713969
1658790123969452,-0.09155413138023505,0.15259021896690683,-1.1291676203554744
1658790123985440,-0.33569848172737693,1.4343480582895154,-0.6408789196611906
1658790124001428,0.8239871824216607,0.8239871824216607,-1.0070954451819034
1658790124017416,1.9226367589837992,-0.213626306553806,-1.3122758831159445
1658790124033403,2.288853284504512,-0.5188067444876197,-1.1902037079423735
1658790124049391,1.1291676203554744,0.03051804379333589,-1.0070954451819034
1658790124065379,-0.213626306553806,0.5188067444876197,-0.2746623941404778
1658790124081367,0.33569848172737693,0.7019150072480898,-0.09155413138023505
1658790124097355,0.45777065690094787,0.33569848172737693,-0.3967345693140487
1658790124113343,0.45777065690094787,0.03051804379333589,-0.2746623941404778
1658790124129331,0.8850232700083325,-0.3967345693140487,0.09155413138023505
1658790124145294,-0.15259021896690683,-0.8850232700083325,0.5798428320745188
1658790124161282,-1.0681315327688026,-0.15259021896690683,0.8239871824216607
1658790124177270,0.8850232700083325,-0.15259021896690683,0.7019150072480898
1658790124193257,4.180971999694748,0.09155413138023505,0.33569848172737693
1658790124209245,3.1433585107195086,-0.45777065690094787,-0.15259021896690683
1658790124225233,0.09155413138023505,-0.6408789196611906,-0.33569848172737693
1658790124241221,-0.45777065690094787,-0.7019150072480898,0.15259021896690683
1658790124257209,0.5798428320745188,-0.7019150072480898,0.6408789196611906
1658790124273197,1.3733119707026162,-0.5188067444876197,0.9460593575952316
1658790124289185,1.6174563210497581,-0.7019150072480898,0.03051804379333589
1658790124305173,1.739528496223329,-1.3733119707026162,-1.0681315327688026
1658790124321160,1.2512397955290453,-1.9226367589837992,-1.2512397955290453
1658790124337148,-0.9460593575952316,-1.1902037079423735,-1.0681315327688026
1658790124353136,-1.6784924086366573,-0.09155413138023505,-0.5188067444876197
1658790124369124,0.7019150072480898,0.33569848172737693,-0.5798428320745188
1658790124385112,2.8381780727854675,-0.213626306553806,-1.3733119707026162
1658790124401100,3.2043945983061803,-0.9460593575952316,-1.3733119707026162
1658790124417088,1.5564202334630863,-0.9460593575952316,-1.3122758831159445
1658790124433076,0.9460593575952316,-0.33569848172737693,-1.4343480582895154
1658790124449063,1.3122758831159445,-0.15259021896690683,-1.2512397955290453
1658790124465057,1.2512397955290453,-0.15259021896690683,-1.1291676203554744
1658790124481045,0.9460593575952316,-0.2746623941404778,-1.4343480582895154
1658790124497033,0.5188067444876197,0.33569848172737693,-1.4953841458761872
1658790124513021,2.9602502479590385,0.9460593575952316,-1.3122758831159445
1658790124529008,3.0823224231326094,-0.03051804379333589,-1.739528496223329
1658790124544996,2.532997634851654,-0.6408789196611906,-1.4953841458761872
1658790124560984,1.739528496223329,-1.1902037079423735,-1.0681315327688026
1658790124576972,1.0681315327688026,-0.5188067444876197,-1.6174563210497581
1658790124592960,-0.15259021896690683,-0.09155413138023505,-2.410925459678083
1658790124608948,0.45777065690094787,-0.45777065690094787,-2.166781109330941
1658790124624936,0.9460593575952316,-0.5188067444876197,-1.3122758831159445
1658790124640924,0.6408789196611906,0.213626306553806,-0.15259021896690683
1658790124656911,2.227817196917613,0.5798428320745188,-0.15259021896690683
1658790124672899,2.227817196917613,0.33569848172737693,-0.33569848172737693
1658790124688887,2.5940337224383256,-0.213626306553806,0.03051804379333589
1658790124704875,2.166781109330941,0.8239871824216607,0.45777065690094787
1658790124720863,2.166781109330941,3.3875028610666504,1.0681315327688026
1658790124736851,0.8239871824216607,3.5095750362402214,2.105745021744042
1658790124752839,0.33569848172737693,2.532997634851654,2.5940337224383256
1658790124768827,2.166781109330941,2.04470893415737,4.60822461280236
1658790124784820,0.7019150072480898,1.0681315327688026,6.744487678339738
1658790124800808,4.547188525215461,6.073090714885211,7.476920729381163
1658790124816796,4.974441138323073,7.2938124666209205,10.040436408026153
1658790124832784,3.814755474174035,3.814755474174035,12.664988174258042
1658790124848772,3.1433585107195086,3.2654306858930795,14.618142977035177
1658790124864760,3.3264667734797513,3.570611123826893,16.32715342946517
1658790124880747,1.983672846570471,2.655069810025225,17.914091706721592
1658790124896735,1.3122758831159445,1.5564202334630863,20.11139085984587
1658790124912723,1.739528496223329,2.3498893720911838,22.125581750209676
1658790124928711,1.739528496223329,2.227817196917613,23.651483939879427
1658790124944699,1.4343480582895154,0.3967345693140487,26.214999618524416
1658790124960687,-1.5564202334630863,-2.4719615472647547,28.900587472342977
1658790124976675,-5.523765926604028,-4.42511635004189,31.097886625467254
1658790124992663,-4.303044174868319,-3.936827649347606,32.80689707789725
1658790125008650,-2.7771419851987957,-4.42511635004189,36.346990157930804
1658790125024638,-3.570611123826893,-6.012054627298312,41.474021515220784
1658790125040626,-3.5095750362402214,-5.76791027695117,46.17380025940315
1658790125056614,1.6784924086366573,-2.04470893415737,51.30083161669336
1658790125072602,7.843137254901876,-0.5188067444876197,56.91615167467762
1658790125088590,8.33142595559616,-2.04470893415737,60.57831692988475
1658790125104553,6.561379415579495,0.15259021896690683,62.47043564507476
1658790125120541,4.242008087281647,1.4953841458761872,65.76638437476186
1658790125136529,1.8005645838102282,0.213626306553806,69.61165789272945
1658790125152516,-3.0212863355459376,-1.0070954451819034,73.4569314106966
1658790125168504,-7.537956816968062,-1.739528496223329,76.3866636148623
1658790125184492,-9.67421988250544,-1.5564202334630863,79.316395819028
1658790125200480,-8.392462043183059,-2.4719615472647547,82.97856107423513
1658790125216468,-6.744487678339738,-4.60822461280236,88.04455634393844
1658790125232456,-9.491111619745197,-6.744487678339738,93.35469596398889
1658790125248444,-11.810482948043045,-8.819714656290444,97.07789730678269
1658790125264432,-8.270389868009488,-10.467689021133765,100.434882124056
1658790125280419,-9.918364232852582,-14.496070801861606,102.38803692683314
1658790125296407,-15.594720378423744,-16.937514305333025,103.73083085374219
1658790125312395,-16.08300907911803,-16.2050812542916,107.33196002136265
1658790125328383,-18.89066910811016,-16.937514305333025,110.26169222552835
1658790125344371,-21.210040436408008,-17.54787518120088,108.55268177309836
1658790125360359,-26.52018005645823,-17.730983443961122,105.0736247806517
1658790125376347,-24.750133516441565,-20.11139085984587,104.64637216754409
1658790125392335,-21.33211261158158,-19.01274128328373,107.27092393377598
1658790125408322,-17.60891126878755,-19.317921721217544,108.7968261234455
1658790125424316,-14.190890363927565,-17.853055619134693,108.36957351033789
1658790125440304,-16.815442130159454,-14.80125123979542,106.6605630579079
1658790125456292,-16.388189517051842,-12.970168612191856,105.31776913099884
1658790125472280,-12.054627298390187,-12.909132524605184,102.81528953994075
1658790125488268,-5.523765926604028,-12.23773556115043,101.89974822613885
1658790125504255,-9.308003356984727,-9.063859006637585,101.96078431372553
1658790125520243,-15.594720378423744,-6.073090714885211,96.89478904402222
1658790125536231,-17.36476691844041,-5.95101853971164,90.79118028534367
1658790125552219,-21.33211261158158,-9.002822919050914,92.43915465018699
1658790125568207,-25.36049439230942,-11.322194247348762,97.07789730678269
1658790125584195,-20.721751735713724,-10.162508583199724,97.13893339436936
1658790125600183,-15.777828641183987,-7.965209430075447,93.72091248950937
1658790125616171,-22.308690012970146,-12.23773556115043,87.86144808117797
1658790125632158,-22.064545662623004,-15.167467765316132,85.35896849011988
1658790125648146,-17.303730830853738,-13.092240787365427,88.5938811322194
1658790125664134,-15.838864728770886,-9.308003356984727,92.19501029983985
1658790125680122,-25.116350041962278,-8.209353780422589,92.68329900053413
1658790125696110,-30.54856183718607,-10.528725108720437,87.12901503013654
1658790125712098,-19.80621042191183,-7.965209430075447,77.05806057831705
1658790125728086,1.9226367589837992,1.3733119707026162,73.15175097276278
1658790125744049,15.533684290836845,3.0212863355459376,75.95941100175514
1658790125760037,1.8005645838102282,-2.410925459678083,80.41504539559037
1658790125776024,-17.36476691844041,-5.462729839017356,78.33981841763944
1658790125792012,-22.003509575036105,-3.570611123826893,73.82314793621754
1658790125808000,-10.89494163424115,3.692683299000464,71.62584878309326
1658790125823988,4.9134050507361735,8.026245517662346,71.56481269550659
1658790125839976,8.941786831464015,6.073090714885211,74.12832837415135
1658790125855964,2.8992141603723667,0.5188067444876197,77.91256580453228
1658790125871952,-7.843137254901876,0.09155413138023505,81.63576714732608
1658790125887940,-20.416571297779683,2.04470893415737,79.62157625696227
1658790125903927,-26.764324406805372,2.7771419851987957,74.18936446173802
1658790125919915,-22.308690012970146,2.105745021744042,74.43350881208517
1658790125935903,-10.772869459067579,6.744487678339738,77.66842145418514
1658790125951891,-4.60822461280236,10.528725108720437,76.81391622796991
1658790125967879,-5.645838101777599,12.787060349431613,72.72449835965517
1658790125983867,-10.772869459067579,11.566338597695903,72.60242618448183
1658790125999855,-20.904859998473967,6.9886320286868795,74.55558098725896
1658790126015843,-35.187304493781994,1.0070954451819034,73.70107576104374
1658790126031830,-46.66208896009766,-0.5188067444876197,69.06233310444804
1658790126047818,-53.498130769817635,3.692683299000464,63.44701304646378
1658790126063812,-54.5357442587931,8.087281605249018,57.95376516365286
1658790126079800,-49.713893339436936,8.33142595559616,51.78912031738764
1658790126095788,-49.34767681391622,4.058899824521177,43.18303196765078
1658790126111776,-53.498130769817635,1.4343480582895154,33.661402304112244
1658790126127763,-60.090028229190466,-3.875791561760934,29.20576791027679
1658790126143751,-51.91119249256121,-15.045395590142562,27.191577019912984
1658790126159739,-31.89135576409558,-22.49179827573039,22.003509575036105
1658790126175727,-5.523765926604028,-14.496070801861606,14.251926451514464
1658790126191715,27.435721370260126,0.6408789196611906,6.195162890058782
1658790126207703,48.6152437628748,9.796292057679011,-0.8239871824216607
1658790126223691,44.7699702449072,6.500343327992596,-7.11070420386045
1658790126239678,21.45418478675515,-1.4343480582895154,-12.298771648737329
1658790126255666,0.213626306553806,-7.476920729381163,-15.655756466010416
1658790126271654,-11.993591210803288,-11.01701380941472,-19.867246509498727
1658790126287642,-11.20012207217519,-15.10643167772946,-26.337071793697987
1658790126303630,2.655069810025225,-14.251926451514464,-32.867933165484146
1658790126319618,14.80125123979542,-7.843137254901876,-40.1922636758984
1658790126335606,24.444953078507524,-3.7537193865873633,-47.028305485618375
1658790126351594,28.412298771648693,-2.7771419851987957,-52.52155336842907
1658790126367581,27.80193789578084,-4.791332875562603,-57.465476462958804
1658790126383575,27.008468757152514,-6.439307240405924,-61.73800259403379
1658790126399563,20.904859998473967,-8.026245517662346,-66.25467307545591
1658790126415551,13.45845731288614,-7.904173342488775,-72.23620965896089
1658790126431539,17.975127794308264,-6.317235065232353,-77.05806057831683
1658790126447527,19.80621042191183,-6.439307240405924,-81.51369497215228
1658790126463514,18.58548867017612,-7.782101167315204,-89.08216983291368
1658790126479502,28.595407034408936,-5.096513313496644,-96.83375295643555
1658790126495490,32.501716639963206,-3.2654306858930795,-100.74006256198982
1658790126511478,30.243381399252257,-4.42511635004189,-102.51010910200671
1658790126527466,36.408026245517476,-6.256198977645454,-104.82948043030456
1658790126543454,36.83527885862509,-5.462729839017356,-109.10200656137954
1658790126559442,38.23910887312104,-4.730296787975931,-113.06935225452048
1658790126575430,41.22987716487364,-6.317235065232353,-113.98489356832238
1658790126591417,34.02761882963296,-7.721065079728305,-113.13038834210738
1658790126607405,19.073777370870403,-7.537956816968062,-111.54345006485096
1658790126623393,25.48256656748299,-6.622415503166167,-113.06935225452048
1658790126639381,38.42221713588151,-4.9134050507361735,-112.45899137865263
1658790126655369,32.74586099031035,-6.378271152819025,-104.64637216754409
1658790126671357,24.994277866788707,-2.410925459678083,-102.02182040131243
1658790126687345,22.980086976424673,2.7771419851987957,-107.9423208972305
1658790126703308,29.938200961318216,0.5188067444876197,-112.82520790417334
1658790126719296,23.102159151598244,1.3122758831159445,-109.04097047379264
1658790126735283,21.57625696192872,4.974441138323073,-105.9281300068667
1658790126751271,22.186617837796575,2.7771419851987957,-105.50087739375908
1658790126767259,24.689097428854666,0.5798428320745188,-102.26596475165957
1658790126783247,29.816128786144645,5.706874189364498,-100.86213473716339
1658790126799235,29.022659647516548,9.613183794918768,-104.95155260547813
1658790126815223,29.877164873731545,9.063859006637585,-104.1580834668498
1658790126831211,26.214999618524416,10.101472495613052,-95.00267032883198
1658790126847199,18.58548867017612,14.129854276340893,-91.09636072327748
1658790126863186,20.294499122606112,17.60891126878755,-95.85717555504698
1658790126879174,26.947432669565842,12.359807736324,-96.83375295643555
1658790126895162,24.933241779201808,6.317235065232353,-89.87563897154178
1658790126911150,9.002822919050914,7.4158846417944915,-82.2461280231937
1658790126927138,-1.5564202334630863,14.618142977035177,-81.75783932249942
1658790126943126,5.584802014190927,21.210040436408008,-83.58892195010299
1658790126959114,18.158236057068734,20.05035477225897,-80.53711757076371
1658790126975102,20.294499122606112,11.810482948043045,-74.12832837415112
1658790126991089,8.941786831464015,13.824673838406852,-72.35828183413446
1658790127007077,-5.76791027695117,20.660715648126825,-75.5321583886473
1658790127023071,-1.5564202334630863,23.163195239185143,-77.79049362935825
1658790127039059,11.810482948043045,16.08300907911803,-74.86076142519255
1658790127055047,17.975127794308264,8.880750743877343,-68.69611657892733
1658790127071035,13.336385137712568,13.58052948805971,-66.92607003891044
1658790127087022,11.261158159761862,20.294499122606112,-68.32990005340662
1658790127103010,17.730983443961122,20.599679560540153,-67.65850308995186
1658790127118998,17.42580300602731,16.32715342946517,-64.1184100099183
1658790127134986,13.519493400473038,14.740215152208748,-62.653543907835456
1658790127150974,6.744487678339738,15.167467765316132,-66.01052872510877
1658790127166962,6.378271152819025,14.007782101167322,-67.71953917753876
1658790127182950,7.11070420386045,12.23773556115043,-62.22629129472807
1658790127198938,7.354848554207592,15.167467765316132,-55.08506904707406
1658790127214925,3.814755474174035,17.853055619134693,-51.97222858014811
1658790127230913,2.04470893415737,16.02197299153113,-51.17875944151979
1658790127246901,3.570611123826893,10.833905546654478,-50.14114595254455
1658790127262889,12.4208438239109,16.876478217746126,-45.07515068284124
1658790127278877,11.871519035629717,22.003509575036105,-35.492484931716035
1658790127294865,11.261158159761862,18.76859693293659,-29.449912260623933
1658790127310853,15.228503852903032,14.618142977035177,-26.092927443350845
1658790127326841,14.312962539101136,11.139085984588291,-20.294499122606112
1658790127342834,13.76363775082018,11.505302510109004,-14.007782101167322
1658790127358822,10.589761196307336,10.101472495613052,-7.17174029144735
1658790127374810,5.95101853971164,6.256198977645454,2.166781109330941
1658790127390798,1.1902037079423735,3.1433585107195086,10.89494163424115
1658790127406786,-1.4343480582895154,3.875791561760934,18.402380407415876
1658790127422773,-2.5940337224383256,3.0212863355459376,26.7032883192187
1658790127438761,-3.6316472114137923,-1.0681315327688026,34.57694361791391
1658790127454749,-4.852368963149502,-4.058899824521177,41.04676890211317
1658790127470737,-6.134126802471883,-3.936827649347606,47.27244983596529
1658790127486725,-9.002822919050914,-4.669260700389032,54.352635996032404
1658790127502713,-13.275349050125897,-8.209353780422589,61.9211108567938
1658790127518701,-14.557106889448278,-10.772869459067579,69.42854962996898
1658790127534689,-12.909132524605184,-11.01701380941472,74.92179751277945
1658790127550676,-10.467689021133765,-11.871519035629717,80.65918974593751
1658790127566664,-7.660028992141633,-14.557106889448278,87.55626764324415
1658790127582652,-5.584802014190927,-15.533684290836845,94.27023727779078
1658790127598640,-7.660028992141633,-14.92332341496899,98.11551079575793
1658790127614628,-9.002822919050914,-14.496070801861606,100.61799038681647
1658790127630616,-8.758678568703772,-15.228503852903032,104.76844434271788
1658790127646604,-14.312962539101136,-16.815442130159454,110.26169222552835
1658790127662567,-22.369726100556818,-17.914091706721592,114.22903791866929
1658790127678555,-25.116350041962278,-17.79201953154802,116.18219272144643
1658790127694543,-22.125581750209676,-19.317921721217544,118.19638361181069
1658790127710530,-21.51522087434182,-23.224231326771815,119.66124971389354
1658790127726518,-23.529411764705856,-25.848783093003703,122.52994583047212
1658790127742506,-20.843823910887295,-19.745174334325156,125.88693064774543
1658790127758494,-22.369726100556818,-16.08300907911803,128.9997711146716
1658790127774482,-23.590447852292527,-16.1440451667047,128.45044632639065
1658790127790470,-23.95666437781324,-14.435034714274707,126.0700389105059
1658790127806458,-21.759365224688963,-9.369039444571627,125.03242542153066
1658790127822445,-22.369726100556818,-6.317235065232353,125.88693064774543
1658790127838433,-24.13977264057371,-5.828946364538069,125.52071412222494
1658790127854421,-26.947432669565842,-5.401693751430457,124.91035324635686
1658790127870409,-33.72243839169914,-5.0354772259097444,124.66620889600972
1658790127886397,-32.806897077897474,-2.7771419851987957,122.46890974288544
1658790127902385,-22.369726100556818,-1.6784924086366573,118.3794918745707
1658790127918373,-11.810482948043045,-5.76791027695117,114.35111009384309
1658790127934361,-15.472648203250174,-11.383230334935433,113.00831616693358
1658790127950348,-19.317921721217544,-5.76791027695117,112.82520790417357
1658790127966336,-26.153963530937517,3.570611123826893,110.74998092622263
1658790127982330,-34.88212405584818,1.5564202334630863,106.72159914549502
1658790127998318,-42.75577935454339,-8.392462043183059,103.73083085374219
1658790128014306,-46.54001678492409,-8.209353780422589,100.74006256198982
1658790128030294,-43.244068055237676,-4.058899824521177,97.93240253299791
1658790128046281,-35.24834058136889,-0.213626306553806,94.39230945296413
1658790128062269,-35.67559319447628,-1.739528496223329,88.04455634393844
1658790128078257,-35.492484931716035,-1.9226367589837992,81.025406271458
1658790128094245,-29.51094834821083,0.8850232700083325,74.3724727244985
1658790128110233,-20.35553521019301,0.5188067444876197,73.09071488517611
1658790128126221,-15.167467765316132,-0.213626306553806,74.61661707484564
1658790128142209,-16.32715342946517,0.8850232700083325,70.22201876859708
1658790128158197,-21.759365224688963,0.2746623941404778,62.897688258182825
1658790128174184,-33.478294041352,-1.1902037079423735,56.000610360875726
1658790128190172,-43.79339284351886,0.09155413138023505,48.55420767528767
1658790128206160,-45.07515068284124,-0.6408789196611906,42.51163500419602
1658790128222148,-41.71816586556815,-4.730296787975931,41.10780498970007
1658790128238136,-30.914778362706784,-8.880750743877343,38.66636148622865
1658790128254124,-21.087968261234437,-12.4208438239109,31.342030975814396
1658790128270112,-15.10643167772946,-13.275349050125897,22.49179827573039
1658790128286100,-3.4485389486533222,-7.843137254901876,13.702601663233281
1658790128302063,10.955977721828049,1.9226367589837992,5.2185854886702145
1658790128318050,22.79697871366443,4.60822461280236,0.7629510948347615
1658790128334037,25.787747005416804,3.6316472114137923,-2.5940337224383256
1658790128350025,20.294499122606112,3.4485389486533222,-7.843137254901876
1658790128366012,6.012054627298312,1.3733119707026162,-14.129854276340893
1658790128382000,-4.60822461280236,-2.4719615472647547,-20.721751735713724
1658790128397987,-6.012054627298312,-2.5940337224383256,-27.435721370260126
1658790128413974,-2.227817196917613,1.9226367589837992,-33.66140230411247
1658790128429962,6.8665598535133086,5.889982452124741,-37.44563973449317
1658790128445949,17.66994735637445,3.6316472114137923,-40.86366063935316
1658790128461937,27.069504844739413,-0.6408789196611906,-46.11276417181671
1658790128477924,29.449912260623933,-1.3122758831159445,-53.00984206912335
1658790128493911,32.440680552376534,0.8850232700083325,-59.35759517814904
1658790128509899,32.19653620202939,2.7771419851987957,-63.935301747158064
1658790128525886,32.19653620202939,3.875791561760934,-68.45197222858019
1658790128541874,35.30937666895534,-0.213626306553806,-71.6868848706797
1658790128557861,28.717479209582507,-4.486152437628789,-73.21278706034946
1658790128573848,23.773556115052997,-3.2043945983061803,-77.2411688410773
1658790128589836,25.543602655069662,-1.3122758831159445,-82.49027237354085
1658790128605823,29.51094834821083,1.6784924086366573,-87.12901503013654
1658790128621826,26.886396581978943,-0.2746623941404778,-91.03532463569081
1658790128637813,21.14900434882111,-3.875791561760934,-93.29365987640176
1658790128653801,15.716792553597315,-3.570611123826893,-95.49095902952627
1658790128669788,20.35553521019301,-2.04470893415737,-100.3738460364691
1658790128685775,28.717479209582507,-1.4343480582895154,-102.75425345235385
1658790128701763,41.16884107728674,-1.1291676203554744,-102.02182040131243
1658790128717750,44.89204242008077,-1.0070954451819034,-100.06866559853529
1658790128733738,33.905546654459386,-1.5564202334630863,-98.72587167162601
1658790128749725,25.909819180590375,-2.105745021744042,-100.55695429922957
1658790128765712,26.459143968871558,-4.9134050507361735,-102.9373617151141
1658790128781700,28.351262684061794,-3.3875028610666504,-99.09208819714672
1658790128797687,22.79697871366443,1.1902037079423735,-95.00267032883198
1658790128813675,15.411612115663274,5.828946364538069,-97.13893339436959
1658790128829662,19.684138246738257,6.561379415579495,-98.42069123369197
1658790128845649,27.80193789578084,1.8616006713969,-92.6832990005339
1658790128861637,23.102159151598244,2.227817196917613,-84.93171587701227
1658790128877624,20.782787823300396,7.843137254901876,-86.0303654535744
1658790128893612,31.158922713053926,14.435034714274707,-93.96505683985674
1658790128909599,39.70397497520389,12.970168612191856,-96.34546425574126
1658790128925586,42.20645456626221,10.589761196307336,-88.04455634393821
1658790128941589,29.877164873731545,7.721065079728305,-80.47608148317681
1658790128957577,17.42580300602731,8.758678568703772,-83.0395971618218
1658790128973565,9.796292057679011,11.139085984588291,-90.42496375982296
1658790128989553,11.810482948043045,11.505302510109004,-92.07293812466605
1658790129005540,21.820401312275862,13.45845731288614,-84.01617456321037
1658790129021528,27.679865720607268,16.32715342946517,-76.50873579003587
1658790129037516,19.745174334325156,13.702601663233281,-76.93598840314326
1658790129053504,14.068818188753994,10.162508583199724,-80.41504539559014
1658790129069492,10.467689021133765,7.598992904554734,-80.29297322041657
1658790129085480,9.85732814526591,8.880750743877343,-75.10490577553969
1658790129101468,7.598992904554734,13.824673838406852,-70.77134355687804
1658790129117456,6.500343327992596,16.2050812542916,-72.11413748378732
1658790129133443,5.645838101777599,13.275349050125897,-73.3958953231097
1658790129149431,10.833905546654478,10.589761196307336,-69.36751354238186
1658790129165419,17.36476691844041,9.063859006637585,-61.79903868162046
1658790129181407,20.599679560540153,12.176699473563758,-57.404440375371905
1658790129197395,16.998550392919697,11.749446860456146,-58.07583733882666
1658790129213383,9.246967269398056,8.392462043183059,-59.05241474021523
1658790129229371,6.439307240405924,7.965209430075447,-54.5357442587931
1658790129245359,5.096513313496644,12.909132524605184,-50.20218204013122
1658790129261322,3.692683299000464,13.946746013580423,-51.91119249256121
1658790129277309,4.730296787975931,8.51453421835663,-52.033264667734784
1658790129293296,1.6784924086366573,6.439307240405924,-47.7607385366598
1658790129309284,2.04470893415737,13.031204699778755,-44.403753719386714
1658790129325271,4.60822461280236,13.64156557564661,-41.657129777981254
1658790129341259,6.317235065232353,8.941786831464015,-37.933928435187454
1658790129357246,3.0212863355459376,6.8665598535133086,-36.04180971999699
1658790129373233,2.9602502479590385,11.993591210803288,-35.309376668955565
1658790129389221,6.744487678339738,17.36476691844041,-33.5393301289389
1658790129405208,4.303044174868319,14.862287327382319,-30.36545357442583
1658790129421196,2.105745021744042,13.64156557564661,-27.98504615854108
1658790129437183,1.983672846570471,15.167467765316132,-24.505989166094423
1658790129453170,9.979400320439481,20.11139085984587,-16.632333867398984
1658790129469158,10.040436408026153,17.48683909361398,-6.927595941100208
1658790129485145,6.439307240405924,10.955977721828049,0.7019150072480898
1658790129501133,1.983672846570471,7.537956816968062,6.744487678339738
1658790129517120,2.105745021744042,5.401693751430457,12.664988174258042
1658790129533107,1.2512397955290453,0.5188067444876197,18.89066910811016
1658790129549095,-1.2512397955290453,-4.42511635004189,25.543602655069662
1658790129565082,-3.814755474174035,-5.828946364538069,31.219958800640825
1658790129581085,-6.317235065232353,-3.6316472114137923,38.11703669794747
1658790129597072,-9.002822919050914,-3.936827649347606,46.35690852216362
1658790129613060,-8.209353780422589,-5.096513313496644,53.43709468223051
1658790129629047,-12.115663385976859,-6.378271152819025,58.80827038986763
1658790129645034,-13.397421225299468,-5.706874189364498,62.714579995422355
1658790129661022,-14.679179064621849,-7.354848554207592,68.0247196154728
1658790129677009,-14.679179064621849,-11.383230334935433,73.4569314106966
1658790129692997,-15.960936903944457,-16.08300907911803,77.72945754177181
1658790129708984,-10.162508583199724,-15.533684290836845,81.45265888456561
1658790129724971,-8.33142595559616,-14.190890363927565,86.03036545357463
1658790129740959,-8.270389868009488,-14.862287327382319,91.6456855115589
1658790129756946,-10.223544670786623,-15.411612115663274,96.46753643091506
1658790129772934,-16.876478217746126,-15.655756466010416,100.12970168612219
1658790129788921,-24.750133516441565,-16.32715342946517,102.87632562752742
1658790129804908,-31.097886625467254,-17.24269474326684,105.25673304341217
1658790129820896,-37.14045929655913,-17.66994735637445,106.72159914549502
1658790129836883,-41.16884107728697,-18.89066910811016,106.84367132066836
1658790129852871,-33.78347447928604,-19.1348134584573,106.47745479514788
1658790129868858,-26.153963530937517,-17.54787518120088,107.33196002136265
1658790129884845,-21.637293049515392,-14.068818188753994,107.33196002136265
1658790129900817,-21.820401312275862,-13.214312962538997,108.97993438620597
1658790129916805,-23.041123064011572,-14.435034714274707,109.89547570000786
1658790129932792,-22.8580148012511,-12.909132524605184,105.50087739375931
1658790129948780,-25.116350041962278,-7.17174029144735,100.00762951094839
1658790129964767,-25.787747005416804,-5.279621576256886,99.33623254749364
1658790129980754,-21.39314869916825,-6.195162890058782,100.19073777370886
1658790129996742,-15.533684290836845,-5.828946364538069,101.53353170061791
1658790130012729,-14.129854276340893,-4.303044174868319,102.75425345235362
1658790130028717,-18.524452582589447,-2.4719615472647547,96.95582513160934
1658790130044704,-21.637293049515392,3.0212863355459376,88.04455634393844
1658790130060691,-22.49179827573039,1.739528496223329,83.71099412527656
1658790130076679,-11.627374685282575,-6.561379415579495,88.83802548256654
1658790130092666,-17.60891126878755,-13.519493400473038,97.56618600747697
1658790130108654,-32.806897077897474,-10.528725108720437,97.81033035782411
1658790130124641,-37.56771190966674,-6.805523765926637,83.71099412527656
1658790130140628,-26.092927443350845,-4.669260700389032,76.5087357900361
1658790130156616,-10.711833371480907,-2.8992141603723667,80.59815365835084
1658790130172603,-0.8850232700083325,-3.0212863355459376,85.96932936598796
1658790130188591,-6.195162890058782,-2.655069810025225,87.06797894254987
1658790130204578,-29.022659647516548,-6.012054627298312,81.75783932249942
1658790130220550,-59.35759517814904,-10.162508583199724,71.80895704585373
1658790130236538,-68.8181887541009,-10.467689021133765,64.72877088578662
1658790130252525,-48.554207675288126,-3.7537193865873633,64.24048218509233
1658790130268512,-24.933241779201808,0.45777065690094787,65.2170595864809
1658790130284500,-14.557106889448278,1.739528496223329,64.05737392233186
1658790130300487,-11.444266422522333,2.288853284504512,61.43282215609952
1658790130316475,-11.810482948043045,0.213626306553806,60.57831692988475
1658790130332462,-13.946746013580423,-1.2512397955290453,58.258945601586674
1658790130348449,-16.2050812542916,-1.3733119707026162,52.82673380636288
1658790130364437,-17.36476691844041,-1.5564202334630863,51.850156404974314
1658790130380424,-14.007782101167322,-0.33569848172737693,53.00984206912335
1658790130396412,-11.01701380941472,1.4953841458761872,49.89700160219718
1658790130412399,-8.941786831464015,4.974441138323073,45.319295033188155
1658790130428386,-4.852368963149502,8.575570305943302,42.633707179369594
1658790130444374,-2.3498893720911838,11.07804989700162,42.45059891660935
1658790130460361,-0.45777065690094787,10.711833371480907,43.18303196765078
1658790130476349,-14.496070801861606,8.026245517662346,40.55848020141889
1658790130492336,-32.13550011444272,4.180971999694748,36.591134508277946
1658790130508323,-38.23910887312127,2.532997634851654,32.80689707789725
1658790130524311,-30.792706187533213,3.997863736934505,30.54856183718607
1658790130540313,-17.60891126878755,7.049668116273779,30.182345311665358
1658790130556301,-10.650797283894008,8.575570305943302,26.947432669565842
1658790130572288,-11.932555123216616,8.941786831464015,19.867246509498727
1658790130588276,-19.562066071564686,7.537956816968062,13.45845731288614
1658790130604263,-32.623788815137004,2.532997634851654,8.941786831464015
1658790130620250,-42.999923704890534,-3.997863736934505,4.364080262455218
1658790130636238,-37.994964522774126,-5.828946364538069,-0.15259021896690683
1658790130652225,-16.937514305333025,-2.8381780727854675,-4.42511635004189
1658790130668213,9.55214770733187,1.2512397955290453,-9.246967269398056
1658790130684200,28.96162355992965,5.645838101777599,-14.862287327382319
1658790130700187,34.88212405584795,5.096513313496644,-19.9893186846723
1658790130716175,30.060273136491787,1.3733119707026162,-24.567025253681095
1658790130732162,22.61387045090396,-0.03051804379333589,-28.96162355992965
1658790130748149,20.294499122606112,-0.9460593575952316,-32.07446402685605
1658790130764137,16.32715342946517,-2.227817196917613,-35.309376668955565
1658790130780124,12.4208438239109,-4.486152437628789,-38.54428931105531
1658790130796112,15.350576028076603,-5.2185854886702145,-42.02334630350197
1658790130812099,23.468375677118956,-1.8005645838102282,-48.249027237354085
1658790130828086,29.999237048905115,-1.1291676203554744,-53.559166857404534
1658790130844074,29.633020523384403,-5.3406576638437855,-54.840924696726915
1658790130860077,34.33279926756677,-5.645838101777599,-56.85511558709095
1658790130876064,38.30014496070794,-5.279621576256886,-61.432822156099746
1658790130892051,30.853742275120112,-7.721065079728305,-66.07156481269544
1658790130908039,24.26184481574728,-9.979400320439481,-71.44274052033256
1658790130924026,17.66994735637445,-12.787060349431613,-75.95941100175469
1658790130940014,22.430762188143717,-10.162508583199724,-79.56054016937514
1658790130956001,29.694056610971074,-6.134126802471883,-83.52788586251609
1658790130971988,27.008468757152514,-6.500343327992596,-89.20424200808725
1658790130987976,19.9893186846723,-11.749446860456146,-95.06370641641888
1658790131003963,15.838864728770886,-15.411612115663274,-99.5193408102541
1658790131019950,15.838864728770886,-16.1440451667047,-102.02182040131243
1658790131035938,18.76859693293659,-13.45845731288614,-106.23331044480051
1658790131051925,30.182345311665358,-8.575570305943302,-111.42137788967739
1658790131067913,42.45059891660935,-10.223544670786623,-113.31349660486762
1658790131083900,46.90623331044458,-10.528725108720437,-113.37453269245452
1658790131099887,47.45555809872576,-7.232776379034021,-113.67971313038834
1658790131115875,45.13618677042791,-6.500343327992596,-113.19142442969405
1658790131131862,29.999237048905115,-11.871519035629717,-110.20065613794168
1658790131147850,12.176699473563758,-8.697642481116873,-107.0878156710155
1658790131163837,9.796292057679011,-1.0070954451819034,-109.89547570000764
1658790131179809,23.407339589532285,2.410925459678083,-112.5810635538262
1658790131195797,32.99000534065749,-0.213626306553806,-108.30853742275121
1658790131211784,26.52018005645823,-2.3498893720911838,-100.25177386129553
1658790131227771,9.55214770733187,0.6408789196611906,-99.2141603723203
1658790131243759,9.73525597009234,5.584802014190927,-103.05943389028766
1658790131259746,28.534370946822264,3.5095750362402214,-99.94659342336172
1658790131275734,42.877851529716736,6.012054627298312,-88.28870069428535
1658790131291721,37.9949645227739,8.51453421835663,-82.79545281147466
1658790131307708,24.872205691615136,9.918364232852582,-87.86144808117797
1658790131323696,21.026932173647538,9.002822919050914,-90.6691081101701
1658790131339683,21.210040436408008,8.758678568703772,-84.62653543907822
1658790131355671,15.594720378423744,8.758678568703772,-77.2411688410773
1658790131371658,18.219272144655406,9.063859006637585,-77.72945754177158
1658790131387645,14.80125123979542,9.85732814526591,-77.72945754177158
1658790131403633,9.67421988250544,12.542915999084471,-78.33981841763944
1658790131419620,11.932555123216616,11.810482948043045,-79.37743190661467
1658790131435608,14.557106889448278,8.33142595559616,-74.06729228656445
1658790131451595,13.092240787365427,10.955977721828049,-68.63508049134043
1658790131467582,9.185931181811156,15.350576028076603,-71.99206530861375
1658790131483570,16.1440451667047,13.214312962538997,-77.36324101625087
1658790131499572,21.637293049515392,10.406652933546866,-74.2504005493247
1658790131515560,20.294499122606112,12.115663385976859,-66.80399786373687
1658790131531547,14.312962539101136,12.726024261844714,-65.8884565499352
1658790131547535,9.67421988250544,12.909132524605184,-66.98710612649734
1658790131563522,8.148317692835917,9.55214770733187,-66.98710612649734
1658790131579509,10.162508583199724,8.209353780422589,-67.9636835278859
1658790131595497,10.833905546654478,10.345616845960194,-67.10917830167091
1658790131611484,12.4208438239109,11.871519035629717,-65.58327611200116
1658790131627472,11.932555123216616,10.467689021133765,-64.42359044785235
1658790131643459,4.730296787975931,8.209353780422589,-61.249713893339504
1658790131659446,-1.4343480582895154,11.749446860456146,-57.64858472571905
1658790131675434,0.9460593575952316,15.838864728770886,-56.42786297398334
1658790131691421,4.791332875562603,12.23773556115043,-54.840924696726915
1658790131707409,10.772869459067579,9.185931181811156,-51.17875944151979
1658790131723396,13.153276874952326,13.76363775082018,-45.563439383535524
1658790131739383,5.645838101777599,15.777828641183987,-40.86366063935316
1658790131755371,3.692683299000464,17.24269474326684,-38.84946974898912
1658790131771358,10.040436408026153,18.097199969481835,-34.94316014343485
1658790131787346,15.472648203250174,18.463416495002548,-29.08369573510322
1658790131803333,12.726024261844714,19.9282825970854,-21.881437399862534
1658790131819336,5.523765926604028,16.2050812542916,-13.275349050125897
1658790131835323,2.4719615472647547,12.848096437018285,-5.462729839017356
1658790131851310,6.134126802471883,9.67421988250544,1.1902037079423735
1658790131867298,11.383230334935433,7.782101167315204,8.45349813076973
1658790131883285,4.119935912108076,4.730296787975931,17.42580300602731
1658790131899273,-4.60822461280236,0.8850232700083325,25.17738612954895
1658790131915260,-8.880750743877343,-0.8239871824216607,30.670634012359642
1658790131931247,-5.828946364538069,2.166781109330941,37.07942320897223
1658790131947235,-6.927595941100208,1.6174563210497581,46.41794460975029
1658790131963222,-9.979400320439481,-0.7629510948347615,53.68123903257765
1658790131979210,-13.885709925993751,-3.1433585107195086,60.51728084229762
1658790131995197,-12.298771648737329,-3.875791561760934,64.91187914854663
1658790132011184,-11.932555123216616,-5.523765926604028,69.24544136720851
1658790132027172,-11.810482948043045,-9.246967269398056,73.70107576104374
1658790132043159,-13.702601663233281,-12.848096437018285,77.85152971694515
1658790132059147,-15.533684290836845,-14.129854276340893,82.00198367284656
1658790132075134,-16.998550392919697,-16.571297779812312,88.28870069428558
1658790132091121,-18.463416495002548,-18.76859693293659,94.5754177157246
1658790132107109,-24.13977264057371,-19.745174334325156,98.4206912336922
1658790132123096,-27.069504844739413,-19.9282825970854,100.434882124056
1658790132139068,-24.994277866788707,-22.369726100556818,103.85290302891599
1658790132155056,-24.383916990920852,-26.58121614404513,109.10200656137931
1658790132171043,-28.96162355992965,-29.877164873731545,111.848630502785
1658790132187030,-33.41725795376533,-31.830319676508907,113.4355687800412
1658790132203018,-32.25757228961629,-34.69901579308771,114.47318226901643
1658790132219005,-30.121309224078686,-37.44563973449317,116.97566186007498
1658790132234993,-29.633020523384403,-36.713206683451745,118.19638361181069
1658790132250980,-27.191577019912984,-30.243381399252257,118.01327534905022
1658790132266967,-23.7125200274661,-27.557793545433697,118.56260013733117
1658790132282955,-24.07873655298681,-26.39810788128466,118.98985275043879
1658790132298942,-27.679865720607268,-21.51522087434182,118.07431143663689
1658790132314930,-27.435721370260126,-17.42580300602731,114.71732661936358
1658790132330917,-19.1348134584573,-14.068818188753994,109.22407873655311
1658790132346904,-15.777828641183987,-13.275349050125897,109.46822308690025
1658790132362892,-18.097199969481835,-15.716792553597315,112.5200274662393
1658790132378879,-18.463416495002548,-14.557106889448278,106.96574349584216
1658790132394867,-15.777828641183987,-9.85732814526591,95.91821164263365
1658790132410854,-10.650797283894008,-6.195162890058782,92.25604638742652
1658790132426841,-4.303044174868319,-6.561379415579495,93.90402075226984
1658790132442829,0.7019150072480898,-6.134126802471883,99.82452124818792
1658790132458831,-12.4208438239109,-2.7771419851987957,100.434882124056
1658790132474819,-29.877164873731545,-4.9134050507361735,92.13397421225318
1658790132490806,-39.093614099336264,-8.270389868009488,83.1616693369956
1658790132506794,-35.79766536964985,-5.95101853971164,79.19432364385466
1658790132522781,-18.036163881895163,0.2746623941404778,81.39162279697894
1658790132538768,-3.3875028610666504,6.073090714885211,80.04882887006943
1658790132554756,-10.528725108720437,3.2043945983061803,75.16594186312659
1658790132570743,-25.848783093003703,-4.669260700389032,72.7855344472423
1658790132586731,-28.96162355992965,-6.805523765926637,73.21278706034946
1658790132602718,-15.167467765316132,-0.6408789196611906,70.9544518196385
1658790132618705,-4.669260700389032,5.096513313496644,67.10917830167091
1658790132634693,-13.45845731288614,0.8850232700083325,65.15602349889377
1658790132650680,-21.820401312275862,-2.410925459678083,63.44701304646378
1658790132666668,-20.904859998473967,-3.3875028610666504,61.49385824368619
1658790132682655,-20.477607385366582,0.6408789196611906,58.74723430228096
1658790132698642,-32.37964446478986,-0.45777065690094787,55.390249485007644
1658790132714630,-39.15465018692316,1.2512397955290453,51.5449759670405
1658790132730617,-40.13122758831173,4.9134050507361735,48.79835202563481
1658790132746605,-41.0467689021134,4.547188525215461,46.41794460975029
1658790132762592,-45.92965590905624,-1.3733119707026162,43.67132066834506
1658790132778595,-46.9672693980317,-3.6316472114137923,39.94811932555103
1658790132794582,-37.81185626001388,-2.105745021744042,36.285954070343905
1658790132810569,-22.49179827573039,0.6408789196611906,31.036850537880355
1658790132826557,-4.974441138323073,4.486152437628789,23.407339589532285
1658790132842544,5.76791027695117,5.645838101777599,16.815442130159454
1658790132858532,5.76791027695117,3.6316472114137923,11.20012207217519
1658790132874519,-1.983672846570471,-0.7019150072480898,3.936827649347606
1658790132890506,-8.026245517662346,-3.5095750362402214,-4.364080262455218
1658790132906494,-4.730296787975931,-4.42511635004189,-11.505302510109004
1658790132922481,3.814755474174035,-4.364080262455218,-18.76859693293659
1658790132938469,10.89494163424115,-2.4719615472647547,-24.26184481574728
1658790132954456,15.655756466010416,0.45777065690094787,-28.412298771648693
1658790132970443,20.416571297779683,1.0070954451819034,-34.027618829633184
1658790132986431,20.294499122606112,0.7019150072480898,-40.741588464179586
1658790133002418,16.876478217746126,0.15259021896690683,-47.63866636148623
1658790133018406,13.275349050125897,-2.8381780727854675,-54.35263599603263
1658790133034393,10.955977721828049,-5.584802014190927,-58.19790951400023
1658790133050380,15.411612115663274,-3.6316472114137923,-62.836652170595926
1658790133066368,25.787747005416804,-1.5564202334630863,-69.55062180514233
1658790133082355,29.14473182269012,-2.7771419851987957,-76.63080796520944
1658790133098327,26.031891355763946,-2.8381780727854675,-82.00198367284656
1658790133114315,36.89631494621176,0.5188067444876197,-84.38239108873108
1658790133130302,50.690470740825276,3.6316472114137923,-88.34973678187225
1658790133146289,46.723125047684334,0.03051804379333589,-93.17158770122819
1658790133162277,30.792706187533213,-1.6174563210497581,-97.56618600747697
1658790133178264,22.79697871366443,-3.3264667734797513,-100.31280994888243
1658790133194252,22.552834363317288,-3.997863736934505,-102.20492866407267
1658790133210239,26.459143968871558,-3.7537193865873633,-108.12542915999097
1658790133226226,32.74586099031035,-1.3733119707026162,-114.16800183108262
1658790133242214,39.21568627450961,5.584802014190927,-115.63286793316547
1658790133258201,39.39879453727008,4.730296787975931,-112.09277485313191
1658790133274189,29.51094834821083,-2.227817196917613,-109.34615091172668
1658790133290176,29.694056610971074,-7.843137254901876,-107.69817654688336
1658790133306163,32.62378881513678,-1.8616006713969,-103.60875867856885
1658790133322151,32.562752727550105,7.782101167315204,-103.91393911650266
1658790133338138,32.92896925307082,7.17174029144735,-107.63714045929669
1658790133354126,30.182345311665358,-0.8850232700083325,-102.63218127718028
1658790133370113,18.524452582589447,-2.288853284504512,-93.78194857709627
1658790133386100,5.2185854886702145,4.364080262455218,-94.5754177157246
1658790133402088,12.848096437018285,5.645838101777599,-101.289387350271
1658790133418090,21.33211261158158,-1.739528496223329,-98.3596551461053
1658790133434078,18.219272144655406,-0.9460593575952316,-88.47180895704582
1658790133450065,3.1433585107195086,4.547188525215461,-87.31212329289679
1658790133466053,1.1291676203554744,9.67421988250544,-93.35469596398866
1658790133482040,11.261158159761862,10.406652933546866,-95.24681467917912
1658790133498027,18.219272144655406,6.073090714885211,-90.73014419775677
1658790133514015,11.444266422522333,8.51453421835663,-83.34477759975584
1658790133530002,5.95101853971164,13.519493400473038,-82.00198367284656
1658790133545990,12.4208438239109,15.777828641183987,-87.12901503013654
1658790133561977,18.097199969481835,11.993591210803288,-86.94590676737607
1658790133577964,19.623102159151586,10.040436408026153,-81.26955062180514
1658790133593952,18.158236057068734,13.824673838406852,-77.11909666590373
1658790133609939,15.350576028076603,16.44922560463874,-77.11909666590373
1658790133625927,19.195849546043974,15.411612115663274,-78.0346379797054
1658790133641914,14.618142977035177,12.054627298390187,-73.15175097276256
1658790133657901,3.2043945983061803,12.359807736324,-69.6726939803159
1658790133673889,-7.843137254901876,16.26611734187827,-70.64927138170447
1658790133689876,-4.730296787975931,17.42580300602731,-69.79476615548947
1658790133705864,7.17174029144735,15.594720378423744,-66.92607003891044
1658790133721851,18.76859693293659,15.899900816357558,-61.98214694438093
1658790133737854,15.960936903944457,16.998550392919697,-56.122682536049524
1658790133753841,15.472648203250174,17.059586480506596,-57.16029602502476
1658790133769828,19.501029983978015,15.045395590142562,-60.39520866712451
1658790133785816,24.750133516441565,14.98435950255589,-59.1134508278019
1658790133801803,22.980086976424673,15.045395590142562,-55.20714122224763
1658790133817791,16.2050812542916,18.158236057068734,-54.35263599603263
1658790133833778,7.17174029144735,15.472648203250174,-54.41367208361953
1658790133849765,-1.0070954451819034,13.885709925993751,-55.26817730983453
1658790133865753,-2.4719615472647547,16.571297779812312,-54.04745555809882
1658790133881740,0.45777065690094787,20.416571297779683,-49.22560463874265
1658790133897728,-0.3967345693140487,19.623102159151586,-45.563439383535524
1658790133913715,0.15259021896690683,13.214312962538997,-44.647898069733856
1658790133929702,6.195162890058782,9.430075532158298,-44.70893415732053
1658790133945690,12.848096437018285,13.519493400473038,-42.57267109178315
1658790133961677,20.721751735713724,18.70756084534969,-38.48325322346841
1658790133977665,22.552834363317288,17.059586480506596,-34.027618829633184
1658790133993652,17.059586480506596,15.10643167772946,-30.792706187533213
1658790134009639,8.392462043183059,16.571297779812312,-26.337071793697987
1658790134025627,3.1433585107195086,18.158236057068734,-21.942473487449433
1658790134041614,2.8992141603723667,15.594720378423744,-16.937514305333025
1658790134057586,1.6784924086366573,9.430075532158298,-8.575570305943302
1658790134073574,0.5798428320745188,6.439307240405924,0.9460593575952316
1658790134089561,-5.3406576638437855,4.60822461280236,11.20012207217519
1658790134105548,-4.547188525215461,1.3122758831159445,20.660715648126825
1658790134121536,-1.4343480582895154,-3.4485389486533222,30.36545357442583
1658790134137523,-2.3498893720911838,-5.157549401083315,38.78843366140222
1658790134153511,-10.223544670786623,-5.3406576638437855,46.47898069733719
1658790134169498,-15.10643167772946,-4.791332875562603,53.00984206912335
1658790134185485,-19.378957808804444,-6.012054627298312,58.38101777676047
1658790134201473,-19.9893186846723,-7.476920729381163,62.59250782024901
1658790134217460,-18.341344319828977,-5.95101853971164,67.04814221408424
1658790134233448,-14.679179064621849,-5.157549401083315,72.11413748378754
1658790134249435,-14.190890363927565,-7.354848554207592,77.97360189211895
1658790134265422,-17.914091706721592,-11.07804989700162,84.99275196459939
1658790134281410,-17.181658655680167,-11.871519035629717,90.24185549706272
1658790134297397,-14.740215152208748,-12.726024261844714,94.14816510261699
1658790134313385,-15.10643167772946,-15.10643167772946,96.89478904402222
1658790134329372,-16.876478217746126,-15.777828641183987,99.2141603723203
1658790134345359,-19.1348134584573,-14.496070801861606,102.75425345235362
1658790134361347,-23.041123064011572,-11.810482948043045,106.17227435721361
1658790134377349,-29.938200961318216,-11.383230334935433,108.55268177309836
1658790134393337,-31.525139238574866,-12.23773556115043,109.22407873655311
1658790134409324,-31.586175326161765,-15.594720378423744,109.22407873655311
1658790134425312,-32.806897077897474,-17.42580300602731,110.32272831311502
1658790134441299,-33.844510566872714,-18.158236057068734,112.33691920347928
1658790134457286,-31.647211413748437,-20.782787823300396,115.449759670405
1658790134473274,-30.792706187533213,-25.29945830472252,115.93804837109928
1658790134489261,-30.243381399252257,-25.23842221713585,113.55764095521499
1658790134505249,-29.51094834821083,-20.965896086060866,110.99412527656978
1658790134521236,-25.116350041962278,-16.876478217746126,109.46822308690025
1658790134537223,-24.26184481574728,-15.960936903944457,109.7123674372474
1658790134553211,-28.04608224612798,-18.76859693293659,110.62790875104929
1658790134569198,-32.806897077897474,-16.937514305333025,110.8110170138093
1658790134585186,-34.51590753032747,-12.787060349431613,109.22407873655311
1658790134601173,-27.86297398336751,-10.284580758373295,108.06439307240407
1658790134617160,-25.909819180590375,-10.650797283894008,108.55268177309836
1658790134633148,-30.670634012359642,-13.64156557564661,107.8812848096436
1658790134649135,-29.877164873731545,-12.4208438239109,103.48668650339505
1658790134665123,-10.89494163424115,-5.76791027695117,97.07789730678269
1658790134681110,5.828946364538069,1.2512397955290453,98.78690775921268
1658790134697113,-0.7629510948347615,-4.9134050507361735,103.3646143282217
1658790134713100,-11.505302510109004,-9.613183794918768,103.3646143282217
1658790134729087,-29.022659647516548,-8.941786831464015,95.00267032883221
1658790134745075,-49.774929427023835,-5.279621576256886,83.22270542458227
1658790134761062,-52.64362554360264,-4.547188525215461,76.02044708934181
1658790134777050,-32.623788815137004,-4.242008087281647,77.79049362935848
1658790134793037,-6.561379415579495,-3.4485389486533222,85.96932936598796
1658790134809024,1.4953841458761872,4.119935912108076,88.71595330739319
1658790134825012,-16.1440451667047,5.95101853971164,79.49950408178847
1658790134840999,-30.975814450293683,3.2043945983061803,68.26886396581995
1658790134856987,-34.45487144274057,0.7629510948347615,62.77561608300948
1658790134872974,-29.08369573510322,1.3122758831159445,61.79903868162046
1658790134888961,-26.52018005645823,-7.11070420386045,64.11841000991853
1658790134904949,-37.2625314717327,-9.491111619745197,62.897688258182825
1658790134920936,-54.29159990844596,-8.6366063935302,55.45128557259477
1658790134936924,-54.779888609140244,-7.2938124666209205,48.06591897459339
1658790134952911,-42.32852674143601,-2.166781109330941,43.18303196765078
1658790134968898,-27.80193789578084,6.195162890058782,37.9949645227739
1658790134984886,-22.919050888838,10.89494163424115,30.54856183718607
1658790135000873,-31.342030975814623,8.51453421835663,23.590447852292527
1658790135016845,-42.81681544213029,-1.8005645838102282,20.843823910887295
1658790135032833,-48.92042420080884,-9.613183794918768,19.073777370870403
1658790135048820,-43.67132066834529,-8.148317692835917,12.054627298390187
1658790135064808,-27.008468757152514,-2.655069810025225,3.2043945983061803
1658790135080795,-8.209353780422589,1.4953841458761872,-3.2654306858930795
1658790135096782,9.308003356984727,4.486152437628789,-8.51453421835663
1658790135112770,19.80621042191183,3.936827649347606,-12.542915999084471
1658790135128757,24.444953078507524,1.2512397955290453,-15.838864728770886
1658790135144744,23.529411764705856,-3.0212863355459376,-21.637293049515392
1658790135160732,24.26184481574728,-6.439307240405924,-28.778515297169406
1658790135176719,26.459143968871558,-6.561379415579495,-36.04180971999699
1658790135192707,28.351262684061794,-6.012054627298312,-43.61028458075839
1658790135208694,29.08369573510322,-2.8381780727854675,-50.7515068284124
1658790135224681,28.96162355992965,1.2512397955290453,-56.79407949950405
1658790135240669,26.092927443350845,0.7019150072480898,-62.1042191195545
1658790135256656,19.745174334325156,-3.3875028610666504,-67.9636835278859
1658790135272644,10.955977721828049,-7.11070420386045,-72.96864271000231
1658790135288631,16.876478217746126,-5.096513313496644,-77.60738536659801
1658790135304618,26.276035706111088,-3.2654306858930795,-84.19928282597084
1658790135320606,24.200808728160382,-3.5095750362402214,-90.42496375982296
1658790135336609,24.444953078507524,-3.0212863355459376,-95.91821164263388
1658790135352596,34.821087968261054,0.03051804379333589,-99.1531242847334
1658790135368583,43.61028458075816,-0.5188067444876197,-98.3596551461053
1658790135384571,38.60532539864175,-4.730296787975931,-98.23758297093173
1658790135400558,39.82604715037746,-5.889982452124741,-98.2986190585184
1658790135416545,43.24406805523745,-3.1433585107195086,-96.71168078126198
1658790135432533,40.61951628900579,0.03051804379333589,-97.5051499198903
1658790135448520,36.95735103379866,1.4343480582895154,-99.70244907301458
1658790135464508,24.444953078507524,-0.8850232700083325,-100.31280994888243
1658790135480495,18.524452582589447,-0.2746623941404778,-98.42069123369197
1658790135496482,14.557106889448278,2.410925459678083,-95.55199511711317
1658790135512470,16.08300907911803,3.2043945983061803,-96.52857251850173
1658790135528457,19.745174334325156,0.3967345693140487,-99.27519645990697
1658790135544445,20.477607385366582,-1.4343480582895154,-99.03105210955982
1658790135560432,18.70756084534969,2.8381780727854675,-95.06370641641888
1658790135576419,25.05531395437538,7.965209430075447,-93.47676813916223
1658790135592407,35.065232318608196,6.622415503166167,-95.67406729228674
1658790135608394,31.83031967650868,5.0354772259097444,-92.56122682536034
1658790135624382,26.82536049439227,8.33142595559616,-89.87563897154178
1658790135640369,17.48683909361398,14.740215152208748,-90.6691081101701
1658790135656341,21.942473487449433,16.510261692225413,-89.32631418326082
1658790135672329,24.01770046540014,11.01701380941472,-82.55130846112752
1658790135688316,22.186617837796575,10.162508583199724,-78.15671015487897
1658790135704303,16.388189517051842,13.153276874952326,-78.52292668039968
1658790135720291,20.477607385366582,15.655756466010416,-83.0395971618218
1658790135736278,26.82536049439227,15.289539940489703,-83.16166933699537
1658790135752266,25.543602655069662,13.092240787365427,-77.36324101625087
1658790135768253,22.67490653849086,14.862287327382319,-75.10490577553969
1658790135784240,16.02197299153113,19.073777370870403,-78.461890592813
1658790135800228,12.542915999084471,16.754406042572555,-83.58892195010299
1658790135816215,18.82963302052326,11.505302510109004,-85.60311284046679
1658790135832203,20.294499122606112,15.472648203250174,-78.0346379797054
1658790135848190,13.397421225299468,18.58548867017612,-69.48958571755543
1658790135864177,12.970168612191856,17.60891126878755,-72.48035400930803
1658790135880165,13.336385137712568,15.10643167772946,-76.02044708934159
1658790135896152,14.98435950255589,12.970168612191856,-72.90760662241541
1658790135912140,15.960936903944457,15.838864728770886,-66.37674525062948
1658790135928127,11.993591210803288,17.66994735637445,-62.714579995422355
1658790135944114,8.33142595559616,16.08300907911803,-61.615930418860216
1658790135960102,5.401693751430457,14.129854276340893,-61.493858243686645
1658790135976104,3.3264667734797513,14.068818188753994,-59.72381170366975
1658790135992092,0.2746623941404778,16.571297779812312,-56.366826886396666
1658790136008079,-4.9134050507361735,14.80125123979542,-55.939574273289054
1658790136024067,-11.444266422522333,8.880750743877343,-57.22133211261166
1658790136040054,-11.749446860456146,7.2938124666209205,-55.51232166018167
1658790136056041,-6.500343327992596,13.946746013580423,-48.49317158770123
1658790136072029,-8.758678568703772,18.219272144655406,-41.29091325246054
1658790136088016,-11.627374685282575,17.79201953154802,-36.957351033798886
1658790136104004,-9.063859006637585,18.036163881895163,-31.647211413748437
1658790136119991,6.317235065232353,23.590447852292527,-26.092927443350845
1658790136135978,12.787060349431613,24.505989166094423,-21.210040436408008
1658790136151966,8.758678568703772,21.57625696192872,-18.036163881895163
1658790136167953,7.049668116273779,17.36476691844041,-14.618142977035177
1658790136183941,2.7161058976118966,12.4208438239109,-8.45349813076973
1658790136199928,-2.3498893720911838,9.063859006637585,-1.8616006713969
1658790136215915,-3.3875028610666504,6.927595941100208,4.547188525215461
1658790136231903,-3.3875028610666504,2.4719615472647547,11.261158159761862
1658790136247890,-3.5095750362402214,-0.15259021896690683,19.9893186846723
1658790136263877,-6.500343327992596,-0.5188067444876197,30.121309224078686
1658790136279865,-10.955977721828049,-0.5188067444876197,39.52086671244365
1658790136295837,-11.505302510109004,-2.04470893415737,45.5634393835353
1658790136311824,-7.4158846417944915,-2.227817196917613,48.98146028839528
1658790136327812,-6.500343327992596,-4.42511635004189,53.98641947051192
1658790136343799,-5.645838101777599,-5.3406576638437855,59.35759517814904
1658790136359787,-4.9134050507361735,-7.11070420386045,65.8884565499352
1658790136375774,-4.303044174868319,-10.589761196307336,70.58823529411802
1658790136391761,-5.0354772259097444,-12.481879911497572,73.02967879758944
1658790136407749,-9.063859006637585,-12.603952086671143,76.02044708934181
1658790136423736,-12.909132524605184,-12.542915999084471,82.12405584802036
1658790136439724,-17.853055619134693,-14.80125123979542,90.79118028534367
1658790136455711,-22.308690012970146,-15.960936903944457,96.40650034332793
1658790136471698,-18.402380407415876,-14.496070801861606,99.5193408102541
1658790136487686,-16.876478217746126,-15.838864728770886,103.85290302891599
1658790136503673,-18.219272144655406,-20.17242694743254,107.27092393377598
1658790136519661,-19.867246509498727,-25.23842221713585,109.04097047379264
1658790136535648,-19.684138246738257,-28.900587472342977,110.20065613794168
1658790136551635,-17.975127794308264,-29.26680399786369,113.67971313038834
1658790136567623,-12.23773556115043,-27.008468757152514,118.25741969939736
1658790136583610,-11.932555123216616,-28.717479209582507,122.52994583047212
1658790136599598,-21.820401312275862,-31.097886625467254,125.9479667353321
1658790136615600,-32.623788815137004,-29.14473182269012,126.00900282291923
1658790136631588,-34.271763179980326,-24.628061341267994,122.28580148012497
1658790136647575,-26.7032883192187,-21.881437399862534,120.51575494010831
1658790136663562,-24.628061341267994,-24.567025253681095,124.60517280842305
1658790136679550,-24.933241779201808,-25.726710917830133,127.90112153810924
1658790136695537,-30.121309224078686,-19.80621042191183,123.1403067063402
1658790136711525,-35.12626840619532,-12.298771648737329,113.49660486762787
1658790136727512,-32.6848249027239,-11.01701380941472,110.38376440070215
1658790136743499,-28.534370946822264,-14.190890363927565,113.4355687800412
1658790136759487,-17.79201953154802,-15.960936903944457,119.23399710078593
1658790136775474,-19.439993896391115,-11.383230334935433,116.79255359731451
1658790136791462,-24.505989166094423,-4.852368963149502,106.35538261997408
1658790136807449,-30.670634012359642,-9.491111619745197,99.5193408102541
1658790136823436,-27.374685282673227,-16.571297779812312,102.9373617151141
1658790136839424,-26.82536049439227,-13.702601663233281,107.63714045929646
1658790136855411,-29.32784008545036,-3.875791561760934,104.2801556420236
1658790136871399,-32.928969253071045,-3.0212863355459376,96.95582513160934
1658790136887386,-32.07446402685605,-8.758678568703772,94.94163424124508
1658790136903373,-28.778515297169406,-13.946746013580423,95.00267032883221
1658790136919361,-25.726710917830133,-13.092240787365427,92.01190203707938
1658790136935333,-25.543602655069662,-8.819714656290444,83.83306630045035
1658790136951320,-30.975814450293683,-2.4719615472647547,74.43350881208517
1658790136967308,-33.90554665445961,0.7019150072480898,67.29228656443138
1658790136983295,-33.23414969100486,-1.4343480582895154,64.301518272679
1658790136999282,-22.186617837796575,-2.532997634851654,61.00556954299191
1658790137015270,-13.153276874952326,-3.5095750362402214,56.97718776226429
1658790137031257,-17.60891126878755,-3.814755474174035,49.95803768978385
1658790137047245,-26.031891355763946,0.8239871824216607,38.0560006103608
1658790137063232,-29.08369573510322,5.584802014190927,24.26184481574728
1658790137079219,-30.4875257495994,3.1433585107195086,14.862287327382319
1658790137095207,-26.52018005645823,-2.166781109330941,9.73525597009234
1658790137111194,-11.444266422522333,-6.378271152819025,6.012054627298312
1658790137127182,0.33569848172737693,-8.392462043183059,1.6784924086366573
1658790137143169,8.697642481116873,-8.51453421835663,-5.889982452124741
1658790137159156,20.17242694743254,-3.814755474174035,-17.120622568093268
1658790137175144,29.08369573510322,3.692683299000464,-27.191577019912984
1658790137191131,31.83031967650868,6.195162890058782,-34.088654917219856
1658790137207119,26.031891355763946,1.6784924086366573,-40.314335851071974
1658790137223106,18.219272144655406,-4.730296787975931,-47.45555809872599
1658790137239093,7.965209430075447,-9.002822919050914,-55.3292133974212
1658790137255096,1.6174563210497581,-9.85732814526591,-61.615930418860216
1658790137271083,13.76363775082018,-1.8005645838102282,-69.55062180514233
1658790137287071,30.243381399252257,3.875791561760934,-80.1098649576561
1658790137303058,33.3562218661782,0.09155413138023505,-86.8848706797894
1658790137319046,37.628747997253186,-4.730296787975931,-90.05874723430225
1658790137335033,46.662088960097435,-1.4953841458761872,-95.12474250400555
1658790137351020,54.596780346379546,2.105745021744042,-98.48172732127887
1658790137367008,48.24902723735386,-1.8005645838102282,-100.25177386129553
1658790137382995,36.95735103379866,-5.401693751430457,-102.99839780270099
1658790137398983,28.290226596475122,-5.889982452124741,-106.11123826962694
1658790137414970,22.308690012970146,-2.166781109330941,-109.7123674372474
1658790137430957,26.82536049439227,3.692683299000464,-111.54345006485096
1658790137446945,28.473334859235365,1.8005645838102282,-112.09277485313191
1658790137462932,30.73167009994654,0.33569848172737693,-111.60448615243763
1658790137478920,37.01838712138533,1.4953841458761872,-112.39795529106595
1658790137494907,42.38956282902245,1.9226367589837992,-113.13038834210738
1658790137510894,44.34271763179959,-1.3733119707026162,-113.25246051728095
1658790137526882,42.02334630350174,-3.570611123826893,-107.88128480964383
1658790137542869,36.408026245517476,-3.875791561760934,-106.29434653238741
1658790137558857,29.38887617303726,-1.6784924086366573,-113.13038834210738
1658790137574829,25.48256656748299,-2.166781109330941,-116.12115663385975
1658790137590816,23.651483939879427,1.6174563210497581,-109.52925917448692
1658790137606804,23.102159151598244,7.354848554207592,-106.90470740825526
1658790137622791,18.76859693293659,6.195162890058782,-107.27092393377598
1658790137638778,13.519493400473038,2.04470893415737,-103.85290302891599
1658790137654766,12.298771648737329,1.6784924086366573,-99.27519645990697
1658790137670753,23.407339589532285,6.500343327992596,-97.56618600747697
1658790137686741,30.914778362706784,6.561379415579495,-98.23758297093173
1658790137702728,27.252613107499656,2.7161058976118966,-99.1531242847334
1658790137718715,19.1348134584573,0.8239871824216607,-97.93240253299768
1658790137734703,17.120622568093268,5.401693751430457,-93.41573205157533
1658790137750690,21.69832913710229,10.711833371480907,-89.14320592050035
1658790137766677,16.754406042572555,10.284580758373295,-86.0303654535744
1658790137782665,7.232776379034021,8.087281605249018,-83.9551384756237
1658790137798652,3.936827649347606,10.406652933546866,-81.14747844663157
1658790137814640,6.317235065232353,16.815442130159454,-77.79049362935825
1658790137830627,10.711833371480907,19.256885633630873,-74.43350881208517
1658790137846614,11.505302510109004,12.542915999084471,-70.16098268101018
1658790137862602,7.843137254901876,7.476920729381163,-65.94949263752187
1658790137878589,2.7161058976118966,13.092240787365427,-65.27809567406734
1658790137894592,4.547188525215461,18.402380407415876,-66.13260090028234
1658790137910579,10.833905546654478,16.937514305333025,-63.44701304646378
1658790137926567,5.889982452124741,13.885709925993751,-57.77065690089262
1658790137942554,-5.76791027695117,14.618142977035177,-54.840924696726915
